time,seconds_elapsed,z,y,x
1761132545758943000,0.08894287109375,-0.4363104999065399,0.09934195876121521,-0.4035528600215912
1761132545791760400,0.121760498046875,-0.4363104999065399,0.09934195876121521,-0.4035528600215912
1761132545801760300,0.13176025390625,-0.4332561790943146,0.1598176211118698,-0.04864014685153961
1761132545811760400,0.141760498046875,-0.4363104999065399,0.06818783283233643,0.03504839166998863
1761132545821760300,0.15176025390625,-0.44486260414123535,0.04069889709353447,0.1529453843832016
1761132545831760400,0.161760498046875,-0.471129834651947,0.06207918003201485,0.2781727612018585
1761132545841760500,0.171760498046875,-0.49556443095207214,0.08712465316057205,0.36674821376800537
1761132545851760400,0.181760498046875,-0.5035057067871094,0.1097266674041748,0.4009566605091095
1761132545861760500,0.191760498046875,-0.48517972230911255,0.09201157838106155,0.33253976702690125
1761132545871760400,0.201760498046875,-0.4466952085494995,0.03275764733552933,0.21158844232559204
1761132545881760500,0.211760498046875,-0.38988474011421204,-0.045433104038238525,0.05948300287127495
1761132545891760400,0.221760498046875,-0.3214678466320038,-0.11690433323383331,-0.09506590664386749
1761132545901760500,0.231760498046875,-0.2701551616191864,-0.16516269743442535,-0.23373231291770935
1761132545911760400,0.241760498046875,-0.22739458084106445,-0.18715384602546692,-0.3528510332107544
1761132545921760500,0.251760498046875,-0.1999056488275528,-0.17004960775375366,-0.4426482319831848
1761132545931760400,0.261760498046875,-0.19379699230194092,-0.1370628923177719,-0.5049564838409424
1761132545941760500,0.271760498046875,-0.19807305932044983,-0.12301298975944519,-0.5342780351638794
1761132545951704800,0.281704833984375,-0.20295998454093933,-0.06559165567159653,-0.5049564838409424
1761132545961652200,0.29165234375,-0.20723603665828705,-0.01061378326267004,-0.42982006072998047
1761132545971602200,0.301602294921875,-0.20173825323581696,-0.01061378326267004,-0.32963815331459045
1761132545981553400,0.311553466796875,-0.18157969415187836,-0.04909829422831535,-0.21784982085227966
1761132545991508000,0.321508056640625,-0.14737124741077423,-0.12362385541200638,-0.10117455571889877
1761132546001464600,0.331464599609375,-0.10705413669347763,-0.20242546498775482,0.008781188167631626
1761132546011422700,0.341422607421875,-0.06673702597618103,-0.2751184403896332,0.09796751290559769
1761132546021383000,0.3513828125,-0.03375030308961868,-0.33803755044937134,0.14622586965560913
1761132546031344400,0.361344482421875,0.004734205547720194,-0.38873937726020813,0.142560675740242
1761132546041307400,0.371307373046875,0.051770828664302826,-0.41256311535835266,0.10590875893831253
1761132546051271700,0.381271728515625,0.09758572280406952,-0.4009566605091095,0.07047858089208603
1761132546061237200,0.3912373046875,0.1281289905309677,-0.3606395721435547,0.060093868523836136
1761132546071203800,0.401203857421875,0.14645494520664215,-0.28122708201408386,0.08819366991519928
1761132546081171500,0.41117138671875,0.15317445993423462,-0.16699528694152832,0.15355625748634338
1761132546091138000,0.421137939453125,0.14645494520664215,-0.05887213721871376,0.24457517266273499
1761132546101104600,0.431104736328125,0.12324206531047821,0.04008803144097328,0.34170275926589966
1761132546111071500,0.441071533203125,0.09453139454126358,0.08895725011825562,0.41195225715637207
1761132546121038000,0.4510380859375,0.07376197725534439,0.06635523587465286,0.435165137052536
1761132546131004700,0.461004638671875,0.040164388716220856,-0.0924697294831276,0.3850741684436798
1761132546140971300,0.47097119140625,0.003512475173920393,-0.24213171005249023,0.3032182455062866
1761132546150938000,0.480938232421875,-0.04108068719506264,-0.3905719518661499,0.19142989814281464
1761132546160904700,0.49090478515625,-0.08811730891466141,-0.487088680267334,0.06559165567159653
1761132546170871300,0.500871337890625,-0.14126259088516235,-0.524962306022644,-0.08651378750801086
1761132546180837000,0.510837158203125,-0.1999056488275528,-0.5182427763938904,-0.2777146100997925
1761132546190803700,0.5208037109375,-0.2499966025352478,-0.48342347145080566,-0.47746753692626953
1761132546200770600,0.5307705078125,-0.28237244486808777,-0.4150065779685974,-0.6527858972549438
1761132546210737200,0.540737060546875,-0.30253100395202637,-0.32337677478790283,-0.7841218709945679
1761132546220703700,0.550703857421875,-0.3068070709705353,-0.22197316586971283,-0.8659778237342834
1761132546230670600,0.560670654296875,-0.29275718331336975,-0.09796751290559769,-0.8794168829917908
1761132546240637200,0.57063720703125,-0.25854870676994324,0.0290924571454525,-0.8128325939178467
1761132546250637000,0.580636962890625,-0.20906862616539001,0.16226108372211456,-0.6705009937286377
1761132546260637200,0.59063720703125,-0.14676037430763245,0.28443413972854614,-0.473191499710083
1761132546270637000,0.600636962890625,-0.07223481684923172,0.3815616965293884,-0.24289529025554657
1761132546280638000,0.610637939453125,-0.0007635815418325365,0.4224896728992462,-0.004657847341150045
1761132546290638000,0.62063818359375,0.05726861581206322,0.4029420018196106,0.21036672592163086
1761132546300638000,0.630637939453125,0.10491610318422318,0.3363576829433441,0.3740786015987396
1761132546310638000,0.64063818359375,0.14523321390151978,0.23006711900234222,0.47303876280784607
1761132546320638000,0.650637939453125,0.1794416606426239,0.12438743561506271,0.5103015303611755
1761132546330638000,0.66063818359375,0.19532416760921478,0.0071013085544109344,0.48953214287757874
1761132546340638200,0.67063818359375,0.19715675711631775,-0.07108944654464722,0.43760859966278076
1761132546350638300,0.680638427734375,0.22403483092784882,-0.08391761034727097,0.3704134225845337
1761132546360638200,0.69063818359375,0.2698497176170349,-0.12545645236968994,0.21158844232559204
1761132546370638300,0.700638427734375,0.29184088110923767,-0.14439326524734497,0.082085020840168
1761132546380637400,0.710637451171875,0.31749722361564636,-0.12362385541200638,-0.04069889709353447
1761132546390637300,0.72063720703125,0.3376557528972626,-0.09063713252544403,-0.16287194192409515
1761132546400637400,0.730637451171875,0.3400992155075073,-0.08269587904214859,-0.2929862439632416
1761132546410637300,0.74063720703125,0.3248275816440582,-0.11385001242160797,-0.42126795649528503
1761132546420637000,0.750636962890625,0.29917123913764954,-0.15050192177295685,-0.5287802219390869
1761132546430637000,0.760636962890625,0.26740625500679016,-0.1724930703639984,-0.6045275330543518
1761132546440637000,0.770636962890625,0.2399173229932785,-0.19448421895503998,-0.6491206884384155
1761132546450637000,0.780636962890625,0.21731531620025635,-0.22075143456459045,-0.6741661429405212
1761132546460637000,0.790636962890625,0.19593502581119537,-0.2787836194038391,-0.7004333734512329
1761132546470637000,0.800636962890625,0.17760907113552094,-0.39240455627441406,-0.7328092455863953
1761132546480638000,0.810637939453125,0.16722436249256134,-0.5103015303611755,-0.7511351704597473
1761132546490637800,0.820637939453125,0.15683965384960175,-0.5854379534721375,-0.7505242824554443
1761132546500638000,0.830637939453125,0.15195272862911224,-0.6178138256072998,-0.7358635663986206
1761132546510637800,0.840637939453125,0.1598939746618271,-0.619035542011261,-0.7071529030799866
1761132546520638000,0.850637939453125,0.1788308024406433,-0.5762749910354614,-0.663170576095581
1761132546530637800,0.860637939453125,0.20265454053878784,-0.49319732189178467,-0.6136904954910278
1761132546540638000,0.870637939453125,0.2252565622329712,-0.40828704833984375,-0.5776494741439819
1761132546550637800,0.880637939453125,0.2393064647912979,-0.34842225909233093,-0.5568800568580627
1761132546560638000,0.890637939453125,0.2503020465373993,-0.2940552532672882,-0.5452736020088196
1761132546570637800,0.900637939453125,0.25641068816185,-0.23785565793514252,-0.5361106395721436
1761132546580637200,0.91063720703125,0.2643519341945648,-0.19937114417552948,-0.5226715803146362
1761132546590637000,0.920636962890625,0.26374107599258423,-0.1529453843832016,-0.49579349160194397
1761132546600637000,0.930636962890625,0.25763240456581116,-0.1321759670972824,-0.4854087829589844
1761132546610637000,0.940636962890625,0.24785856902599335,-0.11934779584407806,-0.4939609169960022
1761132546620637000,0.950636962890625,0.2405281960964203,-0.10285443812608719,-0.5196172595024109
1761132546630637000,0.960636962890625,0.24419337511062622,-0.06742425262928009,-0.5581017732620239
1761132546640636700,0.97063671875,0.2551889419555664,-0.04054617881774902,-0.6081926822662354
1761132546650636800,0.98063671875,0.2692388594150543,-0.03260493278503418,-0.663170576095581
1761132546660636700,0.99063671875,0.2765692472457886,-0.02038762718439102,-0.7022659778594971
1761132546670636800,1.00063671875,0.25641068816185,0.011377365328371525,-0.7102072238922119
1761132546680637700,1.0106376953125,0.20754146575927734,0.009544769302010536,-0.6912704110145569
1761132546690637600,1.020637451171875,0.13118331134319305,0.056581392884254456,-0.6161339282989502
1761132546700637700,1.0306376953125,-0.00015271631127689034,0.18425223231315613,-0.5269476175308228
1761132546710637600,1.040637451171875,-0.19074267148971558,0.27404943108558655,-0.4982369542121887
1761132546720638000,1.050637939453125,-0.4057672321796417,0.29542970657348633,-0.5336671471595764
1761132546730638000,1.06063818359375,-0.6195700764656067,0.28382325172424316,-0.6118578910827637
1761132546740637200,1.07063720703125,-0.7997753024101257,0.23373231291770935,-0.7212027907371521
1761132546750637300,1.08063720703125,-0.9219483733177185,0.1964695304632187,-0.8213846683502197
1761132546760637200,1.09063720703125,-0.9323330521583557,0.31009048223495483,-0.8507062196731567
1761132546770637300,1.10063720703125,-0.8443684577941895,0.5092325210571289,-0.8171086311340332
1761132546780636400,1.110636474609375,-0.7081455588340759,0.7627416253089905,-0.6986007690429688
1761132546790636300,1.12063623046875,-0.5621487498283386,1.0559569597244263,-0.4854087829589844
1761132546800636400,1.130636474609375,-0.42959097027778625,1.3418418169021606,-0.20868684351444244
1761132546810636300,1.14063623046875,-0.3159700334072113,1.556255578994751,0.07414376735687256
1761132546820636400,1.150636474609375,-0.22128593921661377,1.6362788677215576,0.30627256631851196
1761132546830636300,1.16063623046875,-0.11560624837875366,1.490893006324768,0.5115233063697815
1761132546840636400,1.170636474609375,-0.05513058975338936,1.2777010202407837,0.5616142153739929
1761132546850636300,1.18063623046875,-0.0032070425804704428,1.022970199584961,0.5555055737495422
1761132546860636400,1.190636474609375,0.040164388716220856,0.7731263041496277,0.5096907019615173
1761132546870636300,1.20063623046875,0.09208793938159943,0.5611560940742493,0.4455498456954956
1761132546880637200,1.21063720703125,0.17150041460990906,0.4182136058807373,0.37346774339675903
1761132546890636800,1.22063671875,0.28756481409072876,0.3357468247413635,0.30199649930000305
1761132546900637200,1.23063720703125,0.4164573848247528,0.29909488558769226,0.24762949347496033
1761132546910637000,1.240636962890625,0.5337435007095337,0.2880993187427521,0.223194882273674
1761132546920637200,1.25063720703125,0.6259841322898865,0.29359710216522217,0.22991441190242767
1761132546930637000,1.260636962890625,0.6882924437522888,0.3027600944042206,0.2604576647281647
1761132546940637200,1.27063720703125,0.7151705026626587,0.29848402738571167,0.2989421784877777
1761132546950637000,1.280636962890625,0.7127270102500916,0.27893635630607605,0.32643112540245056
1761132546960637200,1.29063720703125,0.7035640478134155,0.24533875286579132,0.344757080078125
1761132546970637000,1.300636962890625,0.698677122592926,0.21907155215740204,0.3789655268192291
1761132546980636200,1.31063623046875,0.669966459274292,0.20746511220932007,0.415617436170578
1761132546990636300,1.32063623046875,0.6125451326370239,0.1915826052427292,0.4363868534564972
1761132547000636200,1.33063623046875,0.5422956347465515,0.16898059844970703,0.4308890700340271
1761132547010636300,1.34063623046875,0.4665483236312866,0.16653713583946228,0.4046218693256378
1761132547020636200,1.35063623046875,0.3859141170978546,0.17814357578754425,0.3704134225845337
1761132547030636300,1.36063623046875,0.29733866453170776,0.17875444889068604,0.32215505838394165
1761132547040637000,1.370636962890625,0.20387627184391022,0.17264579236507416,0.2586250603199005
1761132547050637000,1.380636962890625,0.12018773704767227,0.15187637507915497,0.16699528694152832
1761132547060637000,1.390636962890625,0.023060163483023643,0.07857254147529602,-0.03520110994577408
1761132547070637000,1.400636962890625,-0.014813481830060482,0.015653422102332115,-0.18425223231315613
1761132547080638000,1.410637939453125,-0.04841107130050659,-0.03565925732254982,-0.3155882656574249
1761132547090637600,1.420637451171875,-0.08567385375499725,-0.07292203605175018,-0.4188244938850403
1761132547101016000,1.43101611328125,-0.1088867336511612,-0.12423472106456757,-0.5049564838409424
1761132547111016200,1.44101611328125,-0.10155634582042694,-0.19081902503967285,-0.576427698135376
1761132547121016000,1.45101611328125,-0.058795779943466187,-0.2439643144607544,-0.6216317415237427
1761132547131016200,1.46101611328125,0.016951510682702065,-0.2726749777793884,-0.6271295547485352
1761132547141016000,1.47101611328125,0.10797043144702911,-0.2983313202857971,-0.5941427946090698
1761132547151016200,1.48101611328125,0.18860463798046112,-0.29649871587753296,-0.5128977298736572
1761132547161016000,1.49101611328125,0.23319780826568604,-0.2952769994735718,-0.4121049642562866
1761132547171016200,1.50101611328125,0.2509129047393799,-0.30077478289604187,-0.32047519087791443
1761132547181015300,1.511015380859375,0.2600758671760559,-0.2647337317466736,-0.24045182764530182
1761132547191015700,1.521015625,0.25702154636383057,-0.17493653297424316,-0.18486309051513672
1761132547201015000,1.53101513671875,0.2356412708759308,-0.0771980956196785,-0.15370896458625793
1761132547211015000,1.541014892578125,0.19226983189582825,-0.00939205288887024,-0.140269935131073
1761132547221015000,1.55101513671875,0.14034628868103027,-0.000839939690195024,-0.12805262207984924
1761132547231015000,1.561014892578125,0.10002918541431427,-0.02955060638487339,-0.09750936180353165
1761132547241015000,1.57101513671875,0.07498370856046677,-0.08819366991519928,-0.06085744872689247
1761132547251015000,1.581014892578125,0.054825156927108765,-0.17554740607738495,-0.030314188450574875
1761132547261015000,1.59101513671875,0.028557950630784035,-0.27572929859161377,-0.018096882849931717
1761132547271015000,1.601014892578125,0.0022907445672899485,-0.39240455627441406,-0.03703370690345764
1761132547281015800,1.611015869140625,-0.00931569468230009,-0.47914743423461914,-0.0645226389169693
1761132547291016000,1.621015869140625,0.012064588256180286,-0.4602105915546417,-0.09689849615097046
1761132547301015800,1.631015869140625,0.027947084978222847,-0.2946661114692688,-0.09017898142337799
1761132547311016000,1.641015869140625,0.016340645030140877,-0.027718011289834976,-0.07551821321249008
1761132547321015800,1.651015869140625,-0.014202617108821869,0.2709950804710388,-0.07307475805282593
1761132547331016000,1.661015869140625,-0.053297992795705795,0.49701523780822754,-0.1097266674041748
1761132547341016000,1.67101611328125,-0.10033461451530457,0.6307947039604187,-0.1854739636182785
1761132547351016000,1.681015869140625,-0.1437060534954071,0.6595053672790527,-0.2905427813529968
1761132547361015800,1.691015869140625,-0.17180584371089935,0.5886450409889221,-0.3937790095806122
1761132547371016000,1.701015869140625,-0.15653422474861145,0.4579198658466339,-0.44509169459342957
1761132547381015000,1.71101513671875,-0.09666942805051804,0.3473532497882843,-0.38644862174987793
1761132547391015400,1.721015380859375,-0.0025961773935705423,0.3271946907043457,-0.20257818698883057
1761132547401015600,1.731015625,0.11285735666751862,0.42493313550949097,0.0924697294831276
1761132547421015600,1.751015625,0.3248275816440582,0.7602981328964233,0.8346710205078125
1761132547431015400,1.761015380859375,0.3975205719470978,0.8372671604156494,1.1639273166656494
1761132547441015600,1.771015625,0.4262312352657318,0.8036695718765259,1.3966670036315918
1761132547451015400,1.781015380859375,0.3926336467266083,0.6955464482307434,1.5163966417312622
1761132547461015600,1.791015625,0.30894508957862854,0.5342780351638794,1.5267813205718994
1761132547471015400,1.801015380859375,0.19043724238872528,0.34429892897605896,1.4485905170440674
1761132547481016300,1.811016357421875,0.05115996301174164,0.13721559941768646,1.2995394468307495
1761132547491016200,1.82101611328125,-0.08200865983963013,-0.05032002553343773,1.1083385944366455
1761132547501016600,1.8310166015625,-0.18585574626922607,-0.17676913738250732,0.9024770259857178
1761132547511016700,1.8410166015625,-0.2499966025352478,-0.19998200237751007,0.7216609120368958
1761132547521016600,1.8510166015625,-0.28909197449684143,-0.07170030474662781,0.554283857345581
1761132547531016700,1.8610166015625,-0.2762638032436371,0.08773551881313324,0.5322927236557007
1761132547541016600,1.8710166015625,-0.22617286443710327,0.2569451928138733,0.5842162370681763
1761132547551016700,1.8810166015625,-0.14798210561275482,0.4237114191055298,0.6917285323143005
1761132547561016800,1.891016845703125,-0.06001751124858856,0.5642104148864746,0.8224536776542664
1761132547571016700,1.9010166015625,0.03955352306365967,0.6705009937286377,0.962341845035553
1761132547581015800,1.911015869140625,0.15134187042713165,0.7230353951454163,1.0894018411636353
1761132547591016000,1.921015869140625,0.2710714638233185,0.7218136191368103,1.179198980331421
1761132547601015800,1.931015869140625,0.38957929611206055,0.6747770309448242,1.228068232536316
1761132547611016000,1.941015869140625,0.5038111209869385,0.6075818538665771,1.2402855157852173
1761132547621015800,1.951015869140625,0.6131559610366821,0.5275585055351257,1.2127965688705444
1761132547631016000,1.961015869140625,0.7157813310623169,0.44997861981391907,1.1547644138336182
1761132547641015800,1.971015869140625,0.8135197758674622,0.36995527148246765,1.0667997598648071
1761132547651015700,1.981015625,0.9039278626441956,0.29848402738571167,0.9513462781906128
1761132547661015800,1.991015869140625,0.973566472530365,0.22029328346252441,0.8035168647766113
1761132547671015700,2.001015625,1.0370965003967285,0.13110695779323578,0.6465244889259338
1761132547681016600,2.0110166015625,1.1012372970581055,-0.025274548679590225,0.49441906809806824
1761132547691016700,2.0210166015625,1.1415544748306274,-0.13095423579216003,0.36674821376800537
1761132547701016600,2.0310166015625,1.1488847732543945,-0.152334526181221,0.27145323157310486
1761132547711016700,2.0410166015625,1.1171197891235352,-0.152334526181221,0.18898643553256989
1761132547721016600,2.0510166015625,1.0444267988204956,-0.12912164628505707,0.11507174372673035
1761132547731016700,2.0610166015625,0.9295842051506042,-0.0771980956196785,0.06986771523952484
1761132547741016600,2.0710166015625,0.7762570381164551,-0.042989641427993774,0.07353290170431137
1761132547751016700,2.0810166015625,0.5196936130523682,-0.06803511828184128,0.19448421895503998
1761132547761016600,2.0910166015625,0.3724750876426697,-0.09857837855815887,0.31665727496147156
1761132547771016700,2.1010166015625,0.2710714638233185,-0.12362385541200638,0.42233696579933167
1761132547781015800,2.111015869140625,0.20754146575927734,-0.15905404090881348,0.4699844419956207
1761132547791015700,2.121015625,0.1586722433567047,-0.23235787451267242,0.4510476291179657
1761132547801015800,2.131015869140625,0.08231408894062042,-0.3337614834308624,0.37774381041526794
1761132547811015700,2.141015625,-0.03130684420466423,-0.4919756054878235,0.2531272768974304
1761132547821015800,2.151015869140625,-0.17119498550891876,-0.7021132707595825,0.08086328953504562
1761132547831015700,2.161015625,-0.3202461004257202,-0.9354637861251831,-0.13110695779323578
1761132547841015800,2.171015869140625,-0.47601673007011414,-1.1578186750411987,-0.37117698788642883
1761132547851015700,2.181015625,-0.6550002694129944,-1.3227523565292358,-0.644844651222229
1761132547861015800,2.191015869140625,-0.8541423082351685,-1.4076626300811768,-0.9374490976333618
1761132547871015700,2.201015625,-1.0563386678695679,-1.380784511566162,-1.2111166715621948
1761132547881016600,2.2110166015625,-1.2432634830474854,-1.217072606086731,-1.4078153371810913
1761132547891016700,2.2210166015625,-1.4020884037017822,-0.9849438667297363,-1.498834252357483
1761132547901016600,2.2310166015625,-1.5083789825439453,-0.7124979496002197,-1.4853951930999756
1761132547911016700,2.2410166015625,-1.5480852127075195,-0.46876272559165955,-1.4004849195480347
1761132547921016600,2.2510166015625,-1.5230398178100586,-0.2842814028263092,-1.2746466398239136
1761132547931016700,2.2610166015625,-1.4558446407318115,-0.16455182433128357,-1.129260778427124
1761132547941016600,2.2710166015625,-1.3739886283874512,-0.07414376735687256,-0.9686031937599182
1761132547951016700,2.2810166015625,-1.3122912645339966,-0.06559165567159653,-0.8036695718765259
1761132547961016600,2.2910166015625,-1.2597568035125732,-0.1376737505197525,-0.6301838755607605
1761132547971016700,2.3010166015625,-1.201724648475647,-0.21097758412361145,-0.43043091893196106
1761132547981015800,2.311015869140625,-1.124755620956421,-0.25618159770965576,-0.20746511220932007
1761132547991015700,2.321015625,-0.9842566251754761,-0.19631682336330414,0.12362385541200638
1761132548001015800,2.331015869140625,-0.897513747215271,-0.09308059513568878,0.2855031490325928
1761132548011015700,2.341015625,-0.8419250249862671,-0.06986771523952484,0.3496440052986145
1761132548021015800,2.351015869140625,-0.8101600408554077,-0.23602305352687836,0.34353533387184143
1761132548031015700,2.361015625,-0.7050912380218506,-0.2800053656101227,0.40767619013786316
1761132548041015600,2.371015625,-0.555429220199585,-0.23968824744224548,0.5487860441207886
1761132548051015700,2.381015625,-0.3959933817386627,-0.13400855660438538,0.7296021580696106
1761132548060982500,2.390982421875,-0.23228150606155396,0.010766499675810337,0.9171378016471863
1761132548070949000,2.40094921875,-0.11194105446338654,0.09812022745609283,1.074741005897522
1761132548080916700,2.410916748046875,-0.07162395119667053,0.08590292185544968,1.1602622270584106
1761132548090883300,2.42088330078125,-0.10033461451530457,-0.03260493278503418,1.1492666006088257
1761132548100850000,2.430849853515625,-0.18219055235385895,-0.2280818074941635,1.055193305015564
1761132548110816800,2.440816650390625,-0.30741792917251587,-0.4754822254180908,0.9183595180511475
1761132548120783400,2.450783447265625,-0.46502116322517395,-0.7344890832901001,0.7900778651237488
1761132548130750000,2.46075,-0.5963571667671204,-0.8261188864707947,0.7326564788818359
1761132548140716500,2.470716552734375,-0.6879869699478149,-0.7668649554252625,0.7289913296699524
1761132548150683400,2.480683349609375,-0.7411322593688965,-0.6306419968605042,0.7583128213882446
1761132548160650000,2.49064990234375,-0.745408296585083,-0.46876272559165955,0.7925212979316711
1761132548170616600,2.500616455078125,-0.7044803500175476,-0.33864840865135193,0.8206210732460022
1761132548180582400,2.51058251953125,-0.6269004344940186,-0.283059686422348,0.8352818489074707
1761132548190549200,2.52054931640625,-0.5291619896888733,-0.29588785767555237,0.8316166996955872
1761132548200515800,2.530515869140625,-0.4179845452308655,-0.3239876627922058,0.8163450360298157
1761132548210482400,2.540482421875,-0.32268956303596497,-0.4205043613910675,0.7741953134536743
1761132548220449000,2.550448974609375,-0.26282477378845215,-0.524962306022644,0.7192174792289734
1761132548230416000,2.560415771484375,-0.2151772826910019,-0.515188455581665,0.686841607093811
1761132548240382500,2.570382568359375,-0.18096883594989777,-0.42844560742378235,0.6703482270240784
1761132548250349000,2.58034912109375,-0.15775595605373383,-0.3245985209941864,0.6416375637054443
1761132548260316000,2.59031591796875,-0.14492778480052948,-0.1938733607530594,0.5322927236557007
1761132548270282500,2.600282470703125,-0.15042556822299957,-0.14378240704536438,0.43760859966278076
1761132548280250000,2.61025,-0.17058411240577698,-0.06131559982895851,0.3563635051250458
1761132548290216700,2.620216796875,-0.19013181328773499,0.030314188450574875,0.28672486543655396
1761132548300183300,2.630183349609375,-0.19685132801532745,0.04314235970377922,0.2030363380908966
1761132548310150100,2.640150146484375,-0.19013181328773499,-0.0417679101228714,0.10041097551584244
1761132548320116700,2.65011669921875,-0.26282477378845215,-0.24457517266273499,-0.023594669997692108
1761132548330083300,2.660083251953125,-0.23350323736667633,-0.1627192348241806,-0.09384417533874512
1761132548340050000,2.6700498046875,-0.047189339995384216,-0.06253732740879059,-0.22212587296962738
1761132548350016800,2.680016845703125,0.13057245314121246,-0.2079232633113861,-0.46158504486083984
1761132548360016600,2.6900166015625,0.22708915174007416,-0.33253976702690125,-0.6973790526390076
1761132548370016500,2.7000166015625,0.2845104932785034,-0.3392592966556549,-0.8720865249633789
1761132548380015900,2.710015869140625,0.33887749910354614,-0.31238120794296265,-0.9808205366134644
1761132548390015700,2.720015625,0.385303258895874,-0.23174700140953064,-1.0119746923446655
1761132548400015600,2.730015625,0.4054618179798126,-0.16638441383838654,-0.9887617826461792
1761132548410015700,2.740015625,0.39324450492858887,-0.19448421895503998,-0.9374490976333618
1761132548420015900,2.750015869140625,0.34865134954452515,-0.28183794021606445,-0.8726973533630371
1761132548430015700,2.760015625,0.2710714638233185,-0.36735907196998596,-0.8018369674682617
1761132548440016000,2.770015869140625,0.1690569519996643,-0.3441462218761444,-0.7028768062591553
1761132548450015700,2.780015625,0.07376197725534439,-0.1370628923177719,-0.5635995268821716
1761132548460015600,2.790015625,0.02428189292550087,0.2105194330215454,-0.391946405172348
1761132548470015700,2.800015625,0.026114489883184433,0.521449863910675,-0.25938865542411804
1761132548480016600,2.8100166015625,0.06215553730726242,0.643622875213623,-0.23189972341060638
1761132548490016500,2.8200166015625,0.1385136991739273,0.6002514362335205,-0.3424663245677948
1761132548500016600,2.8300166015625,0.2002110779285431,0.5300019383430481,-0.45120033621788025
1761132548510016500,2.8400166015625,0.2790127098560333,0.37545305490493774,-0.5489387512207031
1761132548520016600,2.8500166015625,0.3804163336753845,0.14760030806064606,-0.5971971154212952
1761132548530016500,2.8600166015625,0.48059824109077454,-0.06986771523952484,-0.5684864521026611
1761132548540016600,2.8700166015625,0.5624541640281677,-0.20547980070114136,-0.47013717889785767
1761132548550016500,2.8800166015625,0.6253733038902283,-0.23052527010440826,-0.3314707577228546
1761132548560016600,2.8900166015625,0.6754642724990845,-0.17554740607738495,-0.2007455974817276
1761132548570016500,2.9000166015625,0.7060074806213379,-0.09430231899023056,-0.11950051039457321
1761132548580015900,2.910015869140625,0.7047857642173767,-0.04115704447031021,-0.11400272697210312
1761132548590015700,2.920015625,0.6632469296455383,-0.024052819237113,-0.180587038397789
1761132548600016000,2.930015869140625,0.5978843569755554,-0.06620252132415771,-0.321086049079895
1761132548610015700,2.940015625,0.5386304259300232,-0.14561499655246735,-0.5012912750244141
1761132548620015600,2.950015625,0.5032002329826355,-0.25740334391593933,-0.6668357849121094
1761132548630015700,2.960015625,0.4922046661376953,-0.36796995997428894,-0.7847327589988708
1761132548640015600,2.970015625,0.4977024495601654,-0.4510476291179657,-0.8390997648239136
1761132548650015700,2.980015625,0.5013676285743713,-0.4571562707424164,-0.8122217059135437
1761132548660015900,2.990015869140625,0.4977024495601654,-0.3258202373981476,-0.6918812394142151
1761132548670015700,3.000015625,0.48915034532546997,-0.06253732740879059,-0.4890739917755127
1761132548680016600,3.0100166015625,0.4836525619029999,0.24228443205356598,-0.2471713423728943
1761132548690016500,3.0200166015625,0.48976120352745056,0.501902163028717,-0.008933904580771923
1761132548700016600,3.0300166015625,0.5135849714279175,0.6766096353530884,0.2140319049358368
1761132548710016500,3.0400166015625,0.5520694851875305,0.7438048124313354,0.415617436170578
1761132548720016600,3.0500166015625,0.5972734689712524,0.6478989720344543,0.6703482270240784
1761132548730016500,3.0600166015625,0.611934244632721,0.4945717751979828,0.7980191111564636
1761132548740016600,3.0700166015625,0.6174320578575134,0.30214923620224,0.8847619295120239
1761132548750016500,3.0800166015625,0.6125451326370239,0.10789407044649124,0.9263007640838623
1761132548760016600,3.0900166015625,0.5887213945388794,-0.102243572473526,0.9012553095817566
1761132548770016800,3.100016845703125,0.5477933883666992,-0.3081051707267761,0.8120689988136292
1761132548780015900,3.110015869140625,0.5154175758361816,-0.44921502470970154,0.6911176443099976
1761132548790015700,3.120015625,0.4970915913581848,-0.5200753808021545,0.5500078201293945
1761132548800016000,3.130015869140625,0.48426342010498047,-0.5493969321250916,0.3942371606826782
1761132548810015700,3.140015625,0.45921793580055237,-0.5518403649330139,0.2384665161371231
1761132548820015900,3.150015869140625,0.40912699699401855,-0.5506186485290527,0.08025242388248444
1761132548830015700,3.160015625,0.3462078869342804,-0.554894745349884,-0.06696610152721405
1761132548840016000,3.170015869140625,0.27351492643356323,-0.5591707825660706,-0.20013472437858582
1761132548850015700,3.180015625,0.19715675711631775,-0.5524512529373169,-0.31009048223495483
1761132548860015900,3.190015869140625,0.13118331134319305,-0.5225188732147217,-0.3943898677825928
1761132548870015700,3.200015625,0.07681630551815033,-0.4559345543384552,-0.4530329406261444
1761132548880016600,3.2100166015625,0.03405573591589928,-0.3643047511577606,-0.4982369542121887
1761132548890016500,3.2200166015625,-0.0019853119738399982,-0.2897791862487793,-0.5257259011268616
1761132548900016600,3.2300166015625,-0.023976460099220276,-0.23235787451267242,-0.5196172595024109
1761132548910016800,3.240016845703125,-0.039248090237379074,-0.22563834488391876,-0.5000695586204529
1761132548920016600,3.2500166015625,-0.047800205647945404,-0.3044399619102478,-0.48663052916526794
1761132548930016800,3.260016845703125,-0.058795779943466187,-0.4314999282360077,-0.4884631335735321
1761132548940016600,3.2700166015625,-0.08139779418706894,-0.5237405896186829,-0.48663052916526794
1761132548950016800,3.280016845703125,-0.15103642642498016,-0.5616142153739929,-0.5031238794326782
1761132548960016600,3.2900166015625,-0.21884247660636902,-0.5329035520553589,-0.5483279228210449
1761132548970016800,3.300016845703125,-0.28909197449684143,-0.4705953001976013,-0.6314055919647217
1761132548980015900,3.310015869140625,-0.3562871515750885,-0.42905646562576294,-0.7566329836845398
1761132548990015700,3.320015625,-0.42959097027778625,-0.4198935031890869,-0.8989645838737488
1761132549000016000,3.330015869140625,-0.49556443095207214,-0.39301541447639465,-1.0193049907684326
1761132549010015700,3.340015625,-0.5303837656974792,-0.3001639246940613,-1.081613302230835
1761132549020015900,3.350015869140625,-0.5334380865097046,-0.1938733607530594,-1.0883327722549438
1761132549030015700,3.360015625,-0.5108360648155212,-0.10468703508377075,-1.0529025793075562
1761132549040016000,3.370015869140625,-0.46929723024368286,0.00038179077091626823,-0.9820422530174255
1761132549050015700,3.380015625,-0.41859540343284607,0.1347721517086029,-0.8861364126205444
1761132549060015900,3.390015869140625,-0.3550654351711273,0.2471713423728943,-0.785954475402832
1761132549070015700,3.400015625,-0.28725937008857727,0.2679407596588135,-0.7040985822677612
1761132549080016600,3.4100166015625,-0.22311852872371674,0.1555415689945221,-0.6454554796218872
1761132549090016800,3.420016845703125,-0.16325373947620392,-0.006337726954370737,-0.5880341529846191
1761132549100016600,3.4300166015625,-0.11560624837875366,-0.11323914676904678,-0.5067890882492065
1761132549110016800,3.440016845703125,-0.08200865983963013,-0.13523028790950775,-0.4072180390357971
1761132549120016600,3.4500166015625,-0.058184914290905,-0.060704734176397324,-0.28932106494903564
1761132549130016800,3.460016845703125,-0.044135015457868576,0.07673994451761246,-0.17264579236507416
1761132549140016600,3.4700166015625,-0.02275473065674305,0.2361757755279541,-0.059635721147060394
1761132549150016800,3.480016845703125,0.02977968007326126,0.4273765981197357,0.054596081376075745
1761132549160016600,3.4900166015625,0.10797043144702911,0.5660430192947388,0.1480584591627121
1761132549170016800,3.500016845703125,0.18799377977848053,0.6106361746788025,0.20547980070114136
1761132549180015900,3.510015869140625,0.2496911734342575,0.5635995268821716,0.22686007618904114
1761132549190016000,3.52001611328125,0.2692388594150543,0.36445748805999756,0.19692768156528473
1761132549200016000,3.530015869140625,0.21181751787662506,0.17325665056705475,0.1321759670972824
1761132549210016000,3.54001611328125,0.09636399149894714,0.019318614155054092,0.05032002553343773
1761132549220015900,3.550015869140625,-0.038026362657547,-0.027718011289834976,-0.02298380434513092
1761132549230016000,3.56001611328125,-0.1485929638147354,0.02298380434513092,-0.07185302674770355
1761132549240016000,3.570015869140625,-0.21273382008075714,0.16836974024772644,-0.0895681157708168
1761132549250016000,3.58001611328125,-0.2347249686717987,0.37972912192344666,-0.06757696717977524
1761132549260015900,3.590015869140625,-0.2145664244890213,0.6075818538665771,-0.004046982154250145
1761132549270016000,3.60001611328125,-0.1693623960018158,0.7853436470031738,0.07658722996711731
1761132549280017000,3.610016845703125,-0.1082758679986,0.8922450542449951,0.14866933226585388
1761132549290016800,3.620016845703125,-0.03375030308961868,0.9221774339675903,0.20120373368263245
1761132549300017000,3.630016845703125,0.03527746722102165,0.8617017865180969,0.22563834488391876
1761132549310016800,3.640016845703125,0.0933096632361412,0.7212027907371521,0.2286926805973053
1761132549330016800,3.660016845703125,0.15195272862911224,0.3815616965293884,0.19570595026016235
1761132549340017000,3.670016845703125,0.144622340798378,0.22823452949523926,0.1419498175382614
1761132549350016800,3.680016845703125,0.10980302840471268,0.08895725011825562,0.052152618765830994
1761132549360017000,3.690016845703125,0.040164388716220856,-0.011224648915231228,-0.06879869848489761
1761132549370016800,3.700016845703125,-0.06185010448098183,-0.007559457328170538,-0.1909717470407486
1761132549380015900,3.710015869140625,-0.19257527589797974,0.07368562370538712,-0.3076470196247101
1761132549390015700,3.720015625,-0.30741792917251587,0.1952477991580963,-0.4090506434440613
1761132549400016000,3.730015869140625,-0.3856086730957031,0.3223077654838562,-0.4896848499774933
1761132549410015700,3.740015625,-0.4332561790943146,0.48235446214675903,-0.5752059817314148
1761132549420015900,3.750015869140625,-0.44364088773727417,0.5073999166488647,-0.6320164799690247
1761132549430015700,3.760015625,-0.43875396251678467,0.44631341099739075,-0.6882160305976868
1761132549440016000,3.770015869140625,-0.403323769569397,0.3180317282676697,-0.7181484699249268
1761132549450015700,3.780015625,-0.342237263917923,0.1799761801958084,-0.6949355602264404
1761132549460015900,3.790015869140625,-0.26893341541290283,0.0999528244137764,-0.6026949286460876
1761132549470015700,3.800015625,-0.1999056488275528,0.10056369006633759,-0.4542546570301056
1761132549480016600,3.8100166015625,-0.14614951610565186,0.1457677185535431,-0.2709950804710388
1761132549490016500,3.8200166015625,-0.10155634582042694,0.18791742622852325,-0.08345946669578552
1761132549500016600,3.8300166015625,-0.07223481684923172,0.1915826052427292,0.07292203605175018
1761132549510016500,3.8400166015625,-0.06429356336593628,0.16470454633235931,0.1834886521100998
1761132549520016600,3.8500166015625,-0.0630718395113945,0.14454598724842072,0.254349023103714
1761132549530016500,3.8600166015625,-0.06429356336593628,0.06696610152721405,0.2702315151691437
1761132549540016600,3.8700166015625,-0.059406645596027374,-0.08025242388248444,0.24274258315563202
1761132549550016500,3.8800166015625,-0.033139441162347794,-0.2384665161371231,0.1932624876499176
1761132549560016600,3.8900166015625,0.009010262787342072,-0.38201984763145447,0.14378240704536438
1761132549570016500,3.9000166015625,0.06948592513799667,-0.4314999282360077,0.12362385541200638
1761132549580015900,3.910015869140625,0.14095716178417206,-0.3148246705532074,0.152334526181221
1761132549590015700,3.920015625,0.20204368233680725,-0.10041097551584244,0.19937114417552948
1761132549600016000,3.930015869140625,0.2405281960964203,0.08101600408554077,0.21097758412361145
1761132549610015700,3.940015625,0.26313021779060364,0.17936530709266663,0.16210836172103882
1761132549620015900,3.950015869140625,0.275958389043808,0.18180876970291138,0.054596081376075745
1761132549630015700,3.960015625,0.28817567229270935,0.14149166643619537,-0.08284860104322433
1761132549640015600,3.970015625,0.29794952273368835,0.09323330968618393,-0.21174116432666779
1761132549650015700,3.980015625,0.31932979822158813,-0.02344195358455181,-0.3223077654838562
1761132549660015900,3.990015869140625,0.3303253948688507,-0.10041097551584244,-0.3155882656574249
1761132549670015700,4.000015625,0.32971450686454773,-0.1126282811164856,-0.2471713423728943
1761132549680016600,4.0100166015625,0.3376557528972626,-0.028328875079751015,-0.1097266674041748
1761132549690016800,4.020016845703125,0.3724750876426697,0.11827878654003143,0.082085020840168
1761132549700016600,4.0300166015625,0.427452951669693,0.20379991829395294,0.26106852293014526
1761132549710016800,4.040016845703125,0.49586987495422363,0.16409367322921753,0.3801872432231903
1761132549720016600,4.0500166015625,0.5612324476242065,0.02298380434513092,0.4461607038974762
1761132549730016800,4.060016845703125,0.5978843569755554,-0.20059287548065186,0.4565454125404358
1761132549740015900,4.070015869140625,0.6088799238204956,-0.5701663494110107,0.3753003478050232
1761132549750015700,4.080015625,0.5801692605018616,-0.9501245021820068,0.20242546498775482
1761132549760016000,4.090015869140625,0.5025894045829773,-1.1254428625106812,-0.02054034359753132
1761132549770015700,4.100015625,0.3865249752998352,-1.1101711988449097,-0.24778221547603607
1761132549780014800,4.110014892578125,0.26190847158432007,-0.9763917326927185,-0.4285983145236969
1761132549790015000,4.120014892578125,0.15561792254447937,-0.7088327407836914,-0.5049564838409424
1761132549800014800,4.130014892578125,0.06887505948543549,-0.3594178259372711,-0.4689154326915741
1761132549810015000,4.140014892578125,0.010842857882380486,-0.004505131393671036,-0.33941200375556946
1761132549820014800,4.150014892578125,-0.006872233934700489,0.2612212598323822,-0.15676330029964447
1761132549830015000,4.160014892578125,0.004123340360820293,0.4340961277484894,0.04115704447031021
1761132549840014800,4.170014892578125,0.024892758578062057,0.5037347674369812,0.2244166135787964
1761132549850015000,4.180014892578125,0.040164388716220856,0.4579198658466339,0.37346774339675903
1761132549860014800,4.190014892578125,0.051770828664302826,0.3742313086986542,0.4760931134223938
1761132549870015000,4.200014892578125,0.10247264802455902,0.2624429762363434,0.6092617511749268
1761132549880015600,4.210015625,0.17638733983039856,0.12316570430994034,0.819399356842041
1761132549890015700,4.220015625,0.19898934662342072,0.03703370690345764,0.9226356148719788
1761132549900015900,4.230015869140625,0.19165897369384766,-0.07903069257736206,0.9415724277496338
1761132549910015700,4.240015625,0.16722436249256134,-0.223194882273674,0.8841511011123657
1761132549920016000,4.250015869140625,0.13729196786880493,-0.3557526469230652,0.7748062014579773
1761132549930015700,4.260015625,0.09697485715150833,-0.4571562707424164,0.6410267353057861
1761132549940015900,4.270015869140625,0.057879481464624405,-0.5298492312431335,0.49380818009376526
1761132549950015700,4.280015625,0.027947084978222847,-0.5536729693412781,0.3496440052986145
1761132549960015600,4.290015625,0.004734205547720194,-0.5408447980880737,0.22197316586971283
1761132549970015700,4.300015625,-0.019089538604021072,-0.516410231590271,0.09796751290559769
1761132549980014800,4.310014892578125,-0.04596760869026184,-0.4760931134223938,-0.015653422102332115
1761132549990015000,4.320014892578125,-0.07956519722938538,-0.42233696579933167,-0.11217013001441956
1761132550000014800,4.330014892578125,-0.12476922571659088,-0.3441462218761444,-0.17936530709266663
1761132550010014700,4.3400146484375,-0.17547103762626648,-0.2500729560852051,-0.2062433809041977
1761132550020014800,4.350014892578125,-0.20662516355514526,-0.182877779006958,-0.20257818698883057
1761132550030014700,4.3600146484375,-0.20112738013267517,-0.1737148016691208,-0.1811978965997696
1761132550040015600,4.370015625,-0.15836681425571442,-0.21647536754608154,-0.15187637507915497
1761132550050015700,4.380015625,-0.11927144229412079,-0.2629011273384094,-0.12316570430994034
1761132550060015600,4.390015625,-0.13148874044418335,-0.3191007375717163,-0.13721559941768646
1761132550070015700,4.400015625,-0.19746218621730804,-0.40828704833984375,-0.22762365639209747
1761132550080016600,4.4100166015625,-0.28909197449684143,-0.5329035520553589,-0.39561161398887634
1761132550090016500,4.4200166015625,-0.3978259861469269,-0.7021132707595825,-0.6314055919647217
1761132550100016600,4.4300166015625,-0.5083925724029541,-0.8566621541976929,-0.8739190697669983
1761132550110016500,4.4400166015625,-0.6287330389022827,-0.9452376365661621,-1.1817951202392578
1761132550120016600,4.4500166015625,-0.6653849482536316,-0.8493317365646362,-1.232496976852417
1761132550130016500,4.4600166015625,-0.6611089110374451,-0.648967981338501,-1.24104905128479
1761132550140016600,4.4700166015625,-0.6085745096206665,-0.3643047511577606,-1.233718752861023
1761132550150016500,4.4800166015625,-0.5413793325424194,-0.0417679101228714,-1.2007319927215576
1761132550160016600,4.4900166015625,-0.47051894664764404,0.22212587296962738,-1.1549171209335327
1761132550170016800,4.500016845703125,-0.41370847821235657,0.38583776354789734,-1.1353694200515747
1761132550180015900,4.510015869140625,-0.36850446462631226,0.42493313550949097,-1.1714104413986206
1761132550190015700,4.520015625,-0.31902438402175903,0.3620140254497528,-1.2379947900772095
1761132550200016000,4.530015869140625,-0.27382034063339233,0.27527114748954773,-1.291140079498291
1761132550210015700,4.540015625,-0.21334469318389893,0.22334760427474976,-1.2905291318893433
1761132550220015900,4.550015869140625,-0.11743884533643723,0.27404943108558655,-1.232496976852417
1761132550230015700,4.560015625,0.015118914656341076,0.4524220824241638,-1.1341476440429688
1761132550240016000,4.570015869140625,0.17577648162841797,0.7291440367698669,-1.0205267667770386
1761132550250015700,4.580015625,0.3413209617137909,0.9960921406745911,-0.9179013967514038
1761132550260015900,4.590015869140625,0.49037206172943115,1.1927907466888428,-0.8354345560073853
1761132550270015700,4.600015625,0.6088799238204956,1.2838096618652344,-0.7596873044967651
1761132550280016600,4.6100166015625,0.6907358765602112,1.2697597742080688,-0.6723335385322571
1761132550290016800,4.620016845703125,0.7389942407608032,1.1659126281738281,-0.5660430192947388
1761132550300016600,4.6300166015625,0.7487680912017822,0.9814313650131226,-0.4542546570301056
1761132550310016800,4.640016845703125,0.7163922190666199,0.747469961643219,-0.35040757060050964
1761132550320016600,4.6500166015625,0.6736316680908203,0.5220606923103333,-0.24961480498313904
1761132550330016800,4.660016845703125,0.6382014751434326,0.3381902575492859,-0.1347721517086029
1761132550340016600,4.6700166015625,0.611934244632721,0.2160172164440155,0.11018481850624084
1761132550350016800,4.680016845703125,0.6204863786697388,0.3070361316204071,0.3398701548576355
1761132550360016600,4.6900166015625,0.6479753255844116,0.4646393656730652,0.5964335799217224
1761132550370016800,4.700016845703125,0.6779077053070068,0.5990297198295593,0.8242862820625305
1761132550380015900,4.710015869140625,0.7457137703895569,0.8262715935707092,1.0588585138320923
1761132550390015700,4.720015625,0.8440630435943604,1.0822241306304932,1.285489559173584
1761132550400016000,4.730015869140625,0.8929322957992554,1.1353694200515747,1.4412602186203003
1761132550410015700,4.740015625,0.8575021028518677,1.0199159383773804,1.513342261314392
1761132550420015900,4.750015869140625,0.7848091125488281,0.8800277709960938,1.5157856941223145
1761132550430015700,4.760015625,0.7066183686256409,0.7248679995536804,1.4620295763015747
1761132550440016000,4.770015869140625,0.6137668490409851,0.5281693339347839,1.3600151538848877
1761132550450015700,4.780015625,0.5160284042358398,0.34368807077407837,1.237842082977295
1761132550460015900,4.790015869140625,0.4213443100452423,0.22762365639209747,1.113836407661438
1761132550470015700,4.800015625,0.32421672344207764,0.16226108372211456,0.9763917326927185
1761132550480016600,4.8100166015625,0.2295326143503189,0.15676330029964447,0.828562319278717
1761132550490016500,4.8200166015625,0.13973543047904968,0.16348281502723694,0.6630178689956665
1761132550500016600,4.8300166015625,0.05115996301174164,0.1457677185535431,0.4669301211833954
1761132550510016500,4.8400166015625,-0.032528575509786606,0.1146135926246643,0.2482403665781021
1761132550520016600,4.8500166015625,-0.1033889427781105,0.08040513843297958,0.031383201479911804
1761132550530016500,4.8600166015625,-0.15592335164546967,0.04069889709353447,-0.16409367322921753
1761132550540016600,4.8700166015625,-0.19135354459285736,0.005268712528049946,-0.33391422033309937
1761132550550016500,4.8800166015625,-0.2054034322500229,-0.04604396969079971,-0.46647197008132935
1761132550560016600,4.8900166015625,-0.17852537333965302,-0.09308059513568878,-0.5397757887840271
1761132550570016500,4.9000166015625,-0.0630718395113945,-0.10041097551584244,-0.5128977298736572
1761132550580015600,4.910015625,0.04077525436878204,-0.08575020730495453,-0.4243222773075104
1761132550590015700,4.920015625,0.14217889308929443,-0.06559165567159653,-0.29909488558769226
1761132550600015600,4.930015625,0.21242839097976685,-0.06131559982895851,-0.16836974024772644
1761132550610015700,4.940015625,0.26251932978630066,-0.08819366991519928,-0.05047274008393288
1761132550620015600,4.950015625,0.30222558975219727,-0.11507174372673035,0.05581781268119812
1761132550630015700,4.960015625,0.33887749910354614,-0.14683672785758972,0.13584116101264954
1761132550640015600,4.970015625,0.37369680404663086,-0.17554740607738495,0.1786017268896103
1761132550650015700,4.980015625,0.38408151268959045,-0.21647536754608154,0.1584431678056717
1761132550660015900,4.990015869140625,0.3675881624221802,-0.30627256631851196,0.06742425262928009
1761132550670015700,5.000015625,0.3315471112728119,-0.4461607038974762,-0.08651378750801086
1761132550680016600,5.0100166015625,0.30283644795417786,-0.5848271250724792,-0.2508365511894226
1761132550690016500,5.0200166015625,0.28878653049468994,-0.657520055770874,-0.3723987340927124
1761132550700016600,5.0300166015625,0.28878653049468994,-0.5994879007339478,-0.4194353520870209
1761132550710016500,5.0400166015625,0.3052799105644226,-0.3704134225845337,-0.3943898677825928
1761132550720016600,5.0500166015625,0.33948835730552673,-0.024663684889674187,-0.2972623109817505
1761132550730016500,5.0600166015625,0.3627012372016907,0.22884538769721985,-0.20379991829395294
1761132550740016600,5.0700166015625,0.3510948121547699,0.272827684879303,-0.17447838187217712
1761132550750016800,5.080016845703125,0.31749722361564636,0.23251058161258698,-0.20257818698883057
1761132550760016600,5.0900166015625,0.24908030033111572,0.2465604841709137,-0.272827684879303
1761132550770016800,5.100016845703125,0.13240504264831543,0.2673299014568329,-0.40049853920936584
1761132550780015900,5.110015869140625,-0.01725694350898266,0.17264579236507416,-0.5910884737968445
1761132550790015700,5.120015625,-0.16508632898330688,-0.030161472037434578,-0.7877870798110962
1761132550800016000,5.130015869140625,-0.3220787048339844,-0.2702315151691437,-0.9398925304412842
1761132550810015700,5.140015625,-0.40393465757369995,-0.25740334391593933,-0.8623126745223999
1761132550820015900,5.150015869140625,-0.4424191415309906,-0.11507174372673035,-0.6332381963729858
1761132550830015700,5.160015625,-0.41493022441864014,0.013820826075971127,-0.3412446081638336
1761132550840016000,5.170015869140625,-0.3568980097770691,0.08651378750801086,-0.06635523587465286
1761132550850015700,5.180015625,-0.3153591752052307,0.06696610152721405,0.10896308720111847
1761132550860015900,5.190015869140625,-0.32330042123794556,-0.1126282811164856,0.1382846236228943
1761132550870015700,5.200015625,-0.3623957931995392,-0.4302782118320465,0.05337435007095337
1761132550880016600,5.2100166015625,-0.38866302371025085,-0.7320456504821777,-0.047418415546417236
1761132550890016800,5.220016845703125,-0.4179845452308655,-0.9275225400924683,-0.07857254147529602
1761132550900016600,5.2300166015625,-0.47601673007011414,-0.952567994594574,-0.015653422102332115
1761132550910016800,5.240016845703125,-0.5377141237258911,-0.878042459487915,0.11323914676904678
1761132550920016600,5.2500166015625,-0.5981897711753845,-0.7149413824081421,0.27756190299987793
1761132550930016800,5.260016845703125,-0.6214026808738708,-0.4473824203014374,0.46387580037117004
1761132550940016600,5.2700166015625,-0.594524621963501,-0.15172365307807922,0.6434701681137085
1761132550950016800,5.280016845703125,-0.5279402732849121,0.09140071272850037,0.7986299395561218
1761132550960016600,5.2900166015625,-0.4308127164840698,0.23984096944332123,0.9446267485618591
1761132550970016800,5.300016845703125,-0.3208569586277008,0.3271946907043457,1.0948995351791382
1761132550980015900,5.310015869140625,-0.22189679741859436,0.3876703679561615,1.2518919706344604
1761132550990015700,5.320015625,-0.14553864300251007,0.39072468876838684,1.3942235708236694
1761132551000016000,5.330015869140625,-0.08750644326210022,0.3577379584312439,1.5005141496658325
1761132551010015700,5.340015625,-0.05451972410082817,0.2972623109817505,1.5512158870697021
1761132551020015900,5.350015869140625,-0.055741455405950546,0.20685423910617828,1.532279133796692
1761132551030015700,5.360015625,-0.10461067408323288,0.05169447138905525,1.3966670036315918
1761132551040016000,5.370015869140625,-0.15775595605373383,-0.07475463300943375,1.2482267618179321
1761132551050015700,5.380015625,-0.21762074530124664,-0.23968824744224548,1.0667997598648071
1761132551060015900,5.390015869140625,-0.2499966025352478,-0.38812851905822754,0.8707120418548584
1761132551070015700,5.400015625,-0.24816401302814484,-0.47975829243659973,0.6752351522445679
1761132551080016600,5.4100166015625,-0.24205535650253296,-0.5591707825660706,0.48464521765708923
1761132551090016500,5.4200166015625,-0.24755313992500305,-0.6233116388320923,0.2879466116428375
1761132551100016600,5.4300166015625,-0.25366178154945374,-0.6703482270240784,0.0973566472530365
1761132551110016800,5.440016845703125,-0.25244006514549255,-0.6935611367225647,-0.06696610152721405
1761132551120016600,5.4500166015625,-0.2554943859577179,-0.6336963176727295,-0.1659262776374817
1761132551130016800,5.460016845703125,-0.2860376536846161,-0.534736156463623,-0.21357376873493195
1761132551140016600,5.4700166015625,-0.31780263781547546,-0.4663192629814148,-0.21846067905426025
1761132551150016800,5.480016845703125,-0.33796119689941406,-0.4162282943725586,-0.18669569492340088
1761132551160016600,5.4900166015625,-0.35262197256088257,-0.3698025345802307,-0.1256091594696045
1761132551170016800,5.500016845703125,-0.361174076795578,-0.3410918712615967,-0.04008803144097328
1761132551180015900,5.510015869140625,-0.36789360642433167,-0.36369389295578003,0.04482223838567734
1761132551190015700,5.520015625,-0.36361753940582275,-0.4302782118320465,0.11568260937929153
1761132551200016000,5.530015869140625,-0.33429601788520813,-0.5048037767410278,0.16943874955177307
1761132551210015700,5.540015625,-0.28298333287239075,-0.5622251033782959,0.20975585281848907
1761132551220015900,5.550015869140625,-0.21884247660636902,-0.5878814458847046,0.24579690396785736
1761132551230015700,5.560015625,-0.16203200817108154,-0.62880939245224,0.27084237337112427
1761132551240016000,5.570015869140625,-0.13026700913906097,-0.6843981742858887,0.27634015679359436
1761132551250015700,5.580015625,-0.12110403180122375,-0.801073431968689,0.2549598813056946
1761132551260015900,5.590015869140625,-0.13637566566467285,-1.0051023960113525,0.1474476009607315
1761132551270015700,5.600015625,-0.17669276893138885,-1.1089495420455933,0.01366810966283083
1761132551280016600,5.6100166015625,-0.22800545394420624,-1.075962781906128,-0.1396590620279312
1761132551290016800,5.620016845703125,-0.2658790946006775,-0.8963683843612671,-0.28443413972854614
1761132551300016600,5.6300166015625,-0.28848111629486084,-0.619646430015564,-0.39561161398887634
1761132551310016800,5.640016845703125,-0.29275718331336975,-0.29100093245506287,-0.4829653203487396
1761132551320016600,5.6500166015625,-0.2701551616191864,0.02603813074529171,-0.5489387512207031
1761132551330016800,5.660016845703125,-0.22678372263908386,0.2508365511894226,-0.6026949286460876
1761132551340016600,5.6700166015625,-0.17669276893138885,0.35040757060050964,-0.6521750092506409
1761132551350016800,5.680016845703125,-0.12110403180122375,0.30214923620224,-0.6839399933815002
1761132551360016600,5.6900166015625,-0.05268712714314461,0.18852828443050385,-0.6784422397613525
1761132551370016800,5.700016845703125,0.0377209298312664,0.1256091594696045,-0.6124687790870667
1761132551380015900,5.710015869140625,0.14034628868103027,0.19463694095611572,-0.4738023579120636
1761132551390016000,5.72001611328125,0.24846944212913513,0.391946405172348,-0.28871017694473267
1761132551400016000,5.730015869140625,0.3700316250324249,0.6802747845649719,-0.09873109310865402
1761132551410016000,5.74001611328125,0.4934264123439789,0.9704357981681824,0.04054617881774902
1761132551420015900,5.750015869140625,0.6192646622657776,1.1494193077087402,0.10468703508377075
1761132551430016000,5.76001611328125,0.7493789196014404,1.1811842918395996,0.10529789328575134
1761132551440016000,5.770015869140625,0.8807149529457092,1.0974957942962646,0.07292203605175018
1761132551450016000,5.78001611328125,0.9943358898162842,0.9655488729476929,0.0264962799847126
1761132551460015900,5.790015869140625,1.0658071041107178,0.8665887117385864,-0.01748601719737053
1761132551470015700,5.800015625,1.08718740940094,0.815276026725769,-0.05719225853681564
1761132551480016600,5.8100166015625,1.0749701261520386,0.7541894912719727,-0.09628763794898987
1761132551490016800,5.820016845703125,1.048092007637024,0.5709299445152283,-0.12255483865737915
1761132551500016600,5.8300166015625,1.0456485748291016,0.47746753692626953,-0.0749073475599289
1761132551510016800,5.840016845703125,1.042594313621521,0.4579198658466339,0.03749185428023338
1761132551520016600,5.8500166015625,1.038318157196045,0.5373323559761047,0.2030363380908966
1761132551530016800,5.860016845703125,1.0389291048049927,0.6759987473487854,0.37835466861724854
1761132551540015900,5.870015869140625,1.0450377464294434,0.7969500422477722,0.525573194026947
1761132551550015700,5.880015625,1.0731375217437744,0.8745299577713013,0.6275876760482788
1761132551560016000,5.890015869140625,1.1110111474990845,0.8922450542449951,0.6795112490653992
1761132551570015700,5.900015625,1.1464413404464722,0.8519279360771179,0.6819546818733215
1761132551580014800,5.910014892578125,1.1812607049942017,0.7651850581169128,0.6434701681137085
1761132551590015000,5.920014892578125,1.2337950468063354,0.6613379716873169,0.5817728042602539
1761132551600014800,5.930014892578125,1.2961033582687378,0.5403866767883301,0.48953214287757874
1761132551610015000,5.940014892578125,1.3492486476898193,0.3736204504966736,0.35819610953330994
1761132551620014800,5.950014892578125,1.4170546531677246,0.19463694095611572,0.21097758412361145
1761132551630015000,5.960014892578125,1.5111279487609863,0.06391177326440811,0.08025242388248444
1761132551640014800,5.970014892578125,1.610698938369751,-0.019165897741913795,-0.018707748502492905
1761132551650015000,5.980014892578125,1.687667965888977,-0.03321579843759537,-0.08345946669578552
1761132551660015000,5.99001513671875,1.7402023077011108,0.01992947794497013,-0.12316570430994034
1761132551670015000,6.000014892578125,1.7829629182815552,0.08407033234834671,-0.15309810638427734
1761132551680016000,6.010015869140625,1.821447491645813,0.12622003257274628,-0.18425223231315613
1761132551690015700,6.020015625,1.8556559085845947,0.13355042040348053,-0.22273674607276917
1761132551700015900,6.030015869140625,1.898416519165039,0.14271339774131775,-0.24472789466381073
1761132551710015700,6.040015625,1.959502935409546,0.2166280895471573,-0.22334760427474976
1761132551720016000,6.050015869140625,2.063350200653076,0.3876703679561615,-0.130496084690094
1761132551730015700,6.060015625,2.1458168029785156,0.47624582052230835,-0.05291620269417763
1761132551740015900,6.070015869140625,2.2374467849731445,0.5348888635635376,0.016722436994314194
1761132551750015700,6.080015625,2.328465700149536,0.5697082281112671,0.072311170399189
1761132551760016000,6.090015869140625,2.4188735485076904,0.5990297198295593,0.11812606453895569
1761132551770015700,6.100015625,2.493399143218994,0.5464953184127808,0.12912164628505707
1761132551780014800,6.110014892578125,2.5581510066986084,0.45181119441986084,0.10835222154855728
1761132551790015000,6.120014892578125,2.6308438777923584,0.382172554731369,0.06375905871391296
1761132551800014800,6.130014892578125,2.694373846054077,0.34002286195755005,-0.00038179077091626823
1761132551810015000,6.140014892578125,2.741410493850708,0.3381902575492859,-0.07918340712785721
1761132551820014800,6.150014892578125,2.769510269165039,0.3980550765991211,-0.15615242719650269
1761132551830015000,6.160014892578125,2.774397134780884,0.5067890882492065,-0.22823452949523926
1761132551840016000,6.170015869140625,2.7792842388153076,0.6656140685081482,-0.25999951362609863
1761132551850015700,6.180015625,2.7853927612304688,0.9447794556617737,-0.230677992105484
1761132551860015900,6.190015869140625,2.7670669555664062,1.2477686405181885,-0.1854739636182785
1761132551870015700,6.200015625,2.742021322250366,1.5031102895736694,-0.15798501670360565
1761132551880016600,6.2100166015625,2.715754270553589,1.6796503067016602,-0.18486309051513672
1761132551890016500,6.2200166015625,2.649780750274658,1.7138588428497314,-0.29420796036720276
1761132551900016600,6.2300166015625,2.5465445518493652,1.6057356595993042,-0.4750240743160248
1761132551910016800,6.240016845703125,2.4555256366729736,1.4334716796875,-0.6552293300628662
1761132551920016600,6.2500166015625,2.4127650260925293,1.2538772821426392,-0.7792350053787231
1761132551930016800,6.260016845703125,2.423149824142456,1.1231521368026733,-0.8262715935707092
1761132551940016600,6.2700166015625,2.4769058227539062,1.0907762050628662,-0.8073347806930542
1761132551950016800,6.280016845703125,2.541046619415283,1.0461831092834473,-0.7920631766319275
1761132551960016600,6.2900166015625,2.6284003257751465,0.7517460584640503,-0.8775842785835266
1761132551970016800,6.300016845703125,2.651613235473633,0.32047519087791443,-1.0180833339691162
1761132551980015900,6.310015869140625,2.6167941093444824,-0.2690097689628601,-1.1598039865493774
1761132551990015700,6.320015625,2.5746443271636963,-0.8603273630142212,-1.2386056184768677
1761132552000016000,6.330015869140625,2.523942470550537,-1.349630355834961,-1.2404382228851318
1761132552010015700,6.340015625,2.4524712562561035,-1.5909221172332764,-1.1372020244598389
1761132552020015900,6.350015869140625,2.3687827587127686,-1.4620295763015747,-0.9313403964042664
1761132552030015700,6.360015625,2.2905919551849365,-1.0350347757339478,-0.6711118221282959
1761132552040015600,6.370015625,2.233170509338379,-0.4003458023071289,-0.3937790095806122
1761132552050015700,6.380015625,2.2093467712402344,0.3070361316204071,-0.12805262207984924
1761132552060015600,6.390015625,2.2032382488250732,0.9490554928779602,0.0924697294831276
1761132552070015700,6.400015625,2.1922426223754883,1.4304172992706299,0.23480132222175598
1761132552080016600,6.4100166015625,2.175138473510742,1.756008505821228,0.30260735750198364
1761132552090016500,6.4200166015625,2.1641428470611572,1.9588158130645752,0.3050508201122284
1761132552100016600,6.4300166015625,2.1452059745788574,2.044947862625122,0.2494620978832245
1761132552110016500,6.4400166015625,2.116495370864868,1.982028603553772,0.1370628923177719
1761132552120016600,6.4500166015625,2.071291446685791,1.7883843183517456,-0.02603813074529171
1761132552130016500,6.4600166015625,2.010204792022705,1.4945582151412964,-0.22823452949523926
1761132552140016600,6.4700166015625,1.9393444061279297,1.1646909713745117,-0.4475351572036743
1761132552150016500,6.4800166015625,1.8623753786087036,0.8012261390686035,-0.6778313517570496
1761132552160016600,6.4900166015625,1.792125940322876,0.43165266513824463,-0.9117927551269531
1761132552170016800,6.500016845703125,1.7279850244522095,0.09201157838106155,-1.1543062925338745
1761132552180015900,6.510015869140625,1.6699528694152832,-0.2629011273384094,-1.4090369939804077
1761132552190016000,6.52001611328125,1.6045902967453003,-0.8261188864707947,-1.7706692218780518
1761132552200016000,6.530015869140625,1.5783231258392334,-1.1584296226501465,-1.9258290529251099
1761132552210015700,6.540015625,1.5587754249572754,-1.3087024688720703,-1.9307159185409546
1761132552220015900,6.550015869140625,1.545336365699768,-1.179198980331421,-1.7590628862380981
1761132552230015700,6.560015625,1.5526667833328247,-0.8236754536628723,-1.4572954177856445
1761132552240016000,6.570015869140625,1.6125315427780151,-0.36674821376800537,-1.0974957942962646
1761132552250015700,6.580015625,1.7450892925262451,0.0742964819073677,-0.7157049775123596
1761132552260015900,6.590015869140625,1.9234619140625,0.44081562757492065,-0.34979671239852905
1761132552270015700,6.600015625,2.0914499759674072,0.6717227101325989,-0.026648996397852898
1761132552280016600,6.6100166015625,2.1959078311920166,0.7609090209007263,0.24029912054538727
1761132552290016800,6.620016845703125,2.2508857250213623,0.7425830364227295,0.4363868534564972
1761132552300016600,6.6300166015625,2.2912027835845947,0.6546184420585632,0.5622251033782959
1761132552310016800,6.640016845703125,2.3211352825164795,0.5391649603843689,0.6165921092033386
1761132552320016600,6.6500166015625,2.3357958793640137,0.42065706849098206,0.6104834675788879
1761132552330016800,6.660016845703125,2.319302558898926,0.3168099820613861,0.5426774024963379
1761132552340015900,6.670015869140625,2.269211769104004,0.23434318602085114,0.42355868220329285
1761132552350015700,6.680015625,2.199573040008545,0.16714800894260406,0.2702315151691437
1761132552360016000,6.690015869140625,2.11588454246521,0.0944550409913063,0.09980010986328125
1761132552370015700,6.700015625,2.0279200077056885,0.008933904580771923,-0.06696610152721405
1761132552380015000,6.71001513671875,1.9454530477523804,-0.060093868523836136,-0.21296289563179016
1761132552390015000,6.720014892578125,1.877036213874817,-0.10835222154855728,-0.3381902575492859
1761132552400014800,6.730014892578125,1.8165605068206787,-0.1382846236228943,-0.443869948387146
1761132552410015000,6.740014892578125,1.7609717845916748,-0.15050192177295685,-0.5263367891311646
1761132552420015000,6.75001513671875,1.686446189880371,-0.18104518949985504,-0.6020840406417847
1761132552430015000,6.760014892578125,1.6510159969329834,-0.21036672592163086,-0.6094144582748413
1761132552440015000,6.77001513671875,1.6241379976272583,-0.21281017363071442,-0.5807037949562073
1761132552450015000,6.780014892578125,1.6045902967453003,-0.20120373368263245,-0.5190063714981079
1761132552460014800,6.790014892578125,1.5978707075119019,-0.17615826427936554,-0.4139375686645508
1761132552470015000,6.800014892578125,1.599703311920166,-0.14439326524734497,-0.2777146100997925
1761132552480015600,6.810015625,1.6131423711776733,-0.1175151988863945,-0.12072224169969559
1761132552490015700,6.820015625,1.6320792436599731,-0.11446087807416916,0.03749185428023338
1761132552500015600,6.830015625,1.6522377729415894,-0.10102184116840363,0.19204075634479523
1761132552510015700,6.840015625,1.669342041015625,-0.07047858089208603,0.32643112540245056
1761132552520015600,6.850015625,1.684613585472107,-0.04421137273311615,0.42416954040527344
1761132552530015700,6.860015625,1.6998852491378784,-0.022220224142074585,0.4901430010795593
1761132552540015600,6.870015625,1.697441816329956,-0.01488984003663063,0.5170210599899292
1761132552550015700,6.880015625,1.6705636978149414,-0.030161472037434578,0.5115233063697815
1761132552560015600,6.890015625,1.640020489692688,-0.05581781268119812,0.49319732189178467
1761132552570015700,6.900015625,1.630246639251709,-0.10102184116840363,0.47364965081214905
1761132552580014800,6.910014892578125,1.6418530941009521,-0.17066048085689545,0.4553236961364746
1761132552590014700,6.9200146484375,1.6705636978149414,-0.2604576647281647,0.43821945786476135
1761132552600014800,6.930014892578125,1.6968309879302979,-0.3392592966556549,0.42294782400131226
1761132552610014700,6.9400146484375,1.716989517211914,-0.3850741684436798,0.4211152195930481
1761132552620014800,6.950014892578125,1.7310394048690796,-0.4150065779685974,0.4308890700340271
1761132552630014700,6.9600146484375,1.746311068534851,-0.45837801694869995,0.4504367709159851
1761132552640015600,6.970015625,1.764026165008545,-0.5127450227737427,0.48953214287757874
1761132552650015700,6.980015625,1.7548631429672241,-0.6208681464195251,0.5738315582275391
1761132552660015600,6.990015625,1.6913331747055054,-0.7216609120368958,0.6318637132644653
1761132552670015700,7.000015625,1.5697709321975708,-0.8187885284423828,0.6905068159103394
1761132552680016600,7.0100166015625,1.3865114450454712,-0.9342420101165771,0.7479281425476074
1761132552690016500,7.0200166015625,1.173930287361145,-1.0429760217666626,0.8212319612503052
1761132552700016600,7.0300166015625,0.9967793822288513,-1.0741301774978638,0.9165269136428833
1761132552710016500,7.0400166015625,0.9027060866355896,-0.9574549198150635,1.0038806200027466
1761132552720016600,7.0500166015625,0.8807149529457092,-0.7216609120368958,1.038699984550476
1761132552730016500,7.0600166015625,0.8904888033866882,-0.4559345543384552,0.991052508354187
1761132552740016600,7.0700166015625,0.8886561989784241,-0.26351198554039,0.8456665873527527
1761132552750016500,7.0800166015625,0.8593347072601318,-0.16394096612930298,0.6202573180198669
1761132552760016600,7.0900166015625,0.8159632682800293,-0.10529789328575134,0.36247217655181885
1761132552770016500,7.1000166015625,0.7609853744506836,-0.05887213721871376,0.12301298975944519
1761132552780015900,7.110015869140625,0.6931793093681335,0.027259862050414085,-0.0645226389169693
1761132552790015700,7.120015625,0.6125451326370239,0.1653154045343399,-0.1958586722612381
1761132552800016000,7.130015869140625,0.5264131426811218,0.36018142104148865,-0.2807689309120178
1761132552810015700,7.140015625,0.4537201523780823,0.6020840406417847,-0.3357468247413635
1761132552820015900,7.150015869140625,0.40851613879203796,0.8103891015052795,-0.38522690534591675
1761132552830015700,7.160015625,0.40851613879203796,0.9258426427841187,-0.4322635233402252
1761132552840016000,7.170015869140625,0.4586070775985718,0.9514989852905273,-0.46647197008132935
1761132552850015700,7.180015625,0.5520694851875305,0.8946884870529175,-0.48174360394477844
1761132552860015900,7.190015869140625,0.6834055185317993,0.7706828713417053,-0.4683045744895935
1761132552870015700,7.200015625,0.841619610786438,0.6039166450500488,-0.401720255613327
1761132552880016600,7.2100166015625,1.0847439765930176,0.4121049642562866,-0.18730655312538147
1761132552890016500,7.2200166015625,1.2160799503326416,0.36934441328048706,0.00939205288887024
1761132552900016600,7.2300166015625,1.3101532459259033,0.3736204504966736,0.22136229276657104
1761132552910016800,7.240016845703125,1.3584115505218506,0.391946405172348,0.42905646562576294
1761132552920016600,7.2500166015625,1.3700180053710938,0.42004621028900146,0.6251442432403564
1761132552930016800,7.260016845703125,1.3474160432815552,0.4902957081794739,0.7986299395561218
1761132552940016600,7.2700166015625,1.2985467910766602,0.5642104148864746,0.9146943688392639
1761132552950016800,7.280016845703125,1.2368494272232056,0.6130796074867249,0.942183256149292
1761132552960016600,7.2900166015625,1.1794281005859375,0.6405685544013977,0.878042459487915
1761132552970016800,7.300016845703125,1.1213958263397217,0.653396725654602,0.7381542921066284
1761132552980015900,7.310015869140625,1.0664180517196655,0.6759987473487854,0.5665011405944824
1761132552990015700,7.320015625,1.018770456314087,0.718759298324585,0.40217840671539307
1761132553000016000,7.330015869140625,0.9845620393753052,0.776791512966156,0.2891683280467987
1761132553010015700,7.340015625,0.9717338681221008,0.8482627272605896,0.24029912054538727
1761132553020015900,7.350015869140625,0.9821186065673828,0.9252317547798157,0.24518603086471558
1761132553030015700,7.360015625,1.0151053667068481,0.9991464614868164,0.2983313202857971
1761132553040015600,7.370015625,1.0572550296783447,1.044350504875183,0.38324159383773804
1761132553050015700,7.380015625,1.09024178981781,1.0529025793075562,0.4803691506385803
1761132553060015600,7.390015625,1.1012372970581055,1.0388526916503906,0.5854379534721375
1761132553070015700,7.400015625,1.0920743942260742,0.9930378198623657,0.6837872862815857
1761132553080016600,7.4100166015625,1.059698462486267,0.8891907334327698,0.7552585005760193
1761132553090016500,7.4200166015625,1.010829210281372,0.7291440367698669,0.7919104099273682
1761132553100016600,7.4300166015625,0.9534079432487488,0.5495496392250061,0.7949647307395935
1761132553110016500,7.4400166015625,0.8678867816925049,0.3161991238594055,0.7436521053314209
1761132553120016600,7.4500166015625,0.812298059463501,0.21418462693691254,0.6782894730567932
1761132553130016500,7.4600166015625,0.7542658448219299,0.1555415689945221,0.5933791995048523
1761132553140016600,7.4700166015625,0.688903272151947,0.11644618958234787,0.4901430010795593
1761132553150016500,7.4800166015625,0.6241515874862671,0.10056369006633759,0.37713292241096497
1761132553160016600,7.4900166015625,0.5691736936569214,0.1152244582772255,0.2647337317466736
1761132553170016800,7.500016845703125,0.5288565754890442,0.14149166643619537,0.14989106357097626
1761132553180015900,7.510015869140625,0.508087158203125,0.1653154045343399,0.04115704447031021
1761132553190015700,7.520015625,0.5019785165786743,0.19402606785297394,-0.05780312418937683
1761132553200016000,7.530015869140625,0.4964807331562042,0.21418462693691254,-0.1457677185535431
1761132553210015700,7.540015625,0.48548516631126404,0.1958586722612381,-0.22273674607276917
1761132553220015900,7.550015869140625,0.4726569950580597,0.14210252463817596,-0.2874884605407715
1761132553230015700,7.560015625,0.46410486102104187,0.07307475805282593,-0.321086049079895
1761132553240016000,7.570015869140625,0.4683809280395508,0.04680754989385605,-0.3070361316204071
1761132553250015700,7.580015625,0.4781547784805298,0.06146831437945366,-0.2557234764099121
1761132553260015900,7.590015869140625,0.47448956966400146,0.07551821321249008,-0.18669569492340088
1761132553270015700,7.600015625,0.44577890634536743,0.04069889709353447,-0.13232868909835815
1761132553280016600,7.6100166015625,0.4024074673652649,-0.07170030474662781,-0.11278099566698074
1761132553290016500,7.6200166015625,0.3706424832344055,-0.22258402407169342,-0.11644618958234787
1761132553300016600,7.6300166015625,0.3510948121547699,-0.3362049460411072,-0.12683089077472687
1761132553310016500,7.6400166015625,0.33826664090156555,-0.40217840671539307,-0.13355042040348053
1761132553320016600,7.6500166015625,0.3462078869342804,-0.4095087945461273,-0.1359938681125641
1761132553330016500,7.6600166015625,0.3718642294406891,-0.3691916763782501,-0.13904820382595062
1761132553340016600,7.6700166015625,0.3962988257408142,-0.3032182455062866,-0.16836974024772644
1761132553350016500,7.6800166015625,0.3877467215061188,-0.28183794021606445,-0.21174116432666779
1761132553360016600,7.6900166015625,0.36392298340797424,-0.2855031490325928,-0.2679407596588135
1761132553370016500,7.7000166015625,0.346818745136261,-0.26595544815063477,-0.31436651945114136
1761132553380015900,7.710015869140625,0.3400992155075073,-0.22502748668193817,-0.3461315333843231
1761132553390015700,7.720015625,0.346818745136261,-0.18532124161720276,-0.3589596748352051
1761132553400015600,7.730015625,0.37308594584465027,-0.15416711568832397,-0.3528510332107544
1761132553410015700,7.740015625,0.41951170563697815,-0.12301298975944519,-0.33024901151657104
1761132553420015900,7.750015869140625,0.48426342010498047,-0.07964155822992325,-0.2929862439632416
1761132553430015700,7.760015625,0.55695641040802,-0.02344195358455181,-0.2526691257953644
1761132553440016000,7.770015869140625,0.6186537742614746,0.03703370690345764,-0.23189972341060638
1761132553450015700,7.780015625,0.6553056836128235,0.09140071272850037,-0.2459496259689331
1761132553460015600,7.790015625,0.6724098920822144,0.10056369006633759,-0.3174208402633667
1761132553470015700,7.800015625,0.6864598393440247,0.039477165788412094,-0.4383721649646759
1761132553480016600,7.8100166015625,0.6962336897850037,-0.09308059513568878,-0.6002514362335205
1761132553490016500,7.8200166015625,0.6925684809684753,-0.2580142021179199,-0.7615199089050293
1761132553500016600,7.8300166015625,0.6766859889030457,-0.41256311535835266,-0.8946884870529175
1761132553520016600,7.8500166015625,0.6663012504577637,-0.5866597294807434,-0.9802096486091614
1761132553530016500,7.8600166015625,0.6962336897850037,-0.5310709476470947,-0.9142361879348755
1761132553540016600,7.8700166015625,0.7603744864463806,-0.35269832611083984,-0.7712937593460083
1761132553550016500,7.8800166015625,0.8556694984436035,-0.006337726954370737,-0.5422192811965942
1761132553560016600,7.8900166015625,0.982729434967041,0.46525025367736816,-0.24778221547603607
1761132553570016500,7.9000166015625,1.1879801750183105,1.1255955696105957,0.22136229276657104
1761132553580015600,7.910015625,1.2912163734436035,1.3992631435394287,0.4767039716243744
1761132553590015700,7.920015625,1.3480268716812134,1.5293774604797363,0.6208681464195251
1761132553600015600,7.930015625,1.3852896690368652,1.5141059160232544,0.6538549065589905
1761132553610015700,7.940015625,1.394452691078186,1.3546700477600098,0.5927683711051941
1761132553620015600,7.950015625,1.374904990196228,1.0461831092834473,0.4571562707424164
1761132553630015700,7.960015625,1.3364204168319702,0.6356816291809082,0.27084237337112427
1761132553640015600,7.970015625,1.2893837690353394,0.2062433809041977,0.057039543986320496
1761132553650015700,7.980015625,1.2405146360397339,-0.17921258509159088,-0.16165021061897278
1761132553660015900,7.990015869140625,1.1928671598434448,-0.49380818009376526,-0.3833943009376526
1761132553670015700,8.000015625,1.1397218704223633,-0.6856198906898499,-0.5843689441680908
1761132553680016600,8.0100166015625,1.0829113721847534,-0.7186065912246704,-0.738306999206543
1761132553690016500,8.0200166015625,1.0474811792373657,-0.639194130897522,-0.8329911231994629
1761132553700016600,8.0300166015625,1.0358747243881226,-0.4864778220653534,-0.8684213161468506
1761132553710016500,8.0400166015625,1.0670288801193237,-0.32765284180641174,-0.8696430325508118
1761132553720016600,8.0500166015625,1.1482739448547363,-0.20120373368263245,-0.8623126745223999
1761132553730016500,8.0600166015625,1.154382586479187,-0.03260493278503418,-0.7951174974441528
1761132553740016600,8.0700166015625,1.1140655279159546,0.11766792088747025,-0.6784422397613525
1761132553750016800,8.080016845703126,1.0749701261520386,0.2624429762363434,-0.5043455958366394
1761132553760016600,8.0900166015625,1.049924612045288,0.37606391310691833,-0.3070361316204071
1761132553770016800,8.100016845703125,1.0279334783554077,0.42004621028900146,-0.12744176387786865
1761132553780015900,8.110015869140625,0.9986119866371155,0.3888920843601227,0.008781188167631626
1761132553790015700,8.120015625,0.9497427344322205,0.3161991238594055,0.08941540122032166
1761132553800016000,8.130015869140625,0.8269588351249695,0.13721559941768646,0.09796751290559769
1761132553810015700,8.140015625,0.7414376735687256,0.05291620269417763,0.08452847599983215
1761132553820015900,8.150015869140624,0.6583600044250488,0.07551821321249008,0.10285443812608719
1761132553830015700,8.160015625,0.585667073726654,0.15370896458625793,0.14500413835048676
1761132553840016000,8.170015869140625,0.5300782918930054,0.23984096944332123,0.19692768156528473
1761132553850015700,8.180015625,0.5044219493865967,0.3369685411453247,0.24762949347496033
1761132553860015600,8.190015625,0.5025894045829773,0.4169918894767761,0.2836705446243286
1761132553870015700,8.200015625,0.5099197626113892,0.45486554503440857,0.2903900742530823
1761132553880016600,8.2100166015625,0.5129740834236145,0.45486554503440857,0.2745075821876526
1761132553890016500,8.2200166015625,0.4964807331562042,0.4322635233402252,0.24029912054538727
1761132553900016600,8.2300166015625,0.456163614988327,0.37972912192344666,0.19570595026016235
1761132553910016800,8.240016845703124,0.3914119005203247,0.2807689309120178,0.14500413835048676
1761132553920016600,8.2500166015625,0.31444287300109863,0.14332425594329834,0.10529789328575134
1761132553930016800,8.260016845703126,0.23258693516254425,0.04008803144097328,0.09002626687288284
1761132553940016400,8.270016357421875,0.1391245573759079,-0.01488984003663063,0.09552405029535294
1761132553950016500,8.2800166015625,0.031612277030944824,-0.057039543986320496,0.08819366991519928
1761132553960016400,8.290016357421875,-0.07467827945947647,-0.08513934165239334,0.06314819306135178
1761132553970016500,8.3000166015625,-0.16081027686595917,-0.11995866149663925,0.014278975315392017
1761132553980015600,8.310015625,-0.2249511331319809,-0.16210836172103882,-0.04864014685153961
1761132553990015500,8.320015380859376,-0.26221391558647156,-0.1627192348241806,-0.09750936180353165
1761132554000015600,8.330015625,-0.2848159074783325,-0.11568260937929153,-0.11094839870929718
1761132554010015500,8.340015380859375,-0.3049744665622711,-0.0668133869767189,-0.08529205620288849
1761132554020015600,8.350015625,-0.33368512988090515,-0.06803511828184128,-0.04375322163105011
1761132554030015500,8.360015380859375,-0.4106541574001312,-0.2787836194038391,-0.02603813074529171
1761132554040015600,8.370015625,-0.4576907753944397,-0.4663192629814148,-0.060246583074331284
1761132554050015500,8.380015380859374,-0.4570799171924591,-0.5646685361862183,-0.11094839870929718
1761132554060015600,8.390015625,-0.4179845452308655,-0.6269767880439758,-0.18364135921001434
1761132554070015500,8.400015380859376,-0.3471241891384125,-0.6654613018035889,-0.26977336406707764
1761132554080016400,8.410016357421876,-0.25244006514549255,-0.6715700030326843,-0.3717878460884094
1761132554090016300,8.420016357421876,-0.1693623960018158,-0.6269767880439758,-0.4982369542121887
1761132554100016400,8.430016357421875,-0.11743884533643723,-0.4864778220653534,-0.6326273083686829
1761132554110016500,8.4400166015625,-0.10766500234603882,-0.3032182455062866,-0.7541894912719727
1761132554120016400,8.450016357421875,-0.1388191282749176,-0.19448421895503998,-0.8397106528282166
1761132554130016500,8.4600166015625,-0.20173825323581696,-0.14928019046783447,-0.8818603157997131
1761132554140016400,8.470016357421875,-0.26343563199043274,-0.07903069257736206,-0.8586474657058716
1761132554150016300,8.480016357421874,-0.2921462953090668,0.053527068346738815,-0.7639633417129517
1761132554160016400,8.490016357421876,-0.2793181240558624,0.2105194330215454,-0.614912211894989
1761132554170016500,8.5000166015625,-0.230448916554451,0.32902729511260986,-0.43531784415245056
1761132554180015600,8.510015625,-0.15592335164546967,0.4169918894767761,-0.2355649173259735
1761132554190015500,8.520015380859375,-0.04230241850018501,0.531223714351654,-0.011377365328371525
1761132554200015600,8.530015625,0.11102475970983505,0.6173557043075562,0.2244166135787964
1761132554210015500,8.540015380859375,0.26679539680480957,0.6466771960258484,0.4510476291179657
1761132554220015600,8.550015625,0.3871358633041382,0.605749249458313,0.6520223021507263
1761132554230015500,8.560015380859374,0.45433104038238525,0.5043455958366394,0.8114581108093262
1761132554240015600,8.570015625,0.46593746542930603,0.3840051591396332,0.923246443271637
1761132554250015700,8.580015625,0.42439863085746765,0.27343854308128357,0.9861655831336975
1761132554260015600,8.590015625,0.3413209617137909,0.17081318795681,0.9892199039459229
1761132554270015700,8.600015625,0.18799377977848053,0.10545061528682709,0.8927031755447388
1761132554280016600,8.6100166015625,0.09086620807647705,0.1457677185535431,0.7851909399032593
1761132554290016500,8.6200166015625,0.004734205547720194,0.24045182764530182,0.6636287569999695
1761132554300016600,8.6300166015625,-0.062460970133543015,0.37117698788642883,0.5628359913825989
1761132554310016500,8.6400166015625,-0.09300423413515091,0.4945717751979828,0.49502992630004883
1761132554320016600,8.6500166015625,-0.09300423413515091,0.5648213028907776,0.45288023352622986
1761132554330016500,8.6600166015625,-0.0734565481543541,0.6075818538665771,0.4363868534564972
1761132554340016600,8.6700166015625,-0.038026362657547,0.6191883087158203,0.44982588291168213
1761132554350016500,8.6800166015625,-0.0013744467869400978,0.6008623242378235,0.5011385679244995
1761132554360016600,8.6900166015625,0.031612277030944824,0.6075818538665771,0.5909357666969299
1761132554370016500,8.7000166015625,0.06459899991750717,0.6143013834953308,0.6990588903427124
1761132554380015600,8.710015625,0.10308351367712021,0.5849798321723938,0.8035168647766113
1761132554390015700,8.720015625,0.13973543047904968,0.5336671471595764,0.8878162503242493
1761132554400015600,8.730015625,0.16111570596694946,0.45120033621788025,0.9281333684921265
1761132554410015700,8.740015625,0.164170041680336,0.36140313744544983,0.9415724277496338
1761132554420015600,8.750015625,0.16050484776496887,0.31436651945114136,0.9482919573783875
1761132554430015700,8.760015625,0.16661348938941956,0.3058144152164459,0.96173095703125
1761132554440015600,8.770015625,0.18860463798046112,0.3412446081638336,0.981889545917511
1761132554450015700,8.780015625,0.22281309962272644,0.3791182339191437,0.99166339635849
1761132554460015600,8.790015625,0.26251932978630066,0.3840051591396332,0.9837220907211304
1761132554470015700,8.800015625,0.30711251497268677,0.36018142104148865,0.9751700162887573
1761132554480016600,8.8100166015625,0.34437528252601624,0.3223077654838562,0.9562332034111023
1761132554490016500,8.8200166015625,0.3651446998119354,0.24045182764530182,0.9165269136428833
1761132554500016600,8.8300166015625,0.36880987882614136,0.0541379339993,0.819399356842041
1761132554510016500,8.8400166015625,0.3510948121547699,-0.06925684958696365,0.7369325757026672
1761132554520016600,8.8500166015625,0.30405816435813904,-0.17004960775375366,0.6233116388320923
1761132554530016500,8.8600166015625,0.2252565622329712,-0.22502748668193817,0.477314829826355
1761132554540016600,8.8700166015625,0.12202033400535583,-0.22258402407169342,0.29161179065704346
1761132554550016800,8.880016845703125,0.011453723534941673,-0.1724930703639984,0.09308059513568878
1761132554560016600,8.8900166015625,-0.08261952549219131,-0.04237877577543259,-0.07918340712785721
1761132554570016800,8.900016845703124,-0.1547016203403473,0.12866349518299103,-0.21784982085227966
1761132554580015900,8.910015869140626,-0.19868391752243042,0.2911536395549774,-0.32414036989212036
1761132554590015700,8.920015625,-0.2096794992685318,0.4121049642562866,-0.40049853920936584
1761132554600016000,8.930015869140625,-0.20112738013267517,0.5061782002449036,-0.45058947801589966
1761132554610015700,8.940015625,-0.18157969415187836,0.5910884737968445,-0.48052188754081726
1761132554620015900,8.950015869140625,-0.14126259088516235,0.653396725654602,-0.4982369542121887
1761132554630015700,8.960015625,-0.07773260027170181,0.6943247318267822,-0.48174360394477844
1761132554640016000,8.970015869140624,-0.005650503560900688,0.6491206884384155,-0.4524220824241638
1761132554650015700,8.980015625,0.04077525436878204,0.4591415822505951,-0.4493677318096161
1761132554660015900,8.990015869140626,0.06643159687519073,0.20990857481956482,-0.4322635233402252
1761132554680016600,9.0100166015625,-0.0007635815418325365,-0.45837801694869995,-0.41027235984802246
1761132554690016800,9.020016845703125,0.02428189292550087,-0.6703482270240784,-0.5807037949562073
1761132554700017000,9.030016845703125,0.04993823543190956,-0.648967981338501,-0.7236462235450745
1761132554710016800,9.040016845703125,0.025503624230623245,-0.5170210599899292,-0.8287150859832764
1761132554720016600,9.0500166015625,-0.014202617108821869,-0.33131805062294006,-0.8464301824569702
