time,seconds_elapsed,z,y,x
1761132047366065200,0.103065185546875,-0.0005345070967450738,-0.0006108652451075613,-0.00045814894838258624
1761132047409641000,0.146640869140625,-0.0005345070967450738,-0.0006108652451075613,-0.00045814894838258624
1761132047419655400,0.156655517578125,-0.0017562375869601965,-0.0006108652451075613,-0.00045814894838258624
1761132047429660400,0.166660400390625,-0.0005345070967450738,0,0.0007635815418325365
1761132047439665000,0.176664794921875,0.0006872233934700489,-0.0012217304902151227,-0.00045814894838258624
1761132047449668400,0.18666845703125,-0.0005345070967450738,-0.0012217304902151227,0.00015271631127689034
1761132047459671600,0.196671630859375,-0.0011453722836449742,0,0.0007635815418325365
1761132047469674500,0.206674560546875,0.00007635815563844517,0,-0.0010690141934901476
1761132047479675000,0.2166748046875,0.0006872233934700489,0.0006108652451075613,0.00015271631127689034
1761132047489677300,0.22667724609375,0.00007635815563844517,0.0012217304902151227,-0.00045814894838258624
1761132047499679200,0.23667919921875,0.00007635815563844517,-0.0012217304902151227,0.0007635815418325365
1761132047509681400,0.246681396484375,-0.0005345070967450738,-0.0006108652451075613,0.00015271631127689034
1761132047519683300,0.256683349609375,0.00007635815563844517,0,-0.00045814894838258624
1761132047529685000,0.26668505859375,0.0006872233934700489,0.0006108652451075613,0.0007635815418325365
1761132047539686700,0.276686767578125,0.0006872233934700489,0,0.0013744467869400978
1761132047549688000,0.28668798828125,-0.0005345070967450738,-0.0006108652451075613,0.00015271631127689034
1761132047559689500,0.296689453125,-0.0005345070967450738,0,0.00015271631127689034
1761132047569691000,0.30669091796875,0.0006872233934700489,0,0.00015271631127689034
1761132047579692000,0.316692138671875,-0.0005345070967450738,0.0006108652451075613,0.0013744467869400978
1761132047589693400,0.326693359375,-0.0011453722836449742,-0.0012217304902151227,0.00015271631127689034
1761132047599694600,0.336694580078125,-0.0005345070967450738,0.0006108652451075613,0.0007635815418325365
1761132047609695700,0.34669580078125,0.00007635815563844517,0,-0.00045814894838258624
1761132047619695600,0.356695556640625,-0.0011453722836449742,-0.0006108652451075613,0.00015271631127689034
1761132047629696800,0.36669677734375,0.0006872233934700489,0,0.00015271631127689034
1761132047639697700,0.37669775390625,-0.0005345070967450738,0,-0.00045814894838258624
1761132047649698600,0.386698486328125,-0.0005345070967450738,0.0006108652451075613,0.0007635815418325365
1761132047659699700,0.39669970703125,0.00007635815563844517,0.0006108652451075613,-0.00045814894838258624
1761132047669700600,0.40670068359375,0.00007635815563844517,-0.0006108652451075613,-0.0010690141934901476
1761132047679700700,0.41670068359375,0.0012980886967852712,0,0.00015271631127689034
1761132047689700600,0.42670068359375,0.0012980886967852712,0,-0.001679879380390048
1761132047699700700,0.43670068359375,0.0006872233934700489,0,0.00015271631127689034
1761132047709700600,0.44670068359375,-0.0005345070967450738,0,0.00015271631127689034
1761132047719699700,0.45669970703125,-0.0005345070967450738,-0.0012217304902151227,-0.001679879380390048
1761132047729699600,0.466699462890625,-0.0005345070967450738,-0.0006108652451075613,-0.00045814894838258624
1761132047739699700,0.47669970703125,0.00007635815563844517,0,0.0007635815418325365
1761132047749699600,0.486699462890625,0.0006872233934700489,-0.0006108652451075613,-0.0010690141934901476
1761132047759699700,0.49669970703125,0.00007635815563844517,0.0006108652451075613,0.0007635815418325365
1761132047769699600,0.506699462890625,0.0006872233934700489,0,0.0007635815418325365
1761132047779700500,0.516700439453125,0.00007635815563844517,0.0006108652451075613,0.0019853119738399982
1761132047789700400,0.526700439453125,-0.0005345070967450738,0,-0.00045814894838258624
1761132047799700500,0.536700439453125,0.00007635815563844517,0.0006108652451075613,-0.00045814894838258624
1761132047809700400,0.546700439453125,-0.0005345070967450738,-0.0006108652451075613,-0.00045814894838258624
1761132047819699500,0.556699462890625,0.0012980886967852712,-0.0012217304902151227,0.00015271631127689034
1761132047829699600,0.566699462890625,0.00007635815563844517,0,0.0007635815418325365
1761132047839699500,0.576699462890625,-0.0005345070967450738,0.0006108652451075613,-0.0010690141934901476
1761132047849699300,0.58669921875,0.00007635815563844517,0.0006108652451075613,-0.00045814894838258624
1761132047859699500,0.596699462890625,0.0006872233934700489,-0.0006108652451075613,-0.00045814894838258624
1761132047869699300,0.60669921875,0.00007635815563844517,0.0006108652451075613,0.00015271631127689034
1761132047879698700,0.61669873046875,-0.0011453722836449742,-0.0006108652451075613,0.0013744467869400978
1761132047889698300,0.6266982421875,-0.0005345070967450738,-0.0012217304902151227,0.00015271631127689034
1761132047899697700,0.63669775390625,0.00007635815563844517,0,0.0007635815418325365
1761132047909697800,0.64669775390625,0.00007635815563844517,0.0006108652451075613,0.00015271631127689034
1761132047919698400,0.656698486328125,-0.0011453722836449742,0,0.00015271631127689034
1761132047929698600,0.666698486328125,-0.0017562375869601965,-0.0006108652451075613,0.00015271631127689034
1761132047939698400,0.676698486328125,0.0006872233934700489,0,0.0007635815418325365
1761132047949698600,0.686698486328125,-0.0005345070967450738,0.0006108652451075613,0.0007635815418325365
1761132047959698400,0.696698486328125,-0.0005345070967450738,0,0.0007635815418325365
1761132047969698600,0.706698486328125,0.0012980886967852712,0.0006108652451075613,-0.0010690141934901476
1761132047979699200,0.71669921875,-0.0005345070967450738,-0.0012217304902151227,0.00015271631127689034
1761132047989699300,0.72669921875,0.00007635815563844517,-0.0006108652451075613,0.0013744467869400978
1761132047999699200,0.73669921875,-0.0005345070967450738,0.0006108652451075613,0.0007635815418325365
1761132048009699000,0.746698974609375,0.00007635815563844517,0.0006108652451075613,0.0013744467869400978
1761132048019698200,0.7566982421875,0.0006872233934700489,0.0006108652451075613,0.00015271631127689034
1761132048029698300,0.7666982421875,0.00007635815563844517,0,-0.0010690141934901476
1761132048039698200,0.7766982421875,0.00007635815563844517,0,-0.0010690141934901476
1761132048049698300,0.7866982421875,0.00007635815563844517,0,-0.00045814894838258624
1761132048059698200,0.7966982421875,-0.0005345070967450738,0,-0.00045814894838258624
1761132048069698300,0.8066982421875,-0.0011453722836449742,0.0012217304902151227,0.0007635815418325365
1761132048079697700,0.81669775390625,0.0006872233934700489,0,0.00015271631127689034
1761132048089697500,0.826697509765625,-0.0011453722836449742,0.0006108652451075613,-0.00045814894838258624
1761132048099697700,0.83669775390625,-0.0005345070967450738,-0.0006108652451075613,-0.00045814894838258624
1761132048109697500,0.846697509765625,0.0012980886967852712,-0.0006108652451075613,-0.0010690141934901476
1761132048119698400,0.856698486328125,0.00007635815563844517,-0.0006108652451075613,0.00015271631127689034
1761132048129698600,0.866698486328125,-0.0011453722836449742,0,0.0013744467869400978
1761132048139698700,0.87669873046875,0.0006872233934700489,0,0.0007635815418325365
1761132048149698600,0.886698486328125,0.00007635815563844517,0.0006108652451075613,0.00015271631127689034
1761132048159698700,0.89669873046875,-0.0005345070967450738,-0.0012217304902151227,0.00015271631127689034
1761132048169698600,0.906698486328125,0.00007635815563844517,0.0006108652451075613,0.0007635815418325365
1761132048179699200,0.91669921875,-0.0011453722836449742,0.0006108652451075613,0.00015271631127689034
1761132048189699600,0.926699462890625,0.0006872233934700489,-0.0006108652451075613,0.0007635815418325365
1761132048199700200,0.9367001953125,0.00007635815563844517,0.0006108652451075613,0.00015271631127689034
1761132048209700400,0.946700439453125,0.0006872233934700489,0.0006108652451075613,0.0007635815418325365
1761132048219699500,0.956699462890625,-0.0005345070967450738,-0.0006108652451075613,-0.00045814894838258624
1761132048229699600,0.966699462890625,0.0006872233934700489,-0.0006108652451075613,0.0007635815418325365
1761132048239699500,0.976699462890625,0.00007635815563844517,0.0006108652451075613,0.0007635815418325365
1761132048249699300,0.98669921875,0.00007635815563844517,-0.0006108652451075613,0.0007635815418325365
1761132048259699500,0.996699462890625,0.00007635815563844517,-0.0006108652451075613,0.0007635815418325365
1761132048269699600,1.006699462890625,0.00007635815563844517,-0.0006108652451075613,0.0013744467869400978
1761132048279698700,1.01669873046875,-0.0011453722836449742,-0.0006108652451075613,0.00015271631127689034
1761132048289698800,1.02669873046875,0.00007635815563844517,0.0006108652451075613,0.00015271631127689034
1761132048299698700,1.03669873046875,-0.0017562375869601965,-0.0012217304902151227,0.0013744467869400978
1761132048309698800,1.04669873046875,-0.0005345070967450738,0.0006108652451075613,0.00015271631127689034
1761132048319699700,1.05669970703125,0.00007635815563844517,0.0006108652451075613,0.0007635815418325365
1761132048329699600,1.066699462890625,-0.0005345070967450738,0,-0.0010690141934901476
1761132048339699700,1.07669970703125,0.0012980886967852712,-0.0006108652451075613,-0.00045814894838258624
1761132048349699600,1.086699462890625,0.00007635815563844517,0,0.00015271631127689034
1761132048359699700,1.09669970703125,-0.0005345070967450738,0,0.00015271631127689034
1761132048369699600,1.106699462890625,0.00007635815563844517,-0.0006108652451075613,0.0007635815418325365
1761132048379700200,1.1167001953125,0.0006872233934700489,0,0.00015271631127689034
1761132048389700400,1.126700439453125,0.0019089538836851716,0.0006108652451075613,0.00015271631127689034
1761132048399700500,1.136700439453125,0.0006872233934700489,-0.0006108652451075613,0.00015271631127689034
1761132048409700400,1.146700439453125,-0.0005345070967450738,0,0.0007635815418325365
1761132048419699500,1.156699462890625,0.00007635815563844517,0.0006108652451075613,0.0007635815418325365
1761132048429699600,1.166699462890625,-0.0005345070967450738,0.0006108652451075613,-0.00045814894838258624
1761132048439699500,1.176699462890625,0.00007635815563844517,-0.0012217304902151227,-0.00045814894838258624
1761132048449699300,1.18669921875,-0.0011453722836449742,-0.0006108652451075613,0.00015271631127689034
1761132048459699500,1.196699462890625,0.0006872233934700489,-0.0006108652451075613,0.00015271631127689034
1761132048469699300,1.20669921875,-0.0005345070967450738,0,0.0007635815418325365
1761132048479698700,1.21669873046875,0.0006872233934700489,-0.0012217304902151227,-0.0029016099870204926
1761132048489698600,1.226698486328125,0.00007635815563844517,-0.0006108652451075613,-0.0010690141934901476
1761132048499698700,1.23669873046875,0.0006872233934700489,-0.0006108652451075613,0.00015271631127689034
1761132048509698800,1.24669873046875,-0.0005345070967450738,-0.0006108652451075613,0.00015271631127689034
1761132048519699500,1.256699462890625,0.00007635815563844517,0.0006108652451075613,0.00015271631127689034
1761132048529699600,1.266699462890625,-0.0011453722836449742,0.0006108652451075613,0.00015271631127689034
1761132048539699500,1.276699462890625,0.00007635815563844517,0,-0.001679879380390048
1761132048549699600,1.286699462890625,0.00007635815563844517,0,-0.00045814894838258624
1761132048559699500,1.296699462890625,-0.0011453722836449742,0,0.00015271631127689034
1761132048569699600,1.306699462890625,0.0006872233934700489,0,0.00015271631127689034
1761132048579700200,1.3167001953125,0.0006872233934700489,0,0.0007635815418325365
1761132048589700400,1.326700439453125,-0.0005345070967450738,0,-0.00045814894838258624
1761132048599700200,1.3367001953125,0.0006872233934700489,-0.0006108652451075613,-0.00045814894838258624
1761132048609700000,1.3467001953125,0.0006872233934700489,-0.0006108652451075613,-0.00045814894838258624
1761132048619699500,1.356699462890625,0.00007635815563844517,0,0.00015271631127689034
1761132048629699300,1.36669921875,-0.0005345070967450738,0,0.00015271631127689034
1761132048639699500,1.376699462890625,-0.0005345070967450738,0,0.00015271631127689034
1761132048649699300,1.38669921875,0.0006872233934700489,-0.0006108652451075613,0.00015271631127689034
1761132048659699500,1.396699462890625,0.00007635815563844517,-0.0006108652451075613,0.0007635815418325365
1761132048669699300,1.40669921875,-0.0005345070967450738,-0.0012217304902151227,-0.00045814894838258624
1761132048679698700,1.41669873046875,-0.0005345070967450738,0,-0.00045814894838258624
1761132048689698600,1.426698486328125,0.0006872233934700489,0,0.0019853119738399982
1761132048699698700,1.43669873046875,0.0006872233934700489,-0.0006108652451075613,-0.00045814894838258624
1761132048709698600,1.446698486328125,0.00007635815563844517,0.0012217304902151227,-0.00045814894838258624
1761132048719699500,1.456699462890625,-0.0005345070967450738,-0.0006108652451075613,0.00015271631127689034
1761132048729699600,1.466699462890625,0.0006872233934700489,0,0.0007635815418325365
1761132048739699500,1.476699462890625,-0.0005345070967450738,0.0006108652451075613,0.00015271631127689034
1761132048749699600,1.486699462890625,-0.0005345070967450738,0.0012217304902151227,0.00015271631127689034
1761132048759699700,1.49669970703125,0.00007635815563844517,0,0.00015271631127689034
1761132048769699600,1.506699462890625,-0.0005345070967450738,-0.0006108652451075613,0.0007635815418325365
1761132048779700200,1.5167001953125,0.0006872233934700489,0.0006108652451075613,-0.0010690141934901476
1761132048789700400,1.526700439453125,0.00007635815563844517,0,0.00015271631127689034
1761132048799700200,1.5367001953125,0.0012980886967852712,0,-0.00045814894838258624
1761132048809700400,1.546700439453125,0.0006872233934700489,0.0006108652451075613,0.00015271631127689034
1761132048819699500,1.556699462890625,0.0006872233934700489,0,0.00015271631127689034
1761132048829699300,1.56669921875,-0.0005345070967450738,0.0006108652451075613,0.00015271631127689034
1761132048839535400,1.576535400390625,0.0006872233934700489,0,0.0013744467869400978
1761132048849535200,1.58653515625,-0.0005345070967450738,0.0012217304902151227,0.0007635815418325365
1761132048859535400,1.596535400390625,-0.0005345070967450738,0.0006108652451075613,0.0007635815418325365
1761132048869535500,1.606535400390625,-0.0005345070967450738,0,-0.00045814894838258624
1761132048879534800,1.616534912109375,0.0006872233934700489,0,0.00015271631127689034
1761132048889534000,1.626533935546875,-0.0005345070967450738,0.0006108652451075613,-0.00045814894838258624
1761132048899534000,1.6365341796875,0.0006872233934700489,0,-0.0010690141934901476
1761132048909534500,1.646534423828125,-0.0017562375869601965,-0.0006108652451075613,-0.00045814894838258624
1761132048919535000,1.65653515625,-0.0005345070967450738,0,0.00015271631127689034
1761132048929535200,1.66653515625,0.00007635815563844517,-0.0006108652451075613,-0.0010690141934901476
1761132048939535400,1.676535400390625,0.00007635815563844517,-0.001832595793530345,0.0007635815418325365
1761132048949535200,1.68653515625,0.0006872233934700489,0,-0.00045814894838258624
1761132048959535000,1.69653515625,0.0006872233934700489,0,0.00015271631127689034
1761132048969535200,1.70653515625,0.0006872233934700489,0.0012217304902151227,-0.00045814894838258624
1761132048979536000,1.716535888671875,-0.0011453722836449742,-0.0012217304902151227,-0.00045814894838258624
1761132048989536000,1.726535888671875,-0.0011453722836449742,0,0.00015271631127689034
1761132048999535900,1.736535888671875,0.0019089538836851716,-0.0012217304902151227,-0.00045814894838258624
1761132049009536000,1.746535888671875,-0.0005345070967450738,-0.0012217304902151227,-0.0010690141934901476
1761132049019535400,1.756535400390625,0.00007635815563844517,0.0006108652451075613,-0.00045814894838258624
1761132049029535500,1.766535400390625,0.00007635815563844517,0.0006108652451075613,-0.00045814894838258624
1761132049039535400,1.776535400390625,-0.0011453722836449742,0,-0.00045814894838258624
1761132049049535200,1.78653515625,-0.0011453722836449742,0.0006108652451075613,-0.0010690141934901476
1761132049059535400,1.796535400390625,0.00007635815563844517,0.0006108652451075613,-0.00045814894838258624
1761132049069535200,1.80653515625,-0.0005345070967450738,-0.0006108652451075613,-0.00045814894838258624
1761132049079534600,1.81653466796875,0.0012980886967852712,0,0.00015271631127689034
1761132049089534700,1.82653466796875,0.00007635815563844517,0.0006108652451075613,-0.00045814894838258624
1761132049099534000,1.8365341796875,-0.0005345070967450738,0,-0.00045814894838258624
1761132049109534000,1.846533935546875,-0.0005345070967450738,0.0012217304902151227,-0.00045814894838258624
1761132049119534800,1.856534912109375,0.00007635815563844517,-0.0006108652451075613,0.00015271631127689034
1761132049129535000,1.866534912109375,0.00007635815563844517,0,-0.00045814894838258624
1761132049139534800,1.876534912109375,0.0006872233934700489,0.0006108652451075613,0.00015271631127689034
1761132049149535000,1.886534912109375,0.0006872233934700489,0.0006108652451075613,-0.00045814894838258624
1761132049159534800,1.896534912109375,0.00007635815563844517,0,-0.00045814894838258624
1761132049169535000,1.906534912109375,-0.0005345070967450738,0,-0.00045814894838258624
1761132049179535600,1.91653564453125,-0.0011453722836449742,0,0.00015271631127689034
1761132049189536300,1.926536376953125,0.00007635815563844517,0,0.00015271631127689034
1761132049199536000,1.9365361328125,0.00007635815563844517,0,-0.00045814894838258624
1761132049209536000,1.946535888671875,0.00007635815563844517,0.0006108652451075613,0.0007635815418325365
1761132049219535000,1.95653515625,0.00007635815563844517,-0.0006108652451075613,0.0007635815418325365
1761132049229535000,1.966534912109375,-0.0005345070967450738,0,-0.00045814894838258624
1761132049239534800,1.976534912109375,0.0006872233934700489,0,0.00015271631127689034
1761132049249535000,1.986534912109375,0.0012980886967852712,0,-0.00045814894838258624
1761132049259535000,1.99653515625,0.00007635815563844517,-0.0006108652451075613,-0.00045814894838258624
1761132049269535000,2.006534912109375,0.0006872233934700489,0,-0.0010690141934901476
1761132049279534300,2.016534423828125,0.00007635815563844517,0,0.0007635815418325365
1761132049289534500,2.026534423828125,0.00007635815563844517,0,-0.0010690141934901476
1761132049299534300,2.036534423828125,-0.0005345070967450738,0.0006108652451075613,0.00015271631127689034
1761132049309534200,2.0465341796875,0.0006872233934700489,0,0.00015271631127689034
1761132049319534800,2.056534912109375,0.0006872233934700489,0.0006108652451075613,0.0007635815418325365
1761132049329534700,2.06653466796875,-0.0005345070967450738,0.0006108652451075613,-0.00045814894838258624
1761132049339534800,2.076534912109375,0.0006872233934700489,-0.0006108652451075613,0.0007635815418325365
1761132049349535000,2.086534912109375,0.0006872233934700489,-0.0006108652451075613,-0.0010690141934901476
1761132049359534800,2.096534912109375,0.0006872233934700489,0,0.00015271631127689034
1761132049369535000,2.106534912109375,0.00007635815563844517,-0.0006108652451075613,-0.00045814894838258624
1761132049379535600,2.11653564453125,-0.0005345070967450738,0.0006108652451075613,-0.00045814894838258624
1761132049389535500,2.126535400390625,0.00007635815563844517,0.0012217304902151227,0.00015271631127689034
1761132049399536000,2.1365361328125,-0.0011453722836449742,0.0006108652451075613,-0.00045814894838258624
1761132049409536300,2.146536376953125,0.00007635815563844517,0,-0.00045814894838258624
1761132049419535400,2.156535400390625,0.0006872233934700489,0,-0.00045814894838258624
1761132049429535500,2.166535400390625,-0.0005345070967450738,-0.0006108652451075613,0.00015271631127689034
1761132049439535400,2.176535400390625,0.0006872233934700489,-0.0006108652451075613,0.00015271631127689034
1761132049449535200,2.18653515625,0.0006872233934700489,0.0006108652451075613,0.0007635815418325365
1761132049459535400,2.196535400390625,0.00007635815563844517,0.0006108652451075613,0.00015271631127689034
1761132049469535500,2.206535400390625,0.0012980886967852712,0,0.00015271631127689034
1761132049479534600,2.21653466796875,0.00007635815563844517,-0.0006108652451075613,-0.00045814894838258624
1761132049489534700,2.22653466796875,0.00007635815563844517,-0.0006108652451075613,-0.00045814894838258624
1761132049499534600,2.23653466796875,-0.0005345070967450738,0.0006108652451075613,-0.00045814894838258624
1761132049509534700,2.24653466796875,-0.0005345070967450738,0.0006108652451075613,0.0013744467869400978
1761132049519535600,2.25653564453125,0.00007635815563844517,-0.0012217304902151227,-0.0010690141934901476
1761132049529535500,2.266535400390625,-0.0005345070967450738,0,0.00015271631127689034
1761132049539535600,2.27653564453125,0.00007635815563844517,0.0006108652451075613,-0.00045814894838258624
1761132049549535700,2.28653564453125,0.00007635815563844517,-0.0006108652451075613,0.00015271631127689034
1761132049559535600,2.29653564453125,0.0019089538836851716,0,0.00015271631127689034
1761132049569535500,2.306535400390625,-0.0005345070967450738,-0.0006108652451075613,0.00015271631127689034
1761132049579536400,2.316536376953125,0.00007635815563844517,-0.0006108652451075613,0.00015271631127689034
1761132049589536300,2.326536376953125,0.00007635815563844517,0,0.00015271631127689034
1761132049599536000,2.3365361328125,0.0006872233934700489,-0.0012217304902151227,0.0007635815418325365
1761132049609536300,2.346536376953125,0.00007635815563844517,-0.0006108652451075613,0.00015271631127689034
1761132049619535400,2.356535400390625,0.0006872233934700489,-0.0006108652451075613,0.0007635815418325365
1761132049629535500,2.366535400390625,-0.0005345070967450738,-0.0006108652451075613,0.00015271631127689034
1761132049639535400,2.376535400390625,0.00007635815563844517,-0.0006108652451075613,0.00015271631127689034
1761132049649535500,2.386535400390625,0.0006872233934700489,0.0006108652451075613,-0.00045814894838258624
1761132049659535400,2.396535400390625,0.0006872233934700489,-0.0006108652451075613,0.0007635815418325365
1761132049669535500,2.406535400390625,0.0006872233934700489,0,0.00015271631127689034
1761132049679534600,2.41653466796875,-0.0011453722836449742,-0.0006108652451075613,0.00015271631127689034
1761132049689534700,2.42653466796875,0.0012980886967852712,0,0.0007635815418325365
1761132049699534600,2.43653466796875,0.00007635815563844517,-0.0006108652451075613,-0.00045814894838258624
1761132049709534700,2.44653466796875,-0.0005345070967450738,0,0.0007635815418325365
1761132049719535600,2.45653564453125,0.0006872233934700489,0.0006108652451075613,0.0007635815418325365
1761132049729535500,2.466535400390625,-0.0011453722836449742,0.0006108652451075613,0.00015271631127689034
1761132049739536000,2.476535888671875,0.0006872233934700489,-0.0006108652451075613,0.00015271631127689034
1761132049749535700,2.48653564453125,-0.0005345070967450738,-0.0006108652451075613,0.0007635815418325365
1761132049759535900,2.496535888671875,-0.0005345070967450738,0,0.0007635815418325365
1761132049769535700,2.50653564453125,0.00007635815563844517,-0.0006108652451075613,0.00015271631127689034
1761132049779536400,2.516536376953125,-0.0005345070967450738,0,-0.00045814894838258624
1761132049789536500,2.52653662109375,-0.0005345070967450738,-0.0006108652451075613,0.0007635815418325365
1761132049799536400,2.536536376953125,0.0019089538836851716,-0.0012217304902151227,-0.00045814894838258624
1761132049809536500,2.54653662109375,0.00007635815563844517,-0.0006108652451075613,0.00015271631127689034
1761132049819535600,2.55653564453125,-0.0005345070967450738,0,0.0007635815418325365
1761132049829535700,2.56653564453125,0.00007635815563844517,0,0.00015271631127689034
1761132049839535600,2.57653564453125,0.00007635815563844517,0.0006108652451075613,0.00015271631127689034
1761132049849535500,2.586535400390625,0.00007635815563844517,-0.0006108652451075613,0.00015271631127689034
1761132049859535600,2.59653564453125,-0.0005345070967450738,0,-0.00045814894838258624
1761132049869535500,2.606535400390625,-0.0005345070967450738,-0.0006108652451075613,-0.0010690141934901476
1761132049879534800,2.616534912109375,0.0006872233934700489,0.0006108652451075613,0.0007635815418325365
1761132049889534200,2.6265341796875,-0.0011453722836449742,0.0006108652451075613,0.00015271631127689034
1761132049899533600,2.636533447265625,0.00007635815563844517,0,0.00015271631127689034
1761132049909533400,2.646533447265625,0.0012980886967852712,0,-0.00045814894838258624
1761132049919533600,2.656533447265625,-0.0005345070967450738,0.0006108652451075613,0.00015271631127689034
1761132049929533000,2.666532958984375,0.0006872233934700489,0,0.00015271631127689034
1761132049939533000,2.676532958984375,-0.0005345070967450738,0.0006108652451075613,-0.00045814894838258624
1761132049949533000,2.686532958984375,-0.0005345070967450738,0.0006108652451075613,0.0007635815418325365
1761132049959533000,2.696532958984375,0.00007635815563844517,-0.0006108652451075613,0.0007635815418325365
1761132049969533000,2.706532958984375,0.00007635815563844517,0,0.00015271631127689034
1761132049979533600,2.716533447265625,0.0006872233934700489,0,0.00015271631127689034
1761132049989533700,2.72653369140625,-0.0005345070967450738,0.0006108652451075613,0.0007635815418325365
1761132049999533600,2.736533447265625,-0.0005345070967450738,-0.0006108652451075613,0.00015271631127689034
1761132050009533700,2.74653369140625,-0.0011453722836449742,-0.0006108652451075613,-0.00045814894838258624
1761132050019532800,2.75653271484375,0.0006872233934700489,0,0.00015271631127689034
1761132050029533000,2.766532958984375,-0.0005345070967450738,0.0012217304902151227,-0.00045814894838258624
1761132050039532500,2.776532470703125,-0.0005345070967450738,0.0006108652451075613,0.0007635815418325365
1761132050049532700,2.78653271484375,0.00007635815563844517,0,-0.0010690141934901476
1761132050059532500,2.796532470703125,-0.0005345070967450738,0,0.00015271631127689034
1761132050069532700,2.80653271484375,-0.0005345070967450738,0.0012217304902151227,0.00015271631127689034
1761132050079531800,2.81653173828125,-0.0005345070967450738,-0.0006108652451075613,0.0007635815418325365
1761132050089532000,2.826531982421875,0.00007635815563844517,0,-0.00045814894838258624
1761132050099532000,2.836531982421875,0.00007635815563844517,0,0.00015271631127689034
1761132050109532000,2.846531982421875,0.0006872233934700489,-0.0006108652451075613,0.00015271631127689034
1761132050119532800,2.85653271484375,-0.0005345070967450738,0,0.00015271631127689034
1761132050129532700,2.86653271484375,0.0006872233934700489,0.0006108652451075613,0.0007635815418325365
1761132050139532800,2.87653271484375,-0.0011453722836449742,-0.0012217304902151227,-0.00045814894838258624
1761132050149533000,2.886532958984375,0.0006872233934700489,0,0.0007635815418325365
1761132050159532800,2.89653271484375,0.00007635815563844517,0,-0.00045814894838258624
1761132050169533000,2.906532958984375,0.00007635815563844517,0.0006108652451075613,-0.00045814894838258624
1761132050179533600,2.916533447265625,-0.0005345070967450738,0.0006108652451075613,0.0007635815418325365
1761132050189534200,2.9265341796875,0.0006872233934700489,-0.0006108652451075613,0.00015271631127689034
1761132050199534800,2.936534912109375,-0.0011453722836449742,-0.0006108652451075613,-0.00045814894838258624
1761132050209534700,2.94653466796875,-0.0005345070967450738,0.0006108652451075613,0.0007635815418325365
1761132050219534600,2.95653466796875,0.00007635815563844517,0.0006108652451075613,0.00015271631127689034
1761132050229535200,2.96653515625,-0.0005345070967450738,0,0.00015271631127689034
1761132050239535400,2.976535400390625,0.00007635815563844517,-0.0006108652451075613,-0.00045814894838258624
1761132050249535200,2.98653515625,-0.0005345070967450738,0,0.0007635815418325365
1761132050259535400,2.996535400390625,0.0012980886967852712,-0.0006108652451075613,0.00015271631127689034
1761132050269535500,3.006535400390625,-0.0005345070967450738,0.0006108652451075613,0.0007635815418325365
1761132050279534600,3.01653466796875,0.0006872233934700489,-0.0006108652451075613,0.0007635815418325365
1761132050289534700,3.02653466796875,-0.0005345070967450738,0.0006108652451075613,-0.00045814894838258624
1761132050299534600,3.03653466796875,0.00007635815563844517,-0.0006108652451075613,0.00015271631127689034
1761132050309534700,3.04653466796875,0.00007635815563844517,0,0.0007635815418325365
1761132050319535400,3.056535400390625,0.00007635815563844517,0.0006108652451075613,0.0007635815418325365
1761132050329535500,3.066535400390625,-0.0005345070967450738,0,-0.00045814894838258624
1761132050339535600,3.07653564453125,0.00007635815563844517,-0.0012217304902151227,0.00015271631127689034
1761132050349535500,3.086535400390625,0.0006872233934700489,0,-0.0010690141934901476
1761132050359535600,3.09653564453125,-0.0005345070967450738,0,0.00015271631127689034
1761132050369535500,3.106535400390625,0.00007635815563844517,-0.0006108652451075613,-0.0010690141934901476
1761132050379536400,3.116536376953125,-0.0011453722836449742,-0.0006108652451075613,0.00015271631127689034
1761132050389536300,3.126536376953125,-0.0005345070967450738,0,-0.0010690141934901476
1761132050399536000,3.1365361328125,0.0006872233934700489,-0.0012217304902151227,-0.00045814894838258624
1761132050409536300,3.146536376953125,0.0006872233934700489,-0.0006108652451075613,0.00015271631127689034
1761132050419535400,3.156535400390625,0.00007635815563844517,0,0.0007635815418325365
1761132050429535500,3.166535400390625,0.0006872233934700489,0.0012217304902151227,0.0007635815418325365
1761132050439535400,3.176535400390625,0.00007635815563844517,-0.0012217304902151227,0.00015271631127689034
1761132050449535500,3.186535400390625,0.0006872233934700489,0.0006108652451075613,0.00015271631127689034
1761132050459535400,3.196535400390625,-0.0005345070967450738,0,0.0007635815418325365
1761132050469535500,3.206535400390625,-0.0005345070967450738,0,0.00015271631127689034
1761132050479534600,3.21653466796875,-0.0011453722836449742,0,0.00015271631127689034
1761132050489534700,3.22653466796875,0.0006872233934700489,0.0006108652451075613,0.00015271631127689034
1761132050499534600,3.23653466796875,0.00007635815563844517,-0.0006108652451075613,0.0007635815418325365
1761132050509534700,3.24653466796875,0.0012980886967852712,0,0.00015271631127689034
1761132050519535600,3.25653564453125,0.0012980886967852712,0.0006108652451075613,0.0007635815418325365
1761132050529535500,3.266535400390625,-0.0005345070967450738,0,0.0013744467869400978
1761132050539535600,3.27653564453125,0.0012980886967852712,-0.0006108652451075613,0.00015271631127689034
1761132050549535500,3.286535400390625,0.0006872233934700489,0,0.0007635815418325365
1761132050559535600,3.29653564453125,-0.0005345070967450738,-0.001832595793530345,0.0007635815418325365
1761132050569535500,3.306535400390625,0.00007635815563844517,-0.0006108652451075613,0.0013744467869400978
1761132050579536100,3.3165361328125,-0.0005345070967450738,0,0.00015271631127689034
1761132050589536300,3.326536376953125,0.0012980886967852712,-0.0006108652451075613,0.0013744467869400978
1761132050599536000,3.3365361328125,-0.0005345070967450738,-0.0006108652451075613,0.0013744467869400978
1761132050609536000,3.346535888671875,-0.0005345070967450738,0,0.0013744467869400978
1761132050619535600,3.35653564453125,0.00007635815563844517,-0.0006108652451075613,0.0013744467869400978
1761132050629535500,3.366535400390625,0.00007635815563844517,-0.0012217304902151227,0.00015271631127689034
1761132050639535600,3.37653564453125,0.0012980886967852712,0,0.00015271631127689034
1761132050649535500,3.386535400390625,-0.0011453722836449742,0,0.0013744467869400978
1761132050659535600,3.39653564453125,-0.0005345070967450738,-0.0006108652451075613,0.0007635815418325365
1761132050669535500,3.406535400390625,-0.0005345070967450738,-0.0006108652451075613,0.00015271631127689034
1761132050679534800,3.416534912109375,-0.0017562375869601965,-0.0012217304902151227,0.00015271631127689034
1761132050689534700,3.42653466796875,0.0006872233934700489,-0.0006108652451075613,0.0007635815418325365
1761132050699534800,3.436534912109375,0.00007635815563844517,0.0006108652451075613,0.0007635815418325365
1761132050709534700,3.44653466796875,-0.0005345070967450738,-0.0006108652451075613,0.0007635815418325365
1761132050719535600,3.45653564453125,-0.0005345070967450738,-0.0006108652451075613,-0.00045814894838258624
1761132050729535700,3.46653564453125,0.0006872233934700489,0,0.0007635815418325365
1761132050739535600,3.47653564453125,0.00007635815563844517,-0.0006108652451075613,0.00015271631127689034
1761132050749535700,3.48653564453125,0.00007635815563844517,0,-0.00045814894838258624
1761132050759535600,3.49653564453125,0.00007635815563844517,-0.0006108652451075613,0.00015271631127689034
1761132050769535700,3.50653564453125,0.00007635815563844517,0,0.0007635815418325365
1761132050779536400,3.516536376953125,-0.0005345070967450738,-0.0012217304902151227,0.0007635815418325365
1761132050789536300,3.526536376953125,-0.0005345070967450738,-0.0006108652451075613,0.0013744467869400978
1761132050799536400,3.536536376953125,0.00007635815563844517,0,0.0007635815418325365
1761132050809536300,3.546536376953125,0.0006872233934700489,0,0.0013744467869400978
1761132050819535600,3.55653564453125,-0.0011453722836449742,-0.0012217304902151227,0.0013744467869400978
1761132050829535500,3.566535400390625,-0.0005345070967450738,-0.0006108652451075613,0.00015271631127689034
1761132050839535400,3.576535400390625,0.00007635815563844517,0.0012217304902151227,0.0007635815418325365
1761132050849535500,3.586535400390625,0.00007635815563844517,-0.0006108652451075613,0.00015271631127689034
1761132050859535400,3.596535400390625,0.00007635815563844517,0.0006108652451075613,0.0013744467869400978
1761132050869535500,3.606535400390625,-0.0005345070967450738,0,0.0007635815418325365
1761132050879534800,3.616534912109375,0.0006872233934700489,0.0012217304902151227,0.0019853119738399982
1761132050889534200,3.6265341796875,-0.0005345070967450738,-0.0006108652451075613,0.0007635815418325365
1761132050899534000,3.6365341796875,-0.0005345070967450738,-0.0012217304902151227,-0.00045814894838258624
1761132050909533700,3.64653369140625,-0.0011453722836449742,-0.0006108652451075613,-0.00045814894838258624
1761132050919534300,3.656534423828125,0.0006872233934700489,-0.0006108652451075613,0.0007635815418325365
1761132050929534500,3.666534423828125,0.00007635815563844517,-0.0012217304902151227,0.0013744467869400978
1761132050939534300,3.676534423828125,0.00007635815563844517,0,0.003817907767370343
1761132050949534500,3.686534423828125,-0.0011453722836449742,-0.001832595793530345,0.005039638374000788
1761132050959534300,3.696534423828125,-0.0005345070967450738,-0.0024434609804302454,0.0025961773935705423
1761132050969534500,3.706534423828125,0.0012980886967852712,-0.0024434609804302454,0.0032070425804704428
1761132050979535000,3.71653515625,0.0006872233934700489,-0.0024434609804302454,0.0025961773935705423
1761132050989535200,3.72653515625,0.00007635815563844517,-0.0006108652451075613,0.0032070425804704428
1761132050999535000,3.73653515625,-0.0005345070967450738,0,0.004428773187100887
1761132051009535200,3.74653515625,-0.0011453722836449742,-0.0012217304902151227,0.004428773187100887
1761132051019534300,3.756534423828125,0.00007635815563844517,-0.0012217304902151227,0.004428773187100887
1761132051029534200,3.7665341796875,-0.0005345070967450738,0,0.0032070425804704428
1761132051039534300,3.776534423828125,0.0006872233934700489,0,0.0025961773935705423
1761132051049534200,3.7865341796875,0.0006872233934700489,0.0006108652451075613,0.0019853119738399982
1761132051059534300,3.796534423828125,-0.0011453722836449742,0,0.00015271631127689034
1761132051069534200,3.8065341796875,-0.0005345070967450738,0.0006108652451075613,-0.0010690141934901476
1761132051079533600,3.816533447265625,0.00007635815563844517,0.0006108652451075613,-0.00045814894838258624
1761132051089533400,3.826533447265625,-0.0005345070967450738,0,-0.00045814894838258624
1761132051099533300,3.836533203125,0.0006872233934700489,-0.0006108652451075613,0.0013744467869400978
1761132051109532700,3.84653271484375,-0.0005345070967450738,0.0012217304902151227,0.0013744467869400978
1761132051119533300,3.856533203125,0.0012980886967852712,0,0.00015271631127689034
1761132051129533400,3.866533447265625,0.0006872233934700489,0.0024434609804302454,-0.00045814894838258624
1761132051139533600,3.876533447265625,0.0006872233934700489,0.0006108652451075613,-0.00045814894838258624
1761132051149533400,3.886533447265625,0.0006872233934700489,0.0006108652451075613,-0.00045814894838258624
1761132051159533600,3.896533447265625,-0.0011453722836449742,0.0006108652451075613,-0.00045814894838258624
1761132051169533400,3.906533447265625,0.00007635815563844517,0,-0.0010690141934901476
1761132051179534300,3.916534423828125,-0.0011453722836449742,0,0.00015271631127689034
1761132051189535000,3.926534912109375,0.0012980886967852712,0.0012217304902151227,0.00015271631127689034
1761132051199534800,3.936534912109375,0.0006872233934700489,0.0006108652451075613,-0.00045814894838258624
1761132051209535200,3.94653515625,-0.0005345070967450738,-0.0006108652451075613,-0.00045814894838258624
1761132051219534300,3.956534423828125,0.00007635815563844517,0,0.00015271631127689034
1761132051229534500,3.966534423828125,0.0006872233934700489,0,-0.00045814894838258624
1761132051239534300,3.976534423828125,-0.0017562375869601965,0.0012217304902151227,-0.00045814894838258624
1761132051249534500,3.986534423828125,0.00007635815563844517,0,-0.001679879380390048
1761132051259534300,3.996534423828125,0.0006872233934700489,0.0006108652451075613,-0.00045814894838258624
1761132051269534200,4.0065341796875,0.00007635815563844517,0,-0.0010690141934901476
1761132051279533600,4.016533447265625,-0.0005345070967450738,0.0006108652451075613,-0.0017562375869601965
1761132051289533700,4.02653369140625,0.0006872233934700489,0,-0.0017562375869601965
1761132051299533600,4.036533447265625,0.0006872233934700489,0.0012217304902151227,-0.0005345070967450738
1761132051309533700,4.04653369140625,0.0006872233934700489,0.0012217304902151227,-0.0017562375869601965
1761132051319534300,4.056534423828125,-0.0005345070967450738,0,-0.0029779679607599974
1761132051329534500,4.066534423828125,0.0006872233934700489,0.0006108652451075613,-0.0035888333804905415
1761132051339534300,4.076534423828125,-0.0005345070967450738,0.0006108652451075613,-0.0035888333804905415
1761132051349534500,4.086534423828125,-0.0005345070967450738,0,-0.002367102773860097
1761132051359534300,4.096534423828125,0.00007635815563844517,0.0006108652451075613,-0.0017562375869601965
1761132051369534500,4.106534423828125,0.0006872233934700489,0,-0.0029779679607599974
1761132051379535000,4.11653515625,0.00007635815563844517,0.0006108652451075613,-0.0017562375869601965
1761132051389535200,4.12653515625,-0.0011453722836449742,0,-0.0035888333804905415
1761132051399535400,4.136535400390625,0.00007635815563844517,0.0012217304902151227,-0.0029779679607599974
1761132051409536000,4.146535888671875,0.0012980886967852712,0.0012217304902151227,0.00007635815563844517
1761132051419535400,4.156535400390625,-0.0005345070967450738,0.0006108652451075613,-0.0011453722836449742
1761132051429535200,4.16653515625,0.00007635815563844517,0.0006108652451075613,-0.0017562375869601965
1761132051439535000,4.17653515625,-0.0005345070967450738,0,-0.0029779679607599974
1761132051449535200,4.18653515625,0.00007635815563844517,-0.0006108652451075613,-0.002367102773860097
1761132051459535400,4.196535400390625,0.0006872233934700489,0.0006108652451075613,-0.002367102773860097
1761132051469535200,4.20653515625,0.0006872233934700489,0.0006108652451075613,-0.0005345070967450738
1761132051479534600,4.21653466796875,0.0012980886967852712,0.0012217304902151227,-0.0005345070967450738
1761132051489534500,4.226534423828125,0.00007635815563844517,0.0006108652451075613,-0.0005345070967450738
1761132051499534600,4.23653466796875,0.00007635815563844517,0.0006108652451075613,0.0006872233934700489
1761132051509534500,4.246534423828125,0.00007635815563844517,0.0012217304902151227,0.002519819187000394
1761132051519535400,4.256535400390625,0.0006872233934700489,0.0024434609804302454,0.002519819187000394
1761132051529535500,4.266535400390625,0.00007635815563844517,0.001832595793530345,0.0019089538836851716
1761132051539535400,4.276535400390625,0.0006872233934700489,0.0006108652451075613,0.0006872233934700489
1761132051549535500,4.286535400390625,-0.0005345070967450738,0.003054326167330146,0.0031306843739002943
1761132051559535400,4.296535400390625,0.00007635815563844517,0.003054326167330146,0.0019089538836851716
1761132051569535500,4.306535400390625,-0.0005345070967450738,-0.00733038317412138,-0.009697485715150833
1761132051579536100,4.3165361328125,-0.0005345070967450738,-0.00427605677396059,-0.013973542489111423
1761132051589536000,4.326535888671875,0.0019089538836851716,0.001832595793530345,-0.002367102773860097
1761132051599536000,4.3365361328125,0.0012980886967852712,0.0024434609804302454,0.00007635815563844517
1761132051609536000,4.346535888671875,-0.0011453722836449742,0.0024434609804302454,-0.0005345070967450738
1761132051619535400,4.356535400390625,0.0006872233934700489,-0.0012217304902151227,0.002519819187000394
1761132051629535200,4.36653515625,-0.0005345070967450738,-0.0012217304902151227,-0.0005345070967450738
1761132051639535400,4.376535400390625,0.0012980886967852712,0.00366519158706069,-0.0035888333804905415
1761132051649535200,4.38653515625,0.00007635815563844517,0.0012217304902151227,-0.004810563754290342
1761132051659535400,4.396535400390625,0.00007635815563844517,-0.0012217304902151227,-0.004199698567390442
1761132051669535200,4.40653515625,0.0006872233934700489,-0.001832595793530345,-0.004199698567390442
1761132051679534600,4.41653466796875,-0.0005345070967450738,0,-0.005421428941190243
1761132051689534700,4.42653466796875,0.00007635815563844517,-0.0006108652451075613,-0.005421428941190243
1761132051699534600,4.43653466796875,0.0006872233934700489,-0.001832595793530345,-0.005421428941190243
1761132051709534700,4.44653466796875,0.00007635815563844517,0,-0.005421428941190243
1761132051719535400,4.456535400390625,0.00007635815563844517,0,-0.004810563754290342
1761132051729535500,4.466535400390625,-0.0005345070967450738,-0.001832595793530345,-0.004810563754290342
1761132051739535600,4.47653564453125,0.00007635815563844517,-0.0012217304902151227,-0.004810563754290342
1761132051749535500,4.486535400390625,0.00007635815563844517,0,-0.007254024967551231
1761132051759535600,4.49653564453125,0.00007635815563844517,0.0012217304902151227,-0.009697485715150833
1761132051769535500,4.506535400390625,0.00007635815563844517,-0.0006108652451075613,-0.010919216088950634
1761132051779536100,4.5165361328125,0.0012980886967852712,-0.0012217304902151227,-0.011530081741511822
1761132051789536300,4.526536376953125,0.0006872233934700489,-0.0006108652451075613,-0.012751812115311623
1761132051799536000,4.5365361328125,-0.0005345070967450738,-0.0006108652451075613,-0.012140946462750435
1761132051809536300,4.546536376953125,0.0019089538836851716,0,-0.012140946462750435
1761132051819535400,4.556535400390625,0.0006872233934700489,0,-0.009697485715150833
1761132051829535500,4.566535400390625,0.0006872233934700489,0,-0.009086620062589645
1761132051839535400,4.576535400390625,0.0012980886967852712,0.0006108652451075613,-0.008475755341351032
1761132051849535500,4.586535400390625,0.0012980886967852712,0.0006108652451075613,-0.007254024967551231
1761132051859535600,4.59653564453125,0.0006872233934700489,0,-0.004810563754290342
1761132051869535500,4.606535400390625,0.0006872233934700489,0,-0.004199698567390442
1761132051879535000,4.61653515625,-0.0005345070967450738,0.0012217304902151227,0.0006872233934700489
1761132051889534500,4.626534423828125,-0.0005345070967450738,-0.001832595793530345,0.00007635815563844517
1761132051899533800,4.636533935546875,-0.0005345070967450738,0,0.00007635815563844517
1761132051909534000,4.646533935546875,0.0012980886967852712,0,-0.0005345070967450738
1761132051919534600,4.65653466796875,0.00007635815563844517,-0.0024434609804302454,-0.0005345070967450738
1761132051929534700,4.66653466796875,0.00007635815563844517,-0.0024434609804302454,0.0006872233934700489
1761132051939534600,4.67653466796875,0.0006872233934700489,-0.003054326167330146,0.0012980886967852712
1761132051949534700,4.68653466796875,0.0006872233934700489,-0.0012217304902151227,0.0019089538836851716
1761132051959534600,4.69653466796875,-0.0011453722836449742,-0.0006108652451075613,0.0031306843739002943
1761132051969534500,4.706534423828125,0.00007635815563844517,-0.0012217304902151227,0.002519819187000394
1761132051979535400,4.716535400390625,0.0006872233934700489,0,0.0031306843739002943
1761132051989535200,4.72653515625,-0.0005345070967450738,-0.0012217304902151227,0.0019089538836851716
1761132051999535400,4.736535400390625,0.00007635815563844517,-0.0012217304902151227,0.0019089538836851716
1761132052009535200,4.74653515625,0.00007635815563844517,-0.0006108652451075613,0.0019089538836851716
1761132052019534600,4.75653466796875,0.0006872233934700489,-0.0012217304902151227,0.0006872233934700489
1761132052029534500,4.766534423828125,-0.0005345070967450738,-0.0012217304902151227,0.0012980886967852712
1761132052039534300,4.776534423828125,0.0006872233934700489,-0.001832595793530345,0.00007635815563844517
1761132052049534500,4.786534423828125,0.0006872233934700489,-0.0006108652451075613,-0.0005345070967450738
1761132052059534300,4.796534423828125,0.00007635815563844517,-0.0006108652451075613,0.0012980886967852712
1761132052069534500,4.806534423828125,0.00007635815563844517,-0.0006108652451075613,0.00007635815563844517
1761132052079533800,4.816533935546875,0.0012980886967852712,0,0.00007635815563844517
1761132052089533700,4.82653369140625,-0.0005345070967450738,0.0006108652451075613,0.00007635815563844517
1761132052099533800,4.836533935546875,0.00007635815563844517,-0.0006108652451075613,0.00007635815563844517
1761132052109533700,4.84653369140625,0.00007635815563844517,-0.0006108652451075613,0.00007635815563844517
1761132052119534600,4.85653466796875,0.0006872233934700489,0.0006108652451075613,0.0006872233934700489
1761132052129534500,4.866534423828125,-0.0005345070967450738,-0.001832595793530345,0.0006872233934700489
1761132052139534600,4.87653466796875,0.00007635815563844517,0,0.0012980886967852712
1761132052149534500,4.886534423828125,-0.0005345070967450738,-0.0012217304902151227,0.00007635815563844517
1761132052159534600,4.89653466796875,0.0006872233934700489,-0.0012217304902151227,-0.0005345070967450738
1761132052169534500,4.906534423828125,-0.0005345070967450738,-0.0006108652451075613,0.0006872233934700489
1761132052179534800,4.916534912109375,0.00007635815563844517,-0.0006108652451075613,0.0006872233934700489
1761132052189535500,4.926535400390625,0.0012980886967852712,-0.0006108652451075613,0.0019089538836851716
1761132052199536000,4.9365361328125,-0.0005345070967450738,-0.0012217304902151227,-0.0011453722836449742
1761132052209535500,4.946535400390625,-0.0011453722836449742,-0.0006108652451075613,0.0012980886967852712
1761132052219534800,4.956534912109375,0.00007635815563844517,-0.0006108652451075613,0.002519819187000394
1761132052229535000,4.966534912109375,-0.0005345070967450738,-0.0006108652451075613,0.0019089538836851716
1761132052239534800,4.976534912109375,0.00007635815563844517,0,0.002519819187000394
1761132052249534700,4.98653466796875,0.00007635815563844517,-0.0012217304902151227,0.0031306843739002943
1761132052259534800,4.996534912109375,0.00007635815563844517,-0.001832595793530345,0.0031306843739002943
1761132052269535000,5.006534912109375,-0.006643159314990044,0.09896016865968704,0.022067507728934288
1761132052279534000,5.0165341796875,0.0019089538836851716,-0.25106561183929443,0.1460731476545334
1761132052289534200,5.0265341796875,-0.013973542489111423,-0.0806342139840126,-0.20150917768478394
1761132052299534000,5.0365341796875,0.0214566420763731,0.11545353382825851,-0.0316886343061924
1761132052309534200,5.0465341796875,0.00007635815563844517,0.09773843735456467,0.05383250117301941
1761132052319534800,5.056534912109375,-0.0035888333804905415,-0.01710422709584236,-0.055512379854917526
1761132052329535000,5.066534912109375,-0.0011453722836449742,0.012217304669320583,0.0031306843739002943
1761132052339534800,5.076534912109375,-0.0005345070967450738,-0.018325956538319588,0.022067507728934288
1761132052349535000,5.086534912109375,0.0006872233934700489,0.01771509274840355,0.0031306843739002943
1761132052359534800,5.096534912109375,-0.0017562375869601965,-0.00427605677396059,-0.032910365611314774
1761132052369535000,5.106534912109375,0.0012980886967852712,0.003054326167330146,0.004352414980530739
1761132052379535600,5.11653564453125,-0.0005345070967450738,-0.004886921960860491,0.01290452852845192
1761132052389535000,5.126534912109375,0.00007635815563844517,-0.00733038317412138,-0.010308351367712021
1761132052399535000,5.13653515625,0.0012980886967852712,0.03176499158143997,-0.0035888333804905415
1761132052409535000,5.146534912109375,0.0012980886967852712,-0.013439035043120384,-0.010919216088950634
1761132052419534000,5.1565341796875,-0.0005345070967450738,-0.003054326167330146,0.012293662875890732
1761132052429534200,5.1665341796875,-0.0011453722836449742,-0.00733038317412138,-0.0017562375869601965
1761132052439534000,5.1765341796875,0.0006872233934700489,0.015882495790719986,-0.0011453722836449742
1761132052449534200,5.1865341796875,0.002519819187000394,0.001832595793530345,-0.010308351367712021
1761132052459534000,5.1965341796875,-0.0011453722836449742,-0.005497787147760391,0.004352414980530739
1761132052469534200,5.2065341796875,-0.0017562375869601965,-0.00733038317412138,0.0037415495608001947
1761132052479533600,5.216533447265625,0.00007635815563844517,0.01038470957428217,-0.0005345070967450738
1761132052489533700,5.22653369140625,0.0019089538836851716,0.0006108652451075613,-0.006643159314990044
1761132052499533600,5.236533447265625,0.0012980886967852712,0.0012217304902151227,-0.0005345070967450738
1761132052509534200,5.2465341796875,-0.0017562375869601965,-0.007941247895359993,0.0037415495608001947
1761132052519534800,5.256534912109375,-0.0011453722836449742,0.00366519158706069,-0.0011453722836449742
1761132052529535000,5.266534912109375,0.0012980886967852712,0.00427605677396059,-0.004199698567390442
1761132052539535000,5.27653515625,0.002519819187000394,0.0012217304902151227,-0.0017562375869601965
1761132052549535000,5.286534912109375,-0.0011453722836449742,-0.003054326167330146,0.002519819187000394
1761132052559534800,5.296534912109375,-0.0017562375869601965,0.0012217304902151227,0.00007635815563844517
1761132052569535000,5.306534912109375,0.0019089538836851716,0.001832595793530345,-0.0005345070967450738
1761132052579535600,5.31653564453125,0.002519819187000394,0.0006108652451075613,-0.0005345070967450738
1761132052589535700,5.32653564453125,-0.0011453722836449742,-0.0024434609804302454,0.0012980886967852712
1761132052599535600,5.33653564453125,-0.0011453722836449742,0.001832595793530345,0.00007635815563844517
1761132052609535500,5.346535400390625,0.0019089538836851716,0.0024434609804302454,-0.0005345070967450738
1761132052619534800,5.356534912109375,0.00007635815563844517,-0.0006108652451075613,-0.0017562375869601965
1761132052629535000,5.366534912109375,0.00007635815563844517,0.001832595793530345,0.0037415495608001947
1761132052639534800,5.376534912109375,-0.0017562375869601965,-0.0006108652451075613,0.0012980886967852712
1761132052649534700,5.38653466796875,0.0012980886967852712,0.00366519158706069,0.00007635815563844517
1761132052659534800,5.396534912109375,0.0012980886967852712,0.0006108652451075613,0.0006872233934700489
1761132052669534700,5.40653466796875,-0.0005345070967450738,0,0.0019089538836851716
1761132052679534000,5.4165341796875,-0.0011453722836449742,0.0006108652451075613,0.002519819187000394
1761132052689534700,5.42653466796875,0.002519819187000394,0.0006108652451075613,0.002519819187000394
1761132052699534800,5.436534912109375,0.0006872233934700489,0.0006108652451075613,0.0019089538836851716
1761132052709535000,5.446534912109375,0.0006872233934700489,0,0.0019089538836851716
1761132052719535600,5.45653564453125,-0.0005345070967450738,0,0.0019089538836851716
1761132052729535700,5.46653564453125,0.00007635815563844517,0.0006108652451075613,0.0019089538836851716
1761132052739536000,5.476535888671875,0.00007635815563844517,-0.0012217304902151227,-0.0011453722836449742
1761132052749535700,5.48653564453125,0.00007635815563844517,0.0006108652451075613,0.0019089538836851716
1761132052759535600,5.49653564453125,-0.0005345070967450738,0,0.0019089538836851716
1761132052769535700,5.50653564453125,0.00007635815563844517,0.0012217304902151227,0.0019089538836851716
1761132052779536100,5.5165361328125,0.00007635815563844517,0.0006108652451075613,0.0006872233934700489
1761132052789536300,5.526536376953125,0.0012980886967852712,-0.0006108652451075613,0.0012980886967852712
1761132052799536000,5.5365361328125,-0.0011453722836449742,0.0006108652451075613,0.0037415495608001947
1761132052809536300,5.546536376953125,0.0012980886967852712,0,0.0031306843739002943
1761132052819535600,5.55653564453125,0.00007635815563844517,-0.0006108652451075613,0.0037415495608001947
1761132052829535700,5.56653564453125,-0.0005345070967450738,0.0012217304902151227,0.00618501054123044
1761132052839535600,5.57653564453125,-0.0005345070967450738,-0.0006108652451075613,0.004963280167430639
1761132052849535700,5.58653564453125,-0.0005345070967450738,-0.0012217304902151227,0.0031306843739002943
1761132052859535600,5.59653564453125,-0.0005345070967450738,-0.0024434609804302454,-0.0005345070967450738
1761132052869535700,5.60653564453125,0.0019089538836851716,0,0.0006872233934700489
1761132052879534800,5.616534912109375,-0.0005345070967450738,-0.0012217304902151227,0.0006872233934700489
1761132052889534200,5.6265341796875,0.0006872233934700489,-0.0012217304902151227,0.0012980886967852712
1761132052899533600,5.636533447265625,0.00007635815563844517,-0.0006108652451075613,0.0006872233934700489
1761132052909533700,5.64653369140625,0.00007635815563844517,-0.0006108652451075613,-0.0005345070967450738
1761132052919534600,5.65653466796875,-0.0011453722836449742,-0.0006108652451075613,-0.0017562375869601965
1761132052929534500,5.666534423828125,0.00007635815563844517,-0.0006108652451075613,-0.0029779679607599974
1761132052939534600,5.67653466796875,0.0006872233934700489,-0.0006108652451075613,-0.004199698567390442
1761132052949534500,5.686534423828125,0.0012980886967852712,-0.0006108652451075613,-0.0035888333804905415
1761132052959534300,5.696534423828125,0.00007635815563844517,-0.0012217304902151227,-0.0029779679607599974
1761132052969534500,5.706534423828125,0.00007635815563844517,0,-0.004810563754290342
1761132052979535000,5.71653515625,0.00007635815563844517,0.0006108652451075613,-0.0029779679607599974
1761132052989535200,5.72653515625,0.00007635815563844517,0.0012217304902151227,-0.0011453722836449742
1761132052999535000,5.73653515625,0.0006872233934700489,0.001832595793530345,0.0006872233934700489
1761132053009535000,5.746534912109375,0.00007635815563844517,0.0012217304902151227,0.0019089538836851716
1761132053019534300,5.756534423828125,0.0006872233934700489,0.001832595793530345,0.002519819187000394
1761132053029534200,5.7665341796875,-0.0011453722836449742,0.003054326167330146,0.004352414980530739
1761132053039534000,5.7765341796875,0.0012980886967852712,0.0024434609804302454,0.004963280167430639
1761132053049534200,5.7865341796875,-0.0005345070967450738,0.00366519158706069,0.006795875728130341
1761132053059534000,5.7965341796875,-0.0017562375869601965,0.01160643994808197,0.00862847175449133
1761132053069534200,5.8065341796875,0.008017606101930141,0.00427605677396059,0.11858421564102173
1761132053079533600,5.816533447265625,-0.004199698567390442,-0.10995574295520782,-0.09338602423667908
1761132053089533400,5.826533447265625,0.004963280167430639,0.04764748737215996,-0.06284276396036148
1761132053099533600,5.836533447265625,0.002519819187000394,0.04337143152952194,0.0697149932384491
1761132053109533400,5.846533447265625,-0.0005345070967450738,-0.033597588539123535,-0.030466904863715172
1761132053119534000,5.8565341796875,-0.0011453722836449742,0.04398229718208313,-0.0011453722836449742
1761132053129534000,5.866533935546875,-0.0005345070967450738,-0.02321287989616394,0.02756529487669468
1761132053139534000,5.8765341796875,0.00007635815563844517,-0.009162978269159794,0.01412625890225172
1761132053149534200,5.8865341796875,-0.0005345070967450738,0.016493361443281174,0.00007635815563844517
1761132053159534000,5.8965341796875,0.0012980886967852712,0.0012217304902151227,-0.013362676836550236
1761132053169534200,5.9065341796875,0.0006872233934700489,-0.00366519158706069,0.002519819187000394
1761132053179534800,5.916534912109375,0.00007635815563844517,-0.009773843921720982,-0.0005345070967450738
1761132053189535500,5.926535400390625,0.0006872233934700489,0.0024434609804302454,-0.004810563754290342
1761132053199536000,5.9365361328125,0.00007635815563844517,0.01038470957428217,-0.006643159314990044
1761132053209536000,5.946535888671875,0.0006872233934700489,-0.005497787147760391,0.0006872233934700489
1761132053219535400,5.956535400390625,-0.0017562375869601965,-0.004886921960860491,0.008017606101930141
1761132053229535500,5.966535400390625,-0.0011453722836449742,0.0024434609804302454,0.0031306843739002943
1761132053239535400,5.976535400390625,0.0037415495608001947,0.06108652427792549,0.03306308016180992
1761132053249535200,5.98653515625,-0.0017562375869601965,-0.06108652427792549,-0.032910365611314774
1761132053259535400,5.996535400390625,0.002519819187000394,0.045204028487205505,0.01595885492861271
1761132053269535500,6.006535400390625,0.0006872233934700489,-0.016493361443281174,0.012293662875890732
1761132053279534600,6.01653466796875,0.0019089538836851716,0.016493361443281174,-0.011530081741511822
1761132053289534700,6.02653466796875,0.0006872233934700489,0.006108652334660292,0.00557414535433054
1761132053299534600,6.03653466796875,-0.0011453722836449742,-0.013439035043120384,0.020234910771250725
1761132053309534700,6.04653466796875,-0.0011453722836449742,-0.00855211354792118,0.0006872233934700489
1761132053319535400,6.056535400390625,0.0006872233934700489,0.01466076634824276,-0.007254024967551231
1761132053329535500,6.066535400390625,0.0012980886967852712,-0.001832595793530345,-0.010308351367712021
1761132053339535600,6.07653564453125,-0.0011453722836449742,-0.003054326167330146,0.00557414535433054
1761132053349535500,6.086535400390625,-0.0017562375869601965,-0.012217304669320583,-0.002367102773860097
1761132053359535600,6.09653564453125,-0.0011453722836449742,0.00733038317412138,-0.0029779679607599974
1761132053369535500,6.106535400390625,0.002519819187000394,0.0006108652451075613,-0.006643159314990044
1761132053379536400,6.116536376953125,0.0012980886967852712,-0.001832595793530345,0.002519819187000394
1761132053389536300,6.126536376953125,-0.0011453722836449742,-0.00733038317412138,0.002519819187000394
1761132053399536000,6.1365361328125,-0.0005345070967450738,0.003054326167330146,-0.002367102773860097
1761132053409536300,6.146536376953125,0.0019089538836851716,0.006108652334660292,-0.0035888333804905415
1761132053419535400,6.156535400390625,0.004352414980530739,-0.0006108652451075613,0.0012980886967852712
1761132053429535500,6.166535400390625,-0.0017562375869601965,-0.001832595793530345,0.007406740915030241
1761132053439535400,6.176535400390625,-0.005421428941190243,0.02076941914856434,0.00557414535433054
1761132053449535200,6.18653515625,0.0031306843739002943,-0.0403171069920063,0.11308643221855164
1761132053459535400,6.196535400390625,-0.0035888333804905415,-0.08857546001672745,-0.10193813592195511
1761132053469535200,6.20653515625,0.006795875728130341,0.0507018156349659,-0.010308351367712021
1761132053479534600,6.21653466796875,0.0006872233934700489,0.010995574295520782,0.029397889971733093
1761132053489534700,6.22653466796875,-0.0011453722836449742,-0.00366519158706069,-0.026190847158432007
1761132053499534600,6.23653466796875,0.00007635815563844517,-0.018325956538319588,0.0190131813287735
1761132053509534700,6.24653466796875,-0.0011453722836449742,-0.005497787147760391,0.02451096847653389
1761132053519535400,6.256535400390625,0.00007635815563844517,-0.01160643994808197,-0.011530081741511822
1761132053529535500,6.266535400390625,0.0006872233934700489,0.018936822190880775,-0.013973542489111423
1761132053539535400,6.276535400390625,0.0019089538836851716,-0.00427605677396059,-0.004810563754290342
1761132053549535500,6.286535400390625,0.00007635815563844517,0,0.009239336475729942
1761132053559535400,6.296535400390625,-0.0017562375869601965,-0.007941247895359993,0.00007635815563844517
1761132053569535500,6.306535400390625,0.00007635815563844517,0.01160643994808197,0.0019089538836851716
1761132053579536100,6.3165361328125,0.0031306843739002943,-0.001832595793530345,-0.0017562375869601965
1761132053589536000,6.326535888671875,-0.0005345070967450738,-0.00366519158706069,0.006795875728130341
1761132053599536000,6.3365361328125,-0.0005345070967450738,-0.005497787147760391,0.0006872233934700489
1761132053609536000,6.346535888671875,0.00007635815563844517,0.006108652334660292,-0.0017562375869601965
1761132053619535400,6.356535400390625,0.0019089538836851716,0.00427605677396059,-0.0029779679607599974
1761132053629535200,6.36653515625,-0.0005345070967450738,-0.003054326167330146,0.002519819187000394
1761132053639535000,6.37653515625,-0.002367102773860097,-0.004886921960860491,0.004352414980530739
1761132053649535200,6.38653515625,-0.0005345070967450738,0.0024434609804302454,0.0006872233934700489
1761132053659535000,6.39653515625,0.0006872233934700489,0.003054326167330146,-0.0029779679607599974
1761132053669535200,6.40653515625,0.0006872233934700489,-0.0024434609804302454,-0.0017562375869601965
1761132053679534600,6.41653466796875,-0.0011453722836449742,-0.00366519158706069,0.002519819187000394
1761132053689534700,6.42653466796875,-0.002367102773860097,-0.0012217304902151227,0.00007635815563844517
1761132053699534600,6.43653466796875,0.0012980886967852712,0.0024434609804302454,0.00007635815563844517
1761132053709534700,6.44653466796875,0.0006872233934700489,-0.0006108652451075613,0.0012980886967852712
1761132053719535600,6.45653564453125,-0.0011453722836449742,-0.004886921960860491,-0.0011453722836449742
1761132053729535500,6.466535400390625,-0.0005345070967450738,0.0006108652451075613,-0.0005345070967450738
1761132053739535400,6.476535400390625,0.0006872233934700489,0,0.00007635815563844517
1761132053749535500,6.486535400390625,-0.0005345070967450738,-0.0012217304902151227,0.0012980886967852712
1761132053759535600,6.49653564453125,0.0006872233934700489,-0.0012217304902151227,0.004352414980530739
1761132053769535500,6.506535400390625,-0.0005345070967450738,0.0012217304902151227,0.002519819187000394
1761132053779536100,6.5165361328125,0.0012980886967852712,0.0012217304902151227,0.0019089538836851716
1761132053789536000,6.526535888671875,0.0019089538836851716,-0.0006108652451075613,0.0019089538836851716
1761132053799535900,6.536535888671875,0.0006872233934700489,0.0006108652451075613,0.0019089538836851716
1761132053809536000,6.546535888671875,0.0019089538836851716,0.0012217304902151227,0.0012980886967852712
1761132053819535000,6.55653515625,-0.0005345070967450738,0.001832595793530345,0.0006872233934700489
1761132053829535200,6.56653515625,0.0012980886967852712,0.0012217304902151227,0.0012980886967852712
1761132053839535000,6.57653515625,0.0006872233934700489,0.0024434609804302454,0.0037415495608001947
1761132053849535000,6.586534912109375,0.006795875728130341,0.10751228034496307,0.04222606122493744
1761132053859535000,6.59653515625,-0.004199698567390442,-0.09162978827953339,-0.046960264444351196
1761132053869535200,6.60653515625,-0.0005345070967450738,0.01038470957428217,-0.09399688988924026
1761132053879534300,6.616534423828125,0.0037415495608001947,0.04214970022439957,0.06910412758588791
1761132053889533700,6.62653369140625,0.0019089538836851716,-0.02871066704392433,-0.0188604649156332
1761132053899533000,6.636532958984375,-0.0017562375869601965,0.04092797264456749,0.004963280167430639
1761132053909533200,6.646533203125,0.00007635815563844517,-0.018325956538319588,0.017180584371089935
1761132053919534000,6.6565341796875,0.00007635815563844517,-0.007941247895359993,0.017180584371089935
1761132053929534000,6.666533935546875,0.0012980886967852712,-0.009162978269159794,-0.013973542489111423
1761132053939534000,6.6765341796875,0.0006872233934700489,0.018936822190880775,-0.009697485715150833
1761132053949534000,6.686533935546875,0.0012980886967852712,0.0024434609804302454,0.0037415495608001947
1761132053959534000,6.6965341796875,-0.0005345070967450738,-0.006108652334660292,0.002519819187000394
1761132053969534000,6.706533935546875,0.00007635815563844517,0.0024434609804302454,-0.0017562375869601965
1761132053979534600,6.71653466796875,0.0019089538836851716,0.005497787147760391,-0.002367102773860097
1761132053989534500,6.726534423828125,0.00007635815563844517,-0.00366519158706069,0.0012980886967852712
1761132053999534600,6.73653466796875,-0.0005345070967450738,-0.0024434609804302454,0.0031306843739002943
1761132054009534500,6.746534423828125,0.00007635815563844517,-0.0006108652451075613,-0.0017562375869601965
1761132054019533600,6.756533447265625,0.0019089538836851716,0.007941247895359993,-0.0017562375869601965
1761132054029533700,6.76653369140625,0.0006872233934700489,-0.001832595793530345,0.00007635815563844517
1761132054039533600,6.776533447265625,-0.0011453722836449742,-0.004886921960860491,0.002519819187000394
1761132054049533700,6.78653369140625,-0.0017562375869601965,-0.0006108652451075613,0.0012980886967852712
1761132054059533600,6.796533447265625,0.0006872233934700489,0.00366519158706069,-0.0005345070967450738
1761132054069533700,6.80653369140625,0.0012980886967852712,0.001832595793530345,0.00007635815563844517
1761132054079533000,6.816532958984375,-0.0017562375869601965,-0.00427605677396059,0.0019089538836851716
1761132054089533200,6.826533203125,-0.0011453722836449742,0,0.0019089538836851716
1761132054099533000,6.836532958984375,0.00007635815563844517,0.0006108652451075613,-0.002367102773860097
1761132054109533200,6.846533203125,0.0006872233934700489,0.001832595793530345,0.0019089538836851716
1761132054119534000,6.8565341796875,0.0012980886967852712,-0.0024434609804302454,0.0031306843739002943
1761132054129534000,6.866533935546875,-0.0011453722836449742,-0.0012217304902151227,0.0012980886967852712
1761132054139534000,6.8765341796875,0.0006872233934700489,0.0006108652451075613,0.0006872233934700489
1761132054149534200,6.8865341796875,0.0006872233934700489,0.0012217304902151227,0.0012980886967852712
1761132054159534000,6.8965341796875,0.0006872233934700489,-0.0024434609804302454,0.0031306843739002943
1761132054169534000,6.906533935546875,0.0012980886967852712,-0.0012217304902151227,0.0019089538836851716
1761132054179534600,6.91653466796875,0.0006872233934700489,0.0012217304902151227,0.002519819187000394
1761132054189535500,6.926535400390625,0.00007635815563844517,-0.0006108652451075613,0.00007635815563844517
1761132054199536000,6.9365361328125,0.00007635815563844517,-0.0006108652451075613,0.0006872233934700489
1761132054209536000,6.946535888671875,0.00007635815563844517,0,0.0006872233934700489
1761132054219535000,6.95653515625,-0.0005345070967450738,0.0006108652451075613,-0.0005345070967450738
1761132054229535200,6.96653515625,0.0006872233934700489,-0.0012217304902151227,-0.0005345070967450738
1761132054239535000,6.97653515625,-0.0005345070967450738,-0.0012217304902151227,-0.0011453722836449742
1761132054249535200,6.98653515625,-0.0005345070967450738,0,0.0006872233934700489
1761132054259535000,6.99653515625,0.0006872233934700489,0.00366519158706069,0.0037415495608001947
1761132054269535200,7.00653515625,-0.0017562375869601965,0.015271631069481373,0.011682798154652119
1761132054279534600,7.01653466796875,-0.0005345070967450738,-0.006108652334660292,0.01412625890225172
1761132054289534500,7.026534423828125,-0.0005345070967450738,-0.02687807008624077,-0.032299499958753586
1761132054299534600,7.03653466796875,0.002519819187000394,0.01466076634824276,0.0037415495608001947
1761132054309534500,7.046534423828125,0.0006872233934700489,-0.007941247895359993,-0.0017562375869601965
1761132054319535400,7.056535400390625,0.00007635815563844517,0.01160643994808197,-0.0005345070967450738
1761132054329535200,7.06653515625,-0.0011453722836449742,-0.005497787147760391,0.0012980886967852712
1761132054339535400,7.076535400390625,-0.0005345070967450738,-0.0024434609804302454,0.010461067780852318
1761132054349535500,7.086535400390625,0.0006872233934700489,-0.00427605677396059,0.0012980886967852712
1761132054359535400,7.096535400390625,-0.0005345070967450738,0.007941247895359993,0.00007635815563844517
1761132054369535500,7.106535400390625,0.0012980886967852712,-0.001832595793530345,-0.004810563754290342
1761132054379536100,7.1165361328125,-0.0005345070967450738,-0.0024434609804302454,-0.0035888333804905415
1761132054389536000,7.126535888671875,0.0006872233934700489,-0.003054326167330146,-0.0035888333804905415
1761132054399536000,7.1365361328125,0.00007635815563844517,0.0024434609804302454,-0.0029779679607599974
1761132054409536000,7.146535888671875,0.0006872233934700489,0.001832595793530345,0.0019089538836851716
1761132054419535000,7.15653515625,-0.0005345070967450738,0,0.008017606101930141
1761132054429535200,7.16653515625,0.00007635815563844517,0.007941247895359993,0.03978259861469269
1761132054439535000,7.17653515625,-0.0011453722836449742,-0.05253441259264946,-0.04512767121195793
1761132054449535200,7.18653515625,0.004352414980530739,0.02932153269648552,-0.004199698567390442
1761132054459535000,7.19653515625,0.0012980886967852712,-0.012217304669320583,0.004352414980530739
1761132054469535200,7.20653515625,0.00007635815563844517,0.009773843921720982,-0.009697485715150833
1761132054479534600,7.21653466796875,0.00007635815563844517,0.006719517521560192,0.0031306843739002943
1761132054489534500,7.226534423828125,0.0006872233934700489,-0.01038470957428217,0.011071932502090931
1761132054499534300,7.236534423828125,0.00007635815563844517,-0.006108652334660292,0.004352414980530739
1761132054509534500,7.246534423828125,-0.0011453722836449742,0.006719517521560192,-0.0005345070967450738
1761132054519535400,7.256535400390625,0.0006872233934700489,0.003054326167330146,-0.004810563754290342
1761132054529535200,7.26653515625,0.00007635815563844517,-0.0024434609804302454,-0.0017562375869601965
1761132054539535400,7.276535400390625,0.0006872233934700489,-0.004886921960860491,-0.002367102773860097
1761132054549535500,7.286535400390625,-0.0005345070967450738,0,-0.006643159314990044
1761132054559535400,7.296535400390625,0.0012980886967852712,0.004886921960860491,-0.0035888333804905415
1761132054569535200,7.30653515625,0.0006872233934700489,-0.00366519158706069,0.00007635815563844517
1761132054579536100,7.3165361328125,-0.0005345070967450738,0,0.006795875728130341
1761132054589536000,7.326535888671875,-0.0011453722836449742,0.00427605677396059,0.009239336475729942
1761132054599536000,7.3365361328125,0.0037415495608001947,0.06169738993048668,0.037339139729738235
1761132054609536000,7.346535888671875,-0.0029779679607599974,-0.06536258012056351,-0.0316886343061924
1761132054619535000,7.35653515625,0.00007635815563844517,0.00366519158706069,-0.05490151420235634
1761132054629535200,7.36653515625,0.002519819187000394,0.028099801391363144,0.031230485066771507
1761132054639535000,7.37653515625,0.0006872233934700489,-0.015882495790719986,-0.017638733610510826
1761132054649535200,7.38653515625,-0.0005345070967450738,0,0.0019089538836851716
1761132054659535000,7.39653515625,0.0006872233934700489,-0.00733038317412138,0.022678371518850327
1761132054669535200,7.40653515625,0.00007635815563844517,-0.00733038317412138,0.006795875728130341
1761132054679534600,7.41653466796875,0.00007635815563844517,0.019547687843441963,0.0037415495608001947
1761132054689534700,7.42653466796875,0.0012980886967852712,-0.007941247895359993,-0.010308351367712021
1761132054699534600,7.43653466796875,0.0019089538836851716,-0.005497787147760391,-0.004199698567390442
1761132054709534700,7.44653466796875,-0.0011453722836449742,-0.012217304669320583,-0.009086620062589645
1761132054719535600,7.45653564453125,0.0012980886967852712,0.007941247895359993,-0.006032294128090143
1761132054729535500,7.466535400390625,0.0019089538836851716,0.001832595793530345,-0.007864889688789845
1761132054739535600,7.47653564453125,0.00007635815563844517,-0.0012217304902151227,0.00618501054123044
1761132054749535500,7.486535400390625,-0.0011453722836449742,0.0006108652451075613,0.015347989276051521
1761132054759535600,7.49653564453125,0.0006872233934700489,0.029932396486401558,0.023900102823972702
1761132054769535500,7.506535400390625,0.00007635815563844517,-0.010995574295520782,0.010461067780852318
1761132054779536100,7.5165361328125,0.0006872233934700489,-0.02932153269648552,-0.03962988406419754
1761132054789536300,7.526536376953125,0.0012980886967852712,0.01160643994808197,0.004352414980530739
1761132054799536000,7.5365361328125,0.00007635815563844517,-0.007941247895359993,-0.012140946462750435
1761132054809536300,7.546536376953125,0.0006872233934700489,0.01710422709584236,-0.004199698567390442
1761132054819535400,7.556535400390625,0.0012980886967852712,-0.00427605677396059,0.0031306843739002943
1761132054829535200,7.56653515625,-0.0005345070967450738,-0.006719517521560192,0.01412625890225172
1761132054839535400,7.576535400390625,-0.0011453722836449742,-0.00427605677396059,0.0012980886967852712
1761132054849535200,7.58653515625,0.0006872233934700489,0.010995574295520782,-0.002367102773860097
1761132054859535400,7.596535400390625,0.002519819187000394,0.0006108652451075613,-0.0017562375869601965
1761132054869535200,7.60653515625,0.0012980886967852712,-0.003054326167330146,0.00007635815563844517
1761132054879534600,7.61653466796875,-0.0011453722836449742,-0.004886921960860491,-0.0035888333804905415
1761132054889534000,7.626533935546875,0.00007635815563844517,0.00366519158706069,-0.007864889688789845
1761132054899533300,7.636533203125,0.0012980886967852712,-0.001832595793530345,-0.0029779679607599974
1761132054909533200,7.646533203125,0.00007635815563844517,-0.001832595793530345,0.0019089538836851716
1761132054919534000,7.6565341796875,-0.0017562375869601965,-0.0006108652451075613,-0.0017562375869601965
1761132054929534000,7.666533935546875,0.00007635815563844517,0.006108652334660292,-0.0017562375869601965
1761132054939534000,7.6765341796875,0.0006872233934700489,0.0006108652451075613,0.0019089538836851716
1761132054949534200,7.6865341796875,-0.0005345070967450738,-0.0012217304902151227,0.004963280167430639
1761132054959534000,7.6965341796875,-0.0017562375869601965,0.05864306539297104,0.012293662875890732
1761132054969534200,7.7065341796875,-0.0029779679607599974,-0.05253441259264946,0.0214566420763731
1761132054979534600,7.71653466796875,-0.0005345070967450738,-0.02871066704392433,-0.08849909901618958
1761132054989534700,7.72653466796875,0.004352414980530739,0.0403171069920063,0.031230485066771507
1761132054999534600,7.73653466796875,0.00007635815563844517,-0.024434609338641167,-0.009086620062589645
1761132055009534700,7.74653466796875,-0.0017562375869601965,0.02626720629632473,-0.0017562375869601965
1761132055019533800,7.756533935546875,-0.0017562375869601965,-0.010995574295520782,0.0012980886967852712
1761132055029533700,7.76653369140625,0.0012980886967852712,-0.0006108652451075613,0.023900102823972702
1761132055039533800,7.776533935546875,0.0006872233934700489,-0.012217304669320583,0.0006872233934700489
1761132055049533700,7.78653369140625,-0.0005345070967450738,0.02076941914856434,0.0012980886967852712
1761132055059533800,7.796533935546875,-0.0005345070967450738,-0.006719517521560192,-0.004810563754290342
1761132055069533700,7.80653369140625,0.0006872233934700489,0.0006108652451075613,0.002519819187000394
1761132055079533300,7.816533203125,-0.0011453722836449742,-0.009773843921720982,-0.0011453722836449742
1761132055089533200,7.826533203125,0.0006872233934700489,0.00855211354792118,-0.0011453722836449742
1761132055099533300,7.836533203125,0.0019089538836851716,0.0012217304902151227,0.00007635815563844517
1761132055109533200,7.846533203125,-0.0005345070967450738,-0.00427605677396059,0.0031306843739002943
1761132055119534000,7.8565341796875,-0.0011453722836449742,-0.0024434609804302454,0.00007635815563844517
1761132055129534200,7.8665341796875,0.0006872233934700489,0.005497787147760391,-0.002367102773860097
1761132055139534000,7.8765341796875,0.00007635815563844517,-0.0024434609804302454,-0.0017562375869601965
1761132055149534200,7.8865341796875,-0.0017562375869601965,-0.005497787147760391,0.0006872233934700489
1761132055159534300,7.896534423828125,-0.0011453722836449742,-0.003054326167330146,0.0012980886967852712
1761132055169534200,7.9065341796875,0.0012980886967852712,0.00366519158706069,-0.002367102773860097
1761132055179534800,7.916534912109375,0.00007635815563844517,0.0012217304902151227,-0.0011453722836449742
1761132055189535500,7.926535400390625,-0.0005345070967450738,-0.0024434609804302454,0.0012980886967852712
1761132055199536000,7.9365361328125,-0.0011453722836449742,-0.0012217304902151227,0.0031306843739002943
1761132055209536300,7.946536376953125,0.0012980886967852712,0.001832595793530345,-0.0011453722836449742
1761132055219535400,7.956535400390625,0.0012980886967852712,0.0024434609804302454,0.00007635815563844517
1761132055229535500,7.966535400390625,-0.0005345070967450738,-0.0012217304902151227,-0.0005345070967450738
1761132055239535400,7.976535400390625,-0.0011453722836449742,-0.0012217304902151227,-0.0017562375869601965
1761132055249535200,7.98653515625,0.0006872233934700489,0,-0.002367102773860097
1761132055259535400,7.996535400390625,0.0012980886967852712,0.0024434609804302454,0.0006872233934700489
1761132055269535500,8.006535400390625,0.0006872233934700489,0.0006108652451075613,0.00007635815563844517
1761132055279534600,8.01653466796875,0.00007635815563844517,-0.001832595793530345,-0.0005345070967450738
1761132055289534700,8.02653466796875,-0.0005345070967450738,0.0012217304902151227,-0.0011453722836449742
1761132055299534600,8.03653466796875,-0.0005345070967450738,0.0006108652451075613,-0.0017562375869601965
1761132055309534700,8.04653466796875,-0.0011453722836449742,0.007941247895359993,0.0019089538836851716
1761132055319535600,8.05653564453125,0.0031306843739002943,0.003054326167330146,0.09048441797494888
1761132055329535500,8.066535400390626,-0.006032294128090143,-0.07819075137376785,-0.0671188160777092
1761132055339535600,8.07653564453125,0.0037415495608001947,0.03298672288656235,-0.026190847158432007
1761132055349535500,8.086535400390625,0.0012980886967852712,-0.025045474991202354,-0.010919216088950634
1761132055359535600,8.09653564453125,-0.002367102773860097,0.02932153269648552,0.004352414980530739
1761132055369535500,8.106535400390625,-0.0029779679607599974,-0.014049900695681572,0.00557414535433054
1761132055379536000,8.116535888671875,-0.0005345070967450738,-0.0012217304902151227,0.020234910771250725
1761132055389536000,8.126535888671874,0.0012980886967852712,-0.015882495790719986,-0.009697485715150833
1761132055399536000,8.1365361328125,0.0006872233934700489,0.018325956538319588,-0.006643159314990044
1761132055409536000,8.146535888671876,0.00007635815563844517,-0.00366519158706069,-0.0035888333804905415
1761132055419535000,8.15653515625,0.00007635815563844517,0.001832595793530345,0.0031306843739002943
1761132055429535200,8.16653515625,-0.0005345070967450738,-0.004886921960860491,0.00007635815563844517
1761132055439535000,8.17653515625,0.00007635815563844517,0.006719517521560192,-0.0017562375869601965
1761132055449535000,8.186534912109375,0.00007635815563844517,0.0012217304902151227,0.0012980886967852712
1761132055459535000,8.19653515625,-0.0011453722836449742,-0.00366519158706069,0.0019089538836851716
1761132055469535200,8.20653515625,-0.0011453722836449742,-0.0006108652451075613,0.0012980886967852712
1761132055479534800,8.216534912109376,0.0012980886967852712,0.00366519158706069,-0.0005345070967450738
1761132055489534700,8.22653466796875,0.002519819187000394,0.00427605677396059,0.0012980886967852712
1761132055499534800,8.236534912109375,-0.0011453722836449742,-0.005497787147760391,0.0012980886967852712
1761132055509535000,8.246534912109375,-0.002367102773860097,-0.001832595793530345,0.0006872233934700489
1761132055519535600,8.25653564453125,-0.0011453722836449742,0.001832595793530345,0.00007635815563844517
1761132055529535700,8.26653564453125,0.0006872233934700489,0.003054326167330146,-0.0011453722836449742
1761132055539535600,8.27653564453125,0.0019089538836851716,-0.0006108652451075613,0.00007635815563844517
1761132055549535700,8.28653564453125,-0.0011453722836449742,-0.001832595793530345,0.0019089538836851716
1761132055559535600,8.29653564453125,-0.0005345070967450738,0,-0.0011453722836449742
1761132055569535700,8.30653564453125,0.0006872233934700489,0.0024434609804302454,-0.0011453722836449742
1761132055579536400,8.316536376953126,0.00007635815563844517,-0.0024434609804302454,0.0012980886967852712
1761132055589536500,8.32653662109375,-0.0005345070967450738,0.0006108652451075613,-0.0005345070967450738
1761132055599536400,8.336536376953125,0.0006872233934700489,0,-0.0011453722836449742
1761132055609536300,8.346536376953125,0.0006872233934700489,0.0012217304902151227,0.0012980886967852712
1761132055619535600,8.35653564453125,0.0006872233934700489,-0.0006108652451075613,0.002519819187000394
1761132055629535500,8.366535400390624,0.00007635815563844517,0,0.00007635815563844517
1761132055639535400,8.376535400390624,0.00007635815563844517,0.0012217304902151227,0.00007635815563844517
1761132055649535500,8.386535400390626,-0.0005345070967450738,0.0006108652451075613,0.00007635815563844517
1761132055659535400,8.396535400390626,0.0012980886967852712,-0.0006108652451075613,0.00007635815563844517
1761132055669535500,8.406535400390625,0.00007635815563844517,-0.0012217304902151227,-0.0017562375869601965
1761132055679534800,8.416534912109375,0.0006872233934700489,-0.0012217304902151227,-0.0035888333804905415
1761132055689534700,8.42653466796875,0.0006872233934700489,-0.0006108652451075613,-0.004810563754290342
1761132055699534800,8.436534912109375,-0.0005345070967450738,-0.0006108652451075613,-0.0011453722836449742
1761132055709534700,8.44653466796875,0.0006872233934700489,0,-0.0017562375869601965
1761132055719535600,8.45653564453125,0.00007635815563844517,0.0006108652451075613,-0.0017562375869601965
1761132055729535500,8.466535400390624,0.00007635815563844517,0.0024434609804302454,-0.0011453722836449742
1761132055739535400,8.476535400390626,0.00007635815563844517,0,0.00007635815563844517
1761132055749535200,8.48653515625,0.00007635815563844517,0.001832595793530345,0.0037415495608001947
1761132055759535400,8.496535400390625,0.00007635815563844517,0.0024434609804302454,0.004963280167430639
1761132055769535200,8.50653515625,-0.0005345070967450738,0.019547687843441963,0.015347989276051521
1761132055779535600,8.51653564453125,0.00007635815563844517,-0.006108652334660292,0.01290452852845192
1761132055789535500,8.526535400390625,-0.0011453722836449742,-0.02871066704392433,-0.04024074971675873
1761132055799535600,8.53653564453125,0.0012980886967852712,0.014049900695681572,-0.004199698567390442
1761132055809535500,8.546535400390624,0.0006872233934700489,0,-0.0029779679607599974
1761132055819534600,8.55653466796875,0.00007635815563844517,0.006108652334660292,0.0019089538836851716
1761132055829534700,8.56653466796875,-0.0005345070967450738,-0.00427605677396059,0.00618501054123044
1761132055839534600,8.57653466796875,0.00007635815563844517,-0.00366519158706069,0.00618501054123044
1761132055849534700,8.58653466796875,0.0006872233934700489,0.004886921960860491,0.002519819187000394
1761132055859534600,8.59653466796875,0.0006872233934700489,0.003054326167330146,-0.0011453722836449742
1761132055869534700,8.60653466796875,0.00007635815563844517,-0.00366519158706069,-0.0017562375869601965
1761132055879533800,8.616533935546874,-0.0005345070967450738,-0.003054326167330146,-0.0011453722836449742
1761132055889533200,8.626533203125,0.0006872233934700489,0,-0.0035888333804905415
1761132055899532500,8.636532470703125,0.00007635815563844517,0.0024434609804302454,-0.0035888333804905415
1761132055909532200,8.6465322265625,0.00007635815563844517,-0.0024434609804302454,-0.0005345070967450738
1761132055919532300,8.6565322265625,-0.0011453722836449742,-0.003054326167330146,0.0006872233934700489
1761132055929532200,8.6665322265625,0.00007635815563844517,-0.0006108652451075613,0.00007635815563844517
1761132055939532300,8.6765322265625,-0.0017562375869601965,0.001832595793530345,-0.0017562375869601965
1761132055949532200,8.6865322265625,0.0006872233934700489,-0.001832595793530345,0.00007635815563844517
1761132055959532300,8.6965322265625,0.00007635815563844517,-0.0012217304902151227,0.0037415495608001947
1761132055969532200,8.7065322265625,0.00007635815563844517,0.0012217304902151227,0.002519819187000394
1761132055979532800,8.71653271484375,0.0006872233934700489,0.00427605677396059,0.0012980886967852712
1761132055989533000,8.726532958984375,-0.0005345070967450738,0.0024434609804302454,0.004963280167430639
1761132055999532800,8.73653271484375,0.00007635815563844517,0.0006108652451075613,0.00557414535433054
1761132056009533000,8.746532958984375,0.0031306843739002943,0.036651913076639175,0.041004329919815063
1761132056019532000,8.756531982421874,-0.0017562375869601965,-0.0555887371301651,-0.04512767121195793
1761132056029532200,8.7665322265625,0.002519819187000394,0.016493361443281174,-0.038408152759075165
1761132056039532300,8.7765322265625,0.0012980886967852712,-0.015882495790719986,0.0006872233934700489
1761132056049532400,8.786532470703126,-0.0011453722836449742,0.013439035043120384,0.0037415495608001947
1761132056059532300,8.7965322265625,-0.0011453722836449742,-0.0012217304902151227,0.004352414980530739
1761132056069532400,8.806532470703125,0.0012980886967852712,-0.00366519158706069,0.015347989276051521
1761132056079531500,8.816531494140625,0.00007635815563844517,-0.006108652334660292,0.002519819187000394
1761132056089531600,8.82653173828125,-0.0005345070967450738,0.012217304669320583,0.00007635815563844517
1761132056099531500,8.836531494140624,0.0019089538836851716,-0.004886921960860491,-0.007254024967551231
1761132056109531600,8.84653173828125,0.00007635815563844517,-0.0024434609804302454,-0.0035888333804905415
1761132056119532500,8.856532470703126,0.0012980886967852712,-0.005497787147760391,-0.002367102773860097
1761132056129532400,8.866532470703126,-0.0011453722836449742,0.00427605677396059,-0.004810563754290342
1761132056139532500,8.876532470703125,-0.0005345070967450738,0.001832595793530345,-0.0029779679607599974
1761132056149532700,8.88653271484375,-0.002367102773860097,-0.00427605677396059,0.004963280167430639
1761132056159532500,8.896532470703125,-0.0005345070967450738,0.030543262138962746,0.031841352581977844
1761132056169532700,8.90653271484375,-0.0005345070967450738,-0.019547687843441963,0.012293662875890732
1761132056179533300,8.916533203125,-0.0011453722836449742,-0.024434609338641167,-0.04940372705459595
1761132056189534000,8.926533935546875,0.0031306843739002943,0.02015855349600315,0.009239336475729942
1761132056199534600,8.93653466796875,-0.0005345070967450738,-0.013439035043120384,-0.006643159314990044
1761132056209535200,8.94653515625,-0.0005345070967450738,0.014049900695681572,0.0006872233934700489
1761132056219535000,8.95653515625,-0.0005345070967450738,-0.001832595793530345,-0.0011453722836449742
1761132056229535000,8.966534912109376,0.00007635815563844517,-0.0012217304902151227,0.009239336475729942
1761132056239535000,8.97653515625,0.00007635815563844517,-0.005497787147760391,0.004352414980530739
1761132056249535000,8.986534912109375,-0.0011453722836449742,0.01160643994808197,0.0031306843739002943
1761132056259535000,8.99653515625,0.0006872233934700489,-0.0012217304902151227,-0.002367102773860097
1761132056269535200,9.00653515625,0.0006872233934700489,-0.005497787147760391,0.0006872233934700489
1761132056279534300,9.016534423828125,-0.0017562375869601965,-0.0012217304902151227,-0.004199698567390442
1761132056289534500,9.026534423828124,-0.0011453722836449742,0.00427605677396059,-0.004199698567390442
1761132056299534300,9.036534423828124,0.0006872233934700489,-0.001832595793530345,-0.0029779679607599974
1761132056309534500,9.046534423828126,0.0012980886967852712,-0.001832595793530345,-0.0005345070967450738
1761132056319535400,9.056535400390626,-0.0005345070967450738,-0.0024434609804302454,-0.002367102773860097
1761132056329535200,9.06653515625,0.0006872233934700489,0.00427605677396059,-0.0005345070967450738
1761132056339535400,9.076535400390625,0.00007635815563844517,-0.0006108652451075613,0.0006872233934700489
1761132056349535200,9.08653515625,0.0006872233934700489,-0.0024434609804302454,0.0019089538836851716
1761132056359535400,9.096535400390625,0.00007635815563844517,0.0006108652451075613,0.0037415495608001947
1761132056369535200,9.10653515625,0.00007635815563844517,0.02382374368607998,0.020845776423811913
1761132056379536000,9.116535888671875,-0.0017562375869601965,-0.005497787147760391,0.028176158666610718
1761132056389536000,9.126535888671874,-0.0017562375869601965,-0.03848451003432274,-0.047571130096912384
1761132056399536000,9.1365361328125,0.0031306843739002943,0.02015855349600315,-0.0035888333804905415
1761132056409536000,9.146535888671876,0.0012980886967852712,-0.00366519158706069,-0.004810563754290342
1761132056419535000,9.15653515625,-0.0005345070967450738,0.00855211354792118,-0.0029779679607599974
1761132056429535200,9.16653515625,0.00007635815563844517,-0.001832595793530345,0.002519819187000394
1761132056439535000,9.17653515625,0.0012980886967852712,-0.0024434609804302454,0.009239336475729942
1761132056449535200,9.18653515625,0.0012980886967852712,-0.00366519158706069,0.004963280167430639
1761132056459535000,9.19653515625,0.0012980886967852712,0.010995574295520782,0.0031306843739002943
1761132056469535200,9.20653515625,0.0006872233934700489,-0.003054326167330146,-0.0011453722836449742
1761132056479534300,9.216534423828126,0.0006872233934700489,-0.0012217304902151227,0.0019089538836851716
1761132056489534500,9.226534423828125,-0.0005345070967450738,-0.00427605677396059,0.00007635815563844517
1761132056499534300,9.236534423828125,0.0012980886967852712,0.00366519158706069,-0.0035888333804905415
1761132056509534500,9.246534423828125,0.0006872233934700489,-0.0024434609804302454,-0.0017562375869601965
1761132056519535400,9.256535400390625,-0.0005345070967450738,-0.00366519158706069,0.0006872233934700489
1761132056529535200,9.26653515625,0.00007635815563844517,-0.0012217304902151227,-0.0011453722836449742
1761132056539535600,9.27653564453125,-0.0005345070967450738,0.00366519158706069,-0.0011453722836449742
1761132056549535700,9.28653564453125,0.0019089538836851716,-0.001832595793530345,0.0006872233934700489
1761132056559535600,9.29653564453125,-0.0005345070967450738,-0.00366519158706069,0.0006872233934700489
1761132056569535700,9.30653564453125,-0.0005345070967450738,-0.0006108652451075613,-0.0005345070967450738
1761132056579536600,9.31653662109375,0.0012980886967852712,0.0024434609804302454,0.0006872233934700489
1761132056589536800,9.326536865234376,0.002519819187000394,0,0.00007635815563844517
1761132056599536600,9.33653662109375,-0.0005345070967450738,-0.0012217304902151227,0.002519819187000394
1761132056609536800,9.346536865234375,-0.0005345070967450738,0,0.002519819187000394
1761132056619536000,9.356535888671875,0.0006872233934700489,0.0012217304902151227,-0.0017562375869601965
1761132056629535700,9.36653564453125,-0.0005345070967450738,0,-0.0011453722836449742
1761132056639535900,9.376535888671874,0.00007635815563844517,-0.001832595793530345,0.0006872233934700489
1761132056649535700,9.38653564453125,-0.0005345070967450738,-0.0012217304902151227,-0.0005345070967450738
1761132056659536000,9.396535888671876,0.0006872233934700489,-0.0006108652451075613,-0.0005345070967450738
1761132056669535700,9.40653564453125,0.0012980886967852712,0,-0.0011453722836449742
1761132056679535000,9.41653515625,-0.0005345070967450738,-0.0024434609804302454,0.0012980886967852712
1761132056689535200,9.42653515625,-0.0005345070967450738,-0.0006108652451075613,-0.0005345070967450738
1761132056699535000,9.43653515625,-0.0005345070967450738,0.0006108652451075613,-0.0005345070967450738
1761132056709535200,9.44653515625,0.0012980886967852712,0.0006108652451075613,0.00007635815563844517
1761132056719535900,9.456535888671874,0.0012980886967852712,0,0.0019089538836851716
1761132056729536000,9.466535888671874,0.0006872233934700489,0.0006108652451075613,0.0012980886967852712
1761132056739536000,9.476535888671876,0.00007635815563844517,0,-0.0005345070967450738
1761132056749536000,9.486535888671876,0.00007635815563844517,0.0006108652451075613,0.0012980886967852712
1761132056759536000,9.4965361328125,0.00007635815563844517,-0.0012217304902151227,0.0006872233934700489
1761132056769536000,9.506535888671875,-0.0005345070967450738,-0.0006108652451075613,-0.0005345070967450738
1761132056779536600,9.51653662109375,0.00007635815563844517,0,0.0006872233934700489
1761132056789536800,9.526536865234375,0.0006872233934700489,0,0.00007635815563844517
1761132056799536600,9.53653662109375,-0.0005345070967450738,-0.0006108652451075613,-0.0005345070967450738
1761132056809536800,9.546536865234375,-0.0005345070967450738,0,-0.0011453722836449742
1761132056819536000,9.556535888671876,-0.0005345070967450738,0.0006108652451075613,0.00007635815563844517
1761132056829535700,9.56653564453125,0.0012980886967852712,0.0006108652451075613,0.00007635815563844517
1761132056839535400,9.576535400390625,-0.0005345070967450738,-0.001832595793530345,0.0006872233934700489
1761132056849535200,9.58653515625,-0.0011453722836449742,0.0006108652451075613,0.0012980886967852712
1761132056859535400,9.596535400390625,0.0012980886967852712,0,0.00007635815563844517
1761132056869535500,9.606535400390625,0.0006872233934700489,0.0006108652451075613,0.00007635815563844517
1761132056879534300,9.616534423828124,-0.0005345070967450738,0,0.00007635815563844517
1761132056889533700,9.62653369140625,0.0012980886967852712,-0.0006108652451075613,-0.0005345070967450738
1761132056899533800,9.636533935546876,-0.0005345070967450738,0,0.00007635815563844517
1761132056909533700,9.64653369140625,0.0012980886967852712,0,0.00007635815563844517
1761132056919534600,9.65653466796875,0.00007635815563844517,-0.0012217304902151227,-0.0011453722836449742
1761132056929534500,9.666534423828125,-0.0005345070967450738,-0.0012217304902151227,0.0006872233934700489
1761132056939534600,9.67653466796875,0.0006872233934700489,0,-0.0005345070967450738
1761132056949534700,9.68653466796875,0.0006872233934700489,0.0012217304902151227,-0.0005345070967450738
1761132056959534600,9.69653466796875,0.00007635815563844517,0,0.0006872233934700489
1761132056969534700,9.70653466796875,-0.0005345070967450738,-0.0006108652451075613,-0.0005345070967450738
1761132056979535400,9.716535400390624,0.0006872233934700489,0.001832595793530345,0.0012980886967852712
1761132056989535200,9.72653515625,0.0006872233934700489,0.0012217304902151227,-0.0005345070967450738
1761132056999535400,9.736535400390625,0.0006872233934700489,-0.0006108652451075613,-0.0005345070967450738
1761132057009535200,9.74653515625,0.0006872233934700489,-0.0012217304902151227,-0.0005345070967450738
1761132057019534300,9.756534423828125,-0.0011453722836449742,0,0.0006872233934700489
1761132057029534500,9.766534423828125,0.0006872233934700489,0,0.00007635815563844517
1761132057039534300,9.776534423828124,0.0006872233934700489,-0.0006108652451075613,0.00007635815563844517
1761132057049534500,9.786534423828124,0.00007635815563844517,-0.0012217304902151227,0.0006872233934700489
1761132057059534300,9.796534423828126,-0.0011453722836449742,-0.0006108652451075613,0.00007635815563844517
1761132057069534500,9.806534423828126,0.0012980886967852712,0,-0.0005345070967450738
1761132057079533800,9.816533935546875,-0.0005345070967450738,-0.0012217304902151227,-0.0005345070967450738
1761132057089533700,9.82653369140625,0.0012980886967852712,0,0.00007635815563844517
1761132057099533600,9.836533447265625,0.0006872233934700489,0,0.0006872233934700489
1761132057109533700,9.84653369140625,0.00007635815563844517,-0.0006108652451075613,-0.0005345070967450738
1761132057119534600,9.85653466796875,-0.0011453722836449742,0,0.00007635815563844517
1761132057129534500,9.866534423828124,-0.0005345070967450738,-0.0006108652451075613,-0.0005345070967450738
1761132057139534600,9.87653466796875,-0.0005345070967450738,0.0012217304902151227,-0.0005345070967450738
1761132057149534700,9.88653466796875,0.00007635815563844517,-0.0024434609804302454,0.0006872233934700489
1761132057159534600,9.89653466796875,-0.0005345070967450738,0,0.00007635815563844517
1761132057169534500,9.906534423828125,0.00007635815563844517,0,-0.0005345070967450738
1761132057179535000,9.91653515625,0.0012980886967852712,0,0.0006872233934700489
1761132057189536000,9.926535888671875,0.00007635815563844517,0.0006108652451075613,-0.0005345070967450738
1761132057199535900,9.936535888671875,0.00007635815563844517,0,0.00007635815563844517
1761132057209535700,9.94653564453125,-0.0005345070967450738,-0.0006108652451075613,0.0006872233934700489
1761132057219535000,9.95653515625,0.00007635815563844517,0.0006108652451075613,0.0006872233934700489
1761132057229535000,9.966534912109376,-0.0005345070967450738,0,-0.0005345070967450738
1761132057239535000,9.97653515625,0.00007635815563844517,0.0006108652451075613,0.00007635815563844517
1761132057249535000,9.986534912109375,0.0012980886967852712,0,-0.0005345070967450738
1761132057259535000,9.99653515625,-0.0005345070967450738,0,-0.0005345070967450738
1761132057269535000,10.006534912109375,0.0006872233934700489,-0.0006108652451075613,0.00007635815563844517
1761132057279534800,10.016534912109375,0.00007635815563844517,0.0012217304902151227,0.0006872233934700489
1761132057289535000,10.026534912109375,-0.0005345070967450738,0.07147123664617538,0.04283692687749863
1761132057299534800,10.036534912109374,-0.0017562375869601965,0.1466076523065567,0.06543894112110138
1761132057309535000,10.046534912109376,0.0006872233934700489,-0.051312681287527084,-0.021303925663232803
1761132057319535900,10.056535888671876,0.0019089538836851716,-0.08491026610136032,-0.03901901841163635
1761132057329535700,10.06653564453125,0.00007635815563844517,-0.08491026610136032,-0.03352123126387596
1761132057339536000,10.076535888671875,0.00007635815563844517,0.018325956538319588,0.0031306843739002943
