time,seconds_elapsed,z,y,x
1761132655891698400,0.091698486328125,-0.12041378021240234,0.13773560523986816,-0.1544395387172699
1761132655911697400,0.111697509765625,-0.055603981018066406,0.11527729034423828,-0.1771772801876068
1761132655921697800,0.12169775390625,0.12525653839111328,0.19751548767089844,-0.1549626588821411
1761132655931698200,0.1316982421875,0.26064491271972656,0.15045559406280518,-0.10399779677391052
1761132655941698300,0.1416982421875,0.24194717407226562,0.057562947273254395,-0.0941372811794281
1761132655951698200,0.1516982421875,0.12298297882080078,0.051334381103515625,-0.18086645007133484
1761132655961698300,0.1616982421875,-0.03876209259033203,0.09547579288482666,-0.29271095991134644
1761132655971694600,0.171694580078125,-0.09255313873291016,0.13074862957000732,-0.30837482213974
1761132655981694700,0.18169482421875,-0.07452583312988281,0.2158060073852539,-0.18653208017349243
1761132655991694600,0.191694580078125,0.012708663940429688,0.22461724281311035,-0.039608538150787354
1761132656001694700,0.20169482421875,0.03268718719482422,0.19065988063812256,0.09183210134506226
1761132656011694600,0.211694580078125,-0.033550262451171875,0.12560021877288818,0.13658300042152405
1761132656021694700,0.22169482421875,-0.09484386444091797,0.13476192951202393,0.07634809613227844
1761132656031694600,0.231694580078125,-0.10811138153076172,0.2018951177597046,-0.030627310276031494
1761132656041694700,0.24169482421875,-0.08792686462402344,0.2200988531112671,-0.08113175630569458
1761132656051694600,0.251694580078125,-0.11580944061279297,0.2108597755432129,-0.0486375093460083
1761132656061694700,0.26169482421875,-0.1199178695678711,0.16407907009124756,0.02301865816116333
1761132656071694600,0.271694580078125,-0.009237289428710938,0.21567857265472412,-0.01500558853149414
1761132656081694700,0.28169482421875,0.12526512145996094,0.2721179723739624,-0.00240480899810791
1761132656091694600,0.291694580078125,0.22127628326416016,0.18262112140655518,0.04308116436004639
1761132656101694700,0.30169482421875,0.19997215270996094,0.08556997776031494,0.06621015071868896
1761132656111694600,0.311694580078125,0.10234737396240234,0.07578015327453613,0.05827075242996216
1761132656121694700,0.32169482421875,-0.04985618591308594,0.14675283432006836,-0.03349804878234863
1761132656131694600,0.331694580078125,-0.12040042877197266,0.18551385402679443,-0.0273745059967041
1761132656141694700,0.34169482421875,-0.004263877868652344,0.25098490715026855,0.0667770504951477
1761132656151694600,0.351694580078125,0.07571887969970703,0.20253980159759521,0.12990617752075195
1761132656161694700,0.36169482421875,0.09818077087402344,0.1114722490310669,0.12348008155822754
1761132656171693600,0.371693603515625,0.037062644958496094,0.07486069202423096,0.04998278617858887
1761132656181693700,0.381693603515625,0.03840160369873047,0.06622207164764404,0.05497384071350098
1761132656191693600,0.391693603515625,-0.07989501953125,0.18154394626617432,-0.2800471782684326
1761132656201693700,0.401693603515625,0.0027618408203125,0.1583043336868286,-0.21032363176345825
1761132656211693600,0.411693603515625,0.056357383728027344,0.08096516132354736,-0.015012204647064209
1761132656221693700,0.421693603515625,0.047534942626953125,0.06423544883728027,0.08555632829666138
1761132656231693600,0.431693603515625,0.012521743774414062,0.10232698917388916,0.04907798767089844
1761132656241693700,0.441693603515625,-0.09897708892822266,0.1639167070388794,-0.055640339851379395
1761132656251693600,0.451693603515625,-0.18166732788085938,0.18449175357818604,-0.08324319124221802
1761132656261693700,0.461693603515625,-0.216552734375,0.1819756031036377,-0.08890068531036377
1761132656271694300,0.4716943359375,-0.19661998748779297,0.16234827041625977,-0.09677886962890625
1761132656281694500,0.481694580078125,-0.04773521423339844,0.15469658374786377,-0.0069310665130615234
1761132656291694300,0.4916943359375,0.06737041473388672,0.17036128044128418,0.046452879905700684
1761132656301694500,0.501694580078125,0.11058330535888672,0.1336308717727661,0.0634070634841919
1761132656311694300,0.5116943359375,0.029494285583496094,0.12407982349395752,0.046736717224121094
1761132656321694500,0.521694580078125,-0.04173851013183594,0.11691224575042725,-0.02556920051574707
1761132656331694600,0.531694580078125,-0.14631938934326172,0.1556549072265625,-0.05869871377944946
1761132656341694500,0.541694580078125,-0.246124267578125,0.1365140676498413,-0.038029491901397705
1761132656351694600,0.551694580078125,-0.23351097106933594,0.12569844722747803,0.05033785104751587
1761132656361694500,0.561694580078125,-0.12788009643554688,0.1614304780960083,0.12835466861724854
1761132656371693600,0.571693603515625,-0.010496139526367188,0.1679297685623169,0.11122223734855652
1761132656381693700,0.581693603515625,0.03500175476074219,0.13208889961242676,0.10432460904121399
1761132656391693600,0.591693603515625,0.025449752807617188,0.08628344535827637,0.0657353401184082
1761132656401693700,0.601693603515625,0.042288780212402344,0.0902254581451416,-0.04256117343902588
1761132656411693600,0.611693603515625,0.09499645233154297,0.0706629753112793,-0.1362515091896057
1761132656421693700,0.621693603515625,0.13329029083251953,0.03496551513671875,-0.14317822456359863
1761132656431693600,0.631693603515625,0.13093185424804688,0.047374606132507324,-0.1463620662689209
1761132656441693700,0.641693603515625,0.16702651977539062,0.08275806903839111,-0.12771058082580566
1761132656451693600,0.651693603515625,0.1624765396118164,0.10273241996765137,-0.03623253107070923
1761132656461693700,0.661693603515625,0.12698650360107422,0.09231925010681152,0.059388041496276855
1761132656471694600,0.671694580078125,0.024707794189453125,0.09454846382141113,0.07869738340377808
1761132656481694500,0.681694580078125,-0.0964803695678711,0.13377165794372559,0.04163312911987305
1761132656491694600,0.691694580078125,-0.09536457061767578,0.1264859437942505,0.0438685417175293
1761132656501694500,0.701694580078125,-0.22349262237548828,0.15265333652496338,-0.08988910913467407
1761132656511694600,0.711694580078125,-0.2609062194824219,0.12991905212402344,-0.09338778257369995
1761132656521694500,0.721694580078125,-0.26990604400634766,0.0922389030456543,-0.0429878830909729
1761132656531694600,0.731694580078125,-0.25522899627685547,0.1091310977935791,-0.01903367042541504
1761132656541694500,0.741694580078125,-0.15464115142822266,0.13281190395355225,0.0024182796478271484
1761132656551694600,0.751694580078125,-0.059159278869628906,0.13928282260894775,0.05656719207763672
1761132656561694500,0.761694580078125,0.000156402587890625,0.0754544734954834,0.07885438203811646
1761132656571693800,0.77169384765625,0.05223560333251953,0.050526976585388184,0.04650229215621948
1761132656581693700,0.781693603515625,0.12357425689697266,0.07317507266998291,-0.03985154628753662
1761132656591693800,0.79169384765625,0.11844921112060547,0.08045589923858643,-0.037414491176605225
1761132656601693700,0.801693603515625,0.1279010772705078,0.06883585453033447,-0.005213022232055664
1761132656611693800,0.81169384765625,0.1398754119873047,0.025104880332946777,0.005336642265319824
1761132656621693700,0.821693603515625,0.10162067413330078,0.002527594566345215,0.046957194805145264
1761132656631693600,0.831693603515625,0.09214210510253906,0.02279675006866455,-0.004637300968170166
1761132656641693700,0.841693603515625,0.09467220306396484,0.038475871086120605,-0.08621281385421753
1761132656651693600,0.851693603515625,0.1378011703491211,0.026235580444335938,-0.09585422277450562
1761132656661693700,0.861693603515625,0.17362499237060547,-0.03090977668762207,-0.041589438915252686
1761132656671694600,0.871694580078125,0.17595291137695312,-0.042885661125183105,0.024315953254699707
1761132656681694500,0.881694580078125,0.1281909942626953,-0.012869834899902344,0.05015140771865845
1761132656691694600,0.891694580078125,0.047181129455566406,0.02270984649658203,0.04810178279876709
1761132656701694700,0.90169482421875,-0.0646677017211914,0.04938387870788574,0.07319784164428711
1761132656711694600,0.911694580078125,-0.18834877014160156,0.1061633825302124,0.09105873107910156
1761132656721694500,0.921694580078125,-0.2569904327392578,0.12460970878601074,0.07961755990982056
1761132656731694600,0.931694580078125,-0.3090505599975586,0.14658641815185547,0.0629880428314209
1761132656741694700,0.94169482421875,-0.3255043029785156,0.13217413425445557,0.05524259805679321
1761132656751694600,0.951694580078125,-0.18423748016357422,0.1101984977722168,0.11422613263130188
1761132656761694700,0.96169482421875,-0.13423442840576172,0.07112455368041992,0.1085873544216156
1761132656771693800,0.97169384765625,-0.14659786224365234,0.07389211654663086,0.10128375887870789
1761132656781693700,0.981693603515625,-0.1779956817626953,0.1026926040649414,0.035400390625
1761132656791693800,0.99169384765625,-0.10635185241699219,0.15964150428771973,0.0008277297019958496
1761132656801693700,1.001693603515625,-0.08026409149169922,0.12819266319274902,-0.0009089112281799316
1761132656811693800,1.01169384765625,-0.056624412536621094,0.07308733463287354,-0.014889419078826904
1761132656821693700,1.021693603515625,-0.044922828674316406,0.08501875400543213,-0.021145343780517578
1761132656831693600,1.031693603515625,-0.08344554901123047,0.1345975399017334,-0.030411720275878906
1761132656841693700,1.041693603515625,-0.0860452651977539,0.16486310958862305,0.017559051513671875
1761132656851693600,1.051693603515625,-0.0743112564086914,0.1473463773727417,0.0700218677520752
1761132656861693700,1.061693603515625,-0.04116249084472656,0.15207040309906006,0.09069830179214478
1761132656871694600,1.071694580078125,-0.03448963165283203,0.11692285537719727,0.10133960843086243
1761132656881694500,1.081694580078125,-0.030259132385253906,0.12088561058044434,0.07950109243392944
1761132656891694600,1.091694580078125,0.07936859130859375,0.12995898723602295,0.028144359588623047
1761132656901694500,1.101694580078125,0.1554412841796875,0.14426040649414062,0.008265137672424316
1761132656911694600,1.111694580078125,0.21958065032958984,0.07892060279846191,0.004282116889953613
1761132656921694500,1.121694580078125,0.2025775909423828,0.07159280776977539,0.050799012184143066
1761132656931694600,1.131694580078125,0.1739034652709961,0.09801924228668213,0.049550414085388184
1761132656941694700,1.14169482421875,0.056868553161621094,0.09377050399780273,0.062031447887420654
1761132656951694600,1.151694580078125,-0.10783767700195312,0.04746878147125244,0.036745667457580566
1761132656961694700,1.16169482421875,-0.17434024810791016,0.08020448684692383,0.024152755737304688
1761132656971693800,1.17169384765625,-0.21704387664794922,0.10932314395904541,0.007012546062469482
1761132656981694000,1.18169384765625,-0.23847579956054688,0.10210740566253662,-0.003086268901824951
1761132656991693800,1.19169384765625,-0.21230697631835938,0.06817281246185303,0.012960672378540039
1761132657001693700,1.201693603515625,-0.17927169799804688,0.06023001670837402,0.033117830753326416
1761132657011693800,1.21169384765625,-0.10339164733886719,0.05119037628173828,-0.031813085079193115
1761132657021693700,1.221693603515625,0.020189285278320312,0.02881443500518799,-0.016136348247528076
1761132657041694000,1.24169384765625,0.2763051986694336,-0.015294075012207031,0.10943856835365295
1761132657051693800,1.25169384765625,0.34214305877685547,-0.02393209934234619,0.19340288639068604
1761132657061694000,1.26169384765625,0.32709789276123047,-0.02058112621307373,0.16828283667564392
1761132657071694600,1.271694580078125,0.25026702880859375,-0.00023317337036132812,0.06000477075576782
1761132657081694700,1.28169482421875,0.13792800903320312,0.0011086463928222656,-0.09437757730484009
1761132657091694600,1.291694580078125,-0.019655227661132812,0.012466788291931152,-0.138805091381073
1761132657101694700,1.30169482421875,-0.15802383422851562,-0.008420825004577637,-0.15595728158950806
1761132657111694600,1.311694580078125,-0.20314311981201172,0.009470343589782715,-0.19809281826019287
1761132657121694700,1.32169482421875,-0.1935415267944336,0.03625178337097168,-0.17998671531677246
1761132657131694600,1.331694580078125,-0.14366436004638672,0.0028685331344604492,-0.1308841109275818
1761132657141694700,1.34169482421875,-0.05340576171875,-0.014240860939025879,-0.06138134002685547
1761132657151694300,1.3516943359375,0.019888877868652344,-0.029784321784973145,-0.05662578344345093
1761132657161694200,1.361694091796875,0.10752487182617188,-0.008556008338928223,-0.048128724098205566
1761132657171693600,1.371693603515625,0.13780593872070312,-0.02548658847808838,-0.04005122184753418
1761132657181693400,1.381693359375,0.13709735870361328,0.021778583526611328,-0.0068544745445251465
1761132657191693300,1.391693359375,0.10070514678955078,0.029198765754699707,0.017239391803741455
1761132657201693400,1.401693359375,0.035811424255371094,0.044335007667541504,0.0029125213623046875
1761132657211693300,1.411693359375,-0.00258636474609375,0.09127640724182129,0.033121466636657715
1761132657221693400,1.421693359375,-0.033728599548339844,0.0747750997543335,0.069263756275177
1761132657231693300,1.431693359375,-0.09598922729492188,0.09348154067993164,0.1328224241733551
1761132657241693400,1.441693359375,-0.2037038803100586,0.06384456157684326,0.1816580891609192
1761132657251693300,1.451693359375,-0.23955917358398438,0.08443295955657959,0.17824065685272217
1761132657261693400,1.461693359375,-0.24923038482666016,0.13005280494689941,0.18655511736869812
1761132657271694000,1.471694091796875,-0.2424144744873047,0.0721510648727417,0.19176390767097473
1761132657281694200,1.481694091796875,-0.14974117279052734,0.04792201519012451,0.11774122714996338
1761132657291694000,1.491694091796875,-0.03121185302734375,0.008992671966552734,0.02336108684539795
1761132657301694200,1.501694091796875,0.13737010955810547,0.0009913444519042969,-0.012922406196594238
1761132657311694000,1.511694091796875,0.2628164291381836,-0.023186683654785156,0.013304054737091064
1761132657321694200,1.521694091796875,0.3285694122314453,-0.036763787269592285,0.07754349708557129
1761132657331694000,1.531694091796875,0.3275775909423828,-0.029346585273742676,0.07595157623291016
1761132657341694200,1.541694091796875,0.31975460052490234,-0.0396803617477417,0.09731733798980713
1761132657361694200,1.561694091796875,0.1161508560180664,-0.03900754451751709,-0.0010853409767150879
1761132657371693300,1.571693359375,-0.034305572509765625,-0.03274405002593994,-0.09717220067977905
1761132657384473900,1.584473876953125,-0.09610748291015625,-0.018924832344055176,-0.16028231382369995
1761132657394474000,1.594473876953125,-0.10299396514892578,0.022947311401367188,-0.11951804161071777
1761132657404473900,1.604473876953125,-0.03833484649658203,0.05478799343109131,-0.05317032337188721
1761132657414474000,1.614473876953125,0.054831504821777344,0.05447578430175781,-0.050061583518981934
1761132657424473900,1.624473876953125,0.09758758544921875,0.03270292282104492,0.01089102029800415
1761132657434474000,1.634473876953125,0.08523845672607422,-0.01172327995300293,0.0833660364151001
1761132657444473900,1.644473876953125,0.13040924072265625,0.002154707908630371,0.1991327404975891
1761132657454474200,1.65447412109375,0.09667587280273438,0.03667879104614258,0.2429533302783966
1761132657464474400,1.664474365234375,0.0032501220703125,0.01080167293548584,0.19977468252182007
1761132657474475300,1.674475341796875,-0.054070472717285156,0.03761601448059082,0.06175357103347778
1761132657484475000,1.684474853515625,-0.049121856689453125,0.058777451515197754,-0.04884076118469238
1761132657494474800,1.694474853515625,-0.020372390747070312,0.05622756481170654,-0.07980531454086304
1761132657514474800,1.714474853515625,0.09639263153076172,0.02712094783782959,-0.04892057180404663
1761132657524475000,1.724474853515625,0.10069656372070312,0.017165541648864746,-0.08663707971572876
1761132657534474800,1.734474853515625,0.10737037658691406,-0.043772339820861816,-0.08314865827560425
1761132657544475000,1.744474853515625,0.07811546325683594,-0.09620440006256104,-0.0581057071685791
1761132657554474800,1.754474853515625,0.02502727508544922,-0.13378417491912842,-0.06848257780075073
1761132657564475000,1.764474853515625,-0.03741168975830078,-0.13979554176330566,-0.11722642183303833
1761132657574474000,1.774473876953125,-0.037459373474121094,-0.1392449140548706,-0.11694836616516113
1761132657584474000,1.78447412109375,-0.06380271911621094,-0.06422924995422363,-0.14906293153762817
1761132657594474000,1.794473876953125,-0.0184478759765625,-0.10340988636016846,-0.2106090784072876
1761132657604474000,1.80447412109375,0.0554962158203125,-0.09851014614105225,-0.2079700231552124
1761132657614474000,1.814473876953125,0.09097671508789062,-0.15242326259613037,-0.1915273666381836
1761132657624474000,1.82447412109375,0.056995391845703125,-0.18459564447402954,-0.16086655855178833
1761132657634474000,1.834473876953125,0.06373882293701172,-0.16596293449401855,-0.16718167066574097
1761132657644474000,1.84447412109375,0.06340694427490234,-0.13285017013549805,-0.21225041151046753
1761132657654474000,1.854473876953125,0.08235836029052734,-0.09954714775085449,-0.19508004188537598
1761132657664474000,1.86447412109375,0.07027435302734375,-0.07831168174743652,-0.15759319067001343
1761132657674475000,1.87447509765625,0.0511322021484375,-0.08665096759796143,-0.08861571550369263
1761132657684475000,1.884474853515625,0.05365753173828125,-0.03160881996154785,-0.10391479730606079
1761132657694475000,1.89447509765625,0.008359909057617188,-0.00444948673248291,-0.09467899799346924
1761132657704475000,1.904474853515625,-0.07522201538085938,-0.03168630599975586,-0.05223506689071655
1761132657714475000,1.91447509765625,-0.1946697235107422,-0.04630482196807861,-0.012122392654418945
1761132657724475000,1.924474853515625,-0.2637977600097656,0.055525779724121094,0.010330677032470703
1761132657734475000,1.93447509765625,-0.2468128204345703,0.08587169647216797,0.053712666034698486
1761132657744475000,1.944474853515625,-0.2181100845336914,0.12536859512329102,0.10619741678237915
1761132657754475000,1.95447509765625,-0.175537109375,0.0854194164276123,0.12039703130722046
1761132657764475000,1.964474853515625,-0.061400413513183594,0.057921648025512695,0.09727931022644043
1761132657774474000,1.974473876953125,0.043015480041503906,0.046607136726379395,0.05592471361160278
1761132657784474400,1.984474365234375,0.0827627182006836,0.047612667083740234,0.038606464862823486
1761132657794474500,1.994474609375,0.07466411590576172,0.0575026273727417,0.08041352033615112
1761132657804474400,2.004474365234375,0.04515552520751953,0.08233940601348877,0.16664907336235046
1761132657814474500,2.014474609375,0.032614707946777344,0.09299516677856445,0.24508601427078247
1761132657824474400,2.024474365234375,0.03700828552246094,0.11136817932128906,0.2080942690372467
1761132657834474500,2.034474609375,0.034275054931640625,0.07342016696929932,0.1362380087375641
1761132657844474400,2.044474365234375,0.055481910705566406,0.020789742469787598,0.08530449867248535
1761132657854474500,2.054474609375,0.0862436294555664,0.0066367387771606445,0.053421974182128906
1761132657864474400,2.064474365234375,0.09537982940673828,-0.014076709747314453,0.02609574794769287
1761132657874475300,2.074475341796875,0.056578636169433594,-0.06750452518463135,0.06156039237976074
1761132657884475100,2.08447509765625,0.02261638641357422,-0.060451626777648926,0.08221554756164551
1761132657894475300,2.094475341796875,-0.0041141510009765625,-0.04297971725463867,0.062138915061950684
1761132657904475100,2.10447509765625,-0.0021486282348632812,-0.0023888349533081055,0.0012227892875671387
1761132657914475300,2.114475341796875,0.03326892852783203,0.01362764835357666,-0.050465166568756104
1761132657924475100,2.12447509765625,0.08534049987792969,-0.02378678321838379,-0.08671289682388306
1761132657934475300,2.134475341796875,0.08704185485839844,-0.06018424034118652,-0.08455342054367065
1761132657944475400,2.144475341796875,0.06240367889404297,-0.07764321565628052,-0.10933339595794678
1761132657954475300,2.154475341796875,0.059432029724121094,0.004361629486083984,-0.12939417362213135
1761132657964475400,2.164475341796875,0.02783203125,0.04183399677276611,-0.07612121105194092
1761132657974474500,2.174474609375,0.05133342742919922,0.07078254222869873,0.0256844162940979
1761132657984474400,2.184474365234375,0.05338573455810547,0.06476688385009766,0.09791773557662964
1761132657994474500,2.194474609375,0.06034278869628906,0.059219419956207275,0.06106555461883545
1761132658004474400,2.204474365234375,0.060181617736816406,0.05962955951690674,0.05915409326553345
1761132658014474500,2.214474609375,0.03851509094238281,0.06413179636001587,-0.08931112289428711
1761132658024474400,2.224474365234375,0.03359794616699219,0.03753620386123657,-0.16606175899505615
1761132658034474500,2.234474609375,0.05737495422363281,0.01870042085647583,-0.16823744773864746
1761132658044474400,2.244474365234375,0.15292739868164062,0.010261893272399902,-0.13154244422912598
1761132658054474500,2.254474609375,0.2316446304321289,0.012079775333404541,-0.12372422218322754
1761132658064474400,2.264474365234375,0.26006412506103516,-0.012741506099700928,-0.099964439868927
1761132658074475300,2.274475341796875,0.2503194808959961,-0.02717423439025879,-0.04540306329727173
1761132658084475100,2.28447509765625,0.2144947052001953,0.003904283046722412,-0.016972064971923828
1761132658094475300,2.294475341796875,0.1238260269165039,0.0373913049697876,0.015855848789215088
1761132658104475100,2.30447509765625,0.011767387390136719,0.04532468318939209,0.04367494583129883
1761132658114475300,2.314475341796875,-0.011587142944335938,0.04775595664978027,0.07936078310012817
1761132658124475100,2.32447509765625,-0.025426864624023438,0.05099678039550781,0.024360179901123047
1761132658134475300,2.334475341796875,-0.027441024780273438,-0.004251837730407715,0.005151212215423584
1761132658144475100,2.34447509765625,0.025539398193359375,-0.024937152862548828,0.03206437826156616
1761132658154475300,2.354475341796875,0.044933319091796875,0.002964615821838379,0.04947459697723389
1761132658164475100,2.36447509765625,0.042736053466796875,-0.00036203861236572266,0.08743241429328918
1761132658174474500,2.374474609375,0.011872291564941406,-0.018813610076904297,0.14185458421707153
1761132658184474400,2.384474365234375,-0.016480445861816406,0.007009744644165039,0.15529575943946838
1761132658194474500,2.394474609375,-0.09030437469482422,-0.003615736961364746,0.07455939054489136
1761132658204474400,2.404474365234375,-0.12821483612060547,-0.03567945957183838,-0.0060138702392578125
1761132658214474500,2.414474609375,-0.0776529312133789,-0.05168354511260986,-0.04710590839385986
1761132658224474400,2.424474365234375,-0.03210639953613281,-0.015271186828613281,-0.01627558469772339
1761132658234474200,2.43447412109375,-0.013024330139160156,-0.03499448299407959,0.03159385919570923
1761132658244474400,2.444474365234375,-0.017790794372558594,-0.04051101207733154,0.09279945492744446
1761132658254474200,2.45447412109375,-0.05115032196044922,-0.003984212875366211,0.10172724723815918
1761132658264474400,2.464474365234375,-0.0796670913696289,0.06275832653045654,0.04518169164657593
1761132658274475000,2.47447509765625,-0.14171409606933594,0.0738605260848999,0.0375370979309082
1761132658284475100,2.48447509765625,-0.10571575164794922,0.07798290252685547,0.07841697335243225
1761132658294475000,2.49447509765625,-0.0723276138305664,0.059195876121520996,0.06704142689704895
1761132658304475100,2.50447509765625,-0.07027530670166016,0.03958415985107422,0.12429669499397278
1761132658314475000,2.51447509765625,-0.07303047180175781,0.02826976776123047,0.12360063195228577
1761132658324475100,2.52447509765625,-0.030254364013671875,0.034700632095336914,0.06828910112380981
1761132658334475300,2.534475341796875,0.05561542510986328,0.09715485572814941,0.007773697376251221
1761132658344475100,2.54447509765625,0.14379596710205078,0.07658421993255615,-0.04794168472290039
1761132658354475300,2.554475341796875,0.22712230682373047,0.020371437072753906,-0.054092228412628174
1761132658364475100,2.56447509765625,0.25779151916503906,-0.06243336200714111,-0.06531834602355957
1761132658374474200,2.57447412109375,0.2526435852050781,-0.08624815940856934,-0.08612197637557983
1761132658384474000,2.58447412109375,0.21663475036621094,-0.08561968803405762,-0.10579174757003784
1761132658394474200,2.59447412109375,0.16900920867919922,-0.04669058322906494,-0.11409485340118408
1761132658404474000,2.60447412109375,0.06899356842041016,-0.010133624076843262,-0.08128643035888672
1761132658414474200,2.61447412109375,-0.03554821014404297,0.000026106834411621094,-0.06778132915496826
1761132658424474400,2.624474365234375,-0.13035202026367188,-0.003405451774597168,-0.12178820371627808
1761132658434474200,2.63447412109375,-0.15577030181884766,0.024150490760803223,-0.1675512194633484
1761132658444474400,2.644474365234375,-0.19585800170898438,-0.011354923248291016,-0.15121912956237793
1761132658454474200,2.65447412109375,-0.22670841217041016,-0.0721050500869751,-0.07650214433670044
1761132658464474400,2.664474365234375,-0.1787710189819336,-0.039164066314697266,-0.028846383094787598
1761132658474475000,2.67447509765625,-0.08317852020263672,-0.006315350532531738,0.009823858737945557
1761132658484475100,2.68447509765625,0.0026712417602539062,0.020643115043640137,0.04570344090461731
1761132658494475300,2.694475341796875,0.019057273864746094,-0.00980222225189209,0.07869815826416016
1761132658504475100,2.70447509765625,-0.017086029052734375,-0.03896284103393555,0.056945741176605225
1761132658514475300,2.714475341796875,-0.08176231384277344,-0.05037426948547363,-0.0023298263549804688
1761132658524475100,2.72447509765625,-0.12713909149169922,-0.027186274528503418,0.007802128791809082
1761132658534475300,2.734475341796875,-0.15813350677490234,0.005121469497680664,0.012499392032623291
1761132658544475100,2.74447509765625,-0.17484092712402344,0.020871639251708984,0.016068369150161743
1761132658554475300,2.754475341796875,-0.09358692169189453,-0.010074019432067871,-0.022348135709762573
1761132658564475100,2.76447509765625,0.006608009338378906,0.003579854965209961,-0.08559563755989075
1761132658574474500,2.774474609375,0.1185445785522461,-0.005118012428283691,-0.10681074857711792
1761132658584474400,2.784474365234375,0.22076416015625,-0.08208644390106201,-0.10194095969200134
1761132658594474500,2.794474609375,0.318206787109375,-0.09405803680419922,-0.09620419144630432
1761132658604474400,2.804474365234375,0.3703012466430664,-0.08741223812103271,-0.0816195011138916
1761132658614474500,2.814474609375,0.3436136245727539,-0.09887087345123291,-0.08225283026695251
1761132658624474400,2.824474365234375,0.29327964782714844,-0.050194501876831055,-0.04092031717300415
1761132658634474200,2.83447412109375,0.22653961181640625,-0.0259091854095459,-0.046624958515167236
1761132658644474400,2.844474365234375,0.15292835235595703,-0.028480172157287598,-0.05257710814476013
1761132658654474200,2.85447412109375,0.06754493713378906,-0.01179194450378418,0.002528369426727295
1761132658664474400,2.864474365234375,-0.029692649841308594,-0.03523516654968262,0.0030923187732696533
1761132658674475300,2.874475341796875,-0.16753482818603516,-0.033530235290527344,0.06495216488838196
1761132658684475400,2.884475341796875,-0.24558353424072266,0.021622896194458008,0.06725344061851501
1761132658694475300,2.894475341796875,-0.28311634063720703,0.0573725700378418,0.10655125975608826
1761132658704475400,2.904475341796875,-0.34717750549316406,0.05238473415374756,0.14020496606826782
1761132658714475300,2.914475341796875,-0.3612508773803711,0.04295146465301514,0.13364684581756592
1761132658724475400,2.924475341796875,-0.37085628509521484,0.028934121131896973,0.1722010374069214
1761132658734475300,2.934475341796875,-0.37112903594970703,0.031028032302856445,0.17158889770507812
1761132658744475400,2.944475341796875,-0.23036766052246094,0.04650545120239258,0.1577048897743225
1761132658754475300,2.954475341796875,-0.16886615753173828,0.06800925731658936,0.14395135641098022
1761132658764475400,2.964475341796875,-0.1170949935913086,0.04482221603393555,0.17188933491706848
1761132658774474500,2.974474609375,-0.09645938873291016,0.0077811479568481445,0.1935090720653534
1761132658784474400,2.984474365234375,-0.1212778091430664,0.042847633361816406,0.14940860867500305
1761132658794474200,2.99447412109375,-0.028771400451660156,0.0590672492980957,0.07500258088111877
1761132658804474400,3.004474365234375,0.05410003662109375,0.051877498626708984,0.024477869272232056
1761132658814474200,3.01447412109375,0.10567760467529297,0.021565794944763184,0.03190675377845764
1761132658824474400,3.024474365234375,0.15954971313476562,-0.05617523193359375,0.042866647243499756
1761132658834474200,3.03447412109375,0.239837646484375,-0.07868945598602295,0.04854929447174072
1761132658844474400,3.044474365234375,0.3418846130371094,-0.027792930603027344,0.030484497547149658
1761132658854474200,3.05447412109375,0.31010913848876953,0.007113933563232422,0.03802132606506348
1761132658864474400,3.064474365234375,0.2188568115234375,-0.008840799331665039,0.058740586042404175
1761132658874475000,3.07447509765625,0.05628013610839844,0.014236688613891602,0.023487895727157593
1761132658884475100,3.08447509765625,-0.12509441375732422,0.03178286552429199,-0.08799511194229126
1761132658894475300,3.094475341796875,-0.12438678741455078,0.026258111000061035,-0.08554482460021973
1761132658904475100,3.10447509765625,-0.3512287139892578,0.09764218330383301,-0.06790316104888916
1761132658914475300,3.114475341796875,-0.3391103744506836,0.11247944831848145,-0.026165515184402466
1761132658924475100,3.12447509765625,-0.2269115447998047,0.11205112934112549,0.002416163682937622
1761132658934475300,3.134475341796875,-0.08169078826904297,0.07029128074645996,0.04671895503997803
1761132658944475100,3.14447509765625,0.053650856018066406,-0.0020301342010498047,0.06491151452064514
1761132658954475300,3.154475341796875,0.1314687728881836,-0.02729034423828125,0.05885937809944153
1761132658964475100,3.16447509765625,0.22374725341796875,-0.0022497177124023438,0.016458868980407715
1761132658974474200,3.17447412109375,0.22283172607421875,0.004766106605529785,0.010794788599014282
1761132658994474200,3.19447412109375,0.19068527221679688,0.002165675163269043,-0.0016467273235321045
1761132659004474400,3.204474365234375,0.1689739227294922,0.023731708526611328,-0.03568747639656067
1761132659014474200,3.21447412109375,0.09950542449951172,0.009924888610839844,-0.028093695640563965
1761132659024474400,3.224474365234375,0.008700370788574219,0.013336777687072754,-0.032125890254974365
1761132659034474200,3.23447412109375,-0.05799293518066406,0.05626225471496582,-0.06864795088768005
1761132659044474400,3.244474365234375,-0.08878612518310547,0.09909915924072266,-0.0697583556175232
1761132659054474200,3.25447412109375,-0.12207317352294922,0.0946727991104126,-0.014215648174285889
1761132659064474400,3.264474365234375,-0.10765361785888672,0.06284224987030029,0.042856842279434204
1761132659074475300,3.274475341796875,-0.062294960021972656,0.104392409324646,0.08018237352371216
1761132659084475100,3.28447509765625,0.07865428924560547,0.08523666858673096,0.05252411961555481
1761132659104475100,3.30447509765625,0.18056011199951172,-0.013963878154754639,0.0846814215183258
1761132659114475300,3.314475341796875,0.17539405822753906,-0.041096627712249756,0.04462602734565735
1761132659124475100,3.32447509765625,0.14171695709228516,-0.021612882614135742,-0.01738402247428894
1761132659134475300,3.334475341796875,0.103424072265625,-0.020401418209075928,-0.07423135638237
1761132659144475100,3.34447509765625,0.06768989562988281,-0.014403581619262695,-0.07533401250839233
1761132659154475300,3.354475341796875,0.010415077209472656,-0.05238044261932373,-0.07825925946235657
1761132659164475100,3.36447509765625,0.020163536071777344,-0.05247604846954346,-0.04651296138763428
1761132659174474200,3.37447412109375,-0.02763843536376953,-0.04229402542114258,-0.015220731496810913
1761132659184474400,3.384474365234375,-0.08262920379638672,-0.07922381162643433,0.02005675435066223
1761132659194474200,3.39447412109375,-0.13764190673828125,-0.06946051120758057,0.009721368551254272
1761132659204474400,3.404474365234375,-0.13286876678466797,-0.019931554794311523,0.010658115148544312
1761132659214474200,3.41447412109375,-0.07078361511230469,0.014396607875823975,-0.02171573042869568
1761132659224474400,3.424474365234375,-0.02567005157470703,0.007070600986480713,-0.005307793617248535
1761132659234474200,3.43447412109375,0.033657073974609375,-0.044983863830566406,0.03579184412956238
1761132659244474400,3.444474365234375,0.0714111328125,-0.03721463680267334,0.06902602314949036
1761132659254474200,3.45447412109375,0.0781259536743164,-0.020489156246185303,0.030832439661026
1761132659264474400,3.464474365234375,0.04670238494873047,0.025922656059265137,0.024329960346221924
1761132659274475000,3.47447509765625,0.027413368225097656,0.054072678089141846,0.034873515367507935
1761132659284475100,3.48447509765625,-0.010911941528320312,0.06165271997451782,0.04491090774536133
1761132659294475000,3.49447509765625,-0.07074356079101562,0.05150884389877319,0.04897052049636841
1761132659304475100,3.50447509765625,-0.09941291809082031,0.009546399116516113,0.04521086812019348
1761132659314475000,3.51447509765625,-0.09937000274658203,0.05407220125198364,-0.04691627621650696
1761132659324475100,3.52447509765625,-0.06118202209472656,0.052142322063446045,-0.07004693150520325
1761132659334475000,3.53447509765625,-0.07580280303955078,0.03043442964553833,-0.022902727127075195
1761132659344475100,3.54447509765625,-0.07850170135498047,0.03422731161117554,-0.021369963884353638
1761132659354475000,3.55447509765625,0.0073146820068359375,0.03930330276489258,-0.025856226682662964
1761132659364475100,3.56447509765625,0.15291595458984375,0.03057539463043213,-0.006823182106018066
1761132659374474200,3.57447412109375,0.21704387664794922,0.023561298847198486,0.07149878144264221
1761132659384474000,3.58447412109375,0.20231914520263672,-0.011800646781921387,0.08665618300437927
1761132659394474200,3.59447412109375,0.1759042739868164,-0.006699800491333008,0.0018030107021331787
1761132659404474000,3.60447412109375,0.13052749633789062,0.025595009326934814,-0.12519142031669617
1761132659414474200,3.61447412109375,0.13072967529296875,0.023783504962921143,-0.12462252378463745
1761132659424474400,3.624474365234375,0.09261798858642578,0.06744551658630371,-0.17931333184242249
1761132659434474200,3.63447412109375,0.011373519897460938,0.0179288387298584,0.02180391550064087
1761132659444474400,3.644474365234375,-0.00044345855712890625,0.04042321443557739,0.07474973797798157
1761132659454474200,3.65447412109375,0.018822669982910156,0.0826537013053894,0.08971276879310608
1761132659464474400,3.664474365234375,0.038082122802734375,0.08703804016113281,0.0815524160861969
1761132659474475000,3.67447509765625,0.016646385192871094,0.07501238584518433,0.04314589500427246
1761132659484475100,3.68447509765625,-0.0071544647216796875,0.05819958448410034,-0.013824880123138428
1761132659494475000,3.69447509765625,-0.05246448516845703,0.07221466302871704,-0.015550017356872559
1761132659504475100,3.70447509765625,-0.061847686767578125,0.10020637512207031,0.020525246858596802
1761132659514475000,3.71447509765625,-0.059294700622558594,0.1423807144165039,0.08900976181030273
1761132659524475100,3.72447509765625,-0.040047645568847656,0.18439018726348877,0.11508035659790039
1761132659534475300,3.734475341796875,0.043761253356933594,0.14976441860198975,0.12741360068321228
1761132659544475100,3.74447509765625,0.098724365234375,0.0726163387298584,0.14089035987854004
1761132659554475300,3.754475341796875,0.13451862335205078,0.021887362003326416,0.10871186852455139
1761132659564475100,3.76447509765625,0.1728038787841797,0.013783812522888184,0.0512370765209198
1761132659574474200,3.77447412109375,0.1729259490966797,0.012173235416412354,0.05044403672218323
1761132659584474400,3.784474365234375,0.06069374084472656,0.01661282777786255,-0.008861124515533447
1761132659594474200,3.79447412109375,-0.005948066711425781,0.01072537899017334,-0.026923805475234985
1761132659604474400,3.804474365234375,-0.015094757080078125,-0.022018849849700928,-0.09809878468513489
1761132659614474200,3.81447412109375,-0.036327362060546875,-0.049552321434020996,-0.1133817732334137
1761132659624474400,3.824474365234375,-0.04804229736328125,-0.10073548555374146,-0.0814363956451416
1761132659634474200,3.83447412109375,-0.05259227752685547,-0.1250407099723816,-0.13492026925086975
1761132659644474400,3.844474365234375,-0.0930938720703125,-0.12690699100494385,-0.1921353042125702
1761132659654474200,3.85447412109375,-0.11208438873291016,-0.14202100038528442,-0.24293804168701172
1761132659664474400,3.864474365234375,-0.06171226501464844,-0.12944257259368896,-0.26357343792915344
1761132659674475300,3.874475341796875,0.01959514617919922,-0.1234431266784668,-0.22442182898521423
1761132659684475100,3.88447509765625,0.09115409851074219,-0.11108332872390747,-0.15933269262313843
1761132659694475300,3.894475341796875,0.10763359069824219,-0.12505656480789185,-0.04674738645553589
1761132659704475100,3.90447509765625,0.09074687957763672,-0.09160512685775757,-0.0541878342628479
1761132659714475300,3.914475341796875,0.028600692749023438,-0.040879130363464355,-0.053590089082717896
1761132659724475100,3.92447509765625,-0.052489280700683594,-0.013661861419677734,-0.10296458005905151
1761132659734475300,3.934475341796875,-0.13592243194580078,0.003010690212249756,-0.14370256662368774
1761132659744475100,3.94447509765625,-0.14761066436767578,-0.006694674491882324,-0.12870067358016968
1761132659754475300,3.954475341796875,-0.10444164276123047,0.049137890338897705,-0.017964094877243042
1761132659764475100,3.96447509765625,-0.02801227569580078,0.06089979410171509,0.09760531783103943
1761132659774474500,3.974474609375,0.03625965118408203,0.05263352394104004,0.21238338947296143
1761132659784474400,3.984474365234375,0.035813331604003906,0.05493426322937012,0.20792925357818604
1761132659794474200,3.99447412109375,0.0880880355834961,0.05987358093261719,0.14505931735038757
1761132659804474400,4.004474365234375,0.12368297576904297,0.08329135179519653,0.11837297677993774
1761132659814474200,4.01447412109375,0.1402130126953125,0.05561351776123047,0.13247209787368774
1761132659824474400,4.024474365234375,0.14479827880859375,0.02718597650527954,0.17668882012367249
1761132659834474200,4.03447412109375,0.14235973358154297,0.0644540786743164,0.16160663962364197
1761132659844474400,4.044474365234375,0.1400308609008789,0.09118664264678955,0.14916595816612244
1761132659854474200,4.05447412109375,0.13779830932617188,0.08117026090621948,0.1633613109588623
1761132659864474400,4.064474365234375,0.12369251251220703,0.07525420188903809,0.11588150262832642
1761132659874475300,4.074475341796875,0.10485553741455078,0.03780621290206909,0.0830860435962677
1761132659884475100,4.08447509765625,0.1052103042602539,0.0335615873336792,0.08154037594795227
1761132659894475300,4.094475341796875,0.026610374450683594,0.021932601928710938,0.01598525047302246
1761132659904475100,4.10447509765625,-0.03996467590332031,0.029064536094665527,0.0010106563568115234
1761132659914475300,4.114475341796875,-0.09215164184570312,0.02172708511352539,-0.006570190191268921
1761132659924475100,4.12447509765625,-0.1252298355102539,0.0050258636474609375,-0.024289578199386597
1761132659934475300,4.134475341796875,-0.0961904525756836,-0.013422489166259766,0.009161293506622314
1761132659944475400,4.144475341796875,-0.05769062042236328,-0.026651382446289062,0.06732016801834106
1761132659954475300,4.154475341796875,0.0046100616455078125,-0.020085811614990234,0.07817965745925903
1761132659964475400,4.164475341796875,0.009360313415527344,-0.06805294752120972,0.028360486030578613
1761132659974474500,4.174474609375,0.038023948669433594,-0.09613591432571411,-0.022904396057128906
1761132659984474400,4.184474365234375,0.03796577453613281,-0.11615675687789917,-0.09819796681404114
1761132659994474500,4.194474609375,0.033104896545410156,-0.11610668897628784,-0.11654922366142273
1761132660004474400,4.204474365234375,0.047359466552734375,-0.09394794702529907,-0.04583996534347534
1761132660014474500,4.214474609375,0.056763648986816406,-0.0715377926826477,0.045575469732284546
1761132660024474400,4.224474365234375,0.056568145751953125,-0.07095247507095337,0.04235658049583435
1761132660034474500,4.234474609375,0.05402851104736328,-0.04946792125701904,0.08419674634933472
1761132660044474400,4.244474365234375,0.053958892822265625,-0.05724990367889404,0.09057673811912537
1761132660054474500,4.254474609375,0.032448768615722656,-0.05861687660217285,0.06165963411331177
1761132660064474400,4.264474365234375,0.030180931091308594,-0.03645944595336914,0.07216563820838928
1761132660074475300,4.274475341796875,-0.005580902099609375,-0.04076874256134033,0.05895712971687317
1761132660084475100,4.28447509765625,-0.005404472351074219,-0.04272353649139404,0.05825448036193848
1761132660094475300,4.294475341796875,-0.06742382049560547,0.02454686164855957,0.055932819843292236
1761132660104475100,4.30447509765625,-0.10793113708496094,0.03201603889465332,0.02175992727279663
1761132660114475300,4.314475341796875,-0.13178443908691406,0.0376816987991333,0.022378534078598022
1761132660124475100,4.32447509765625,-0.13184261322021484,0.0374140739440918,0.02021774649620056
1761132660134475300,4.334475341796875,-0.014758110046386719,-0.02843642234802246,-0.03271973133087158
1761132660144475100,4.34447509765625,0.059101104736328125,-0.05722784996032715,-0.03564774990081787
1761132660154475300,4.354475341796875,0.08033466339111328,-0.05973398685455322,0.005533576011657715
1761132660164475100,4.36447509765625,0.058624267578125,-0.03238081932067871,0.02326899766921997
1761132660174474500,4.374474609375,0.0060176849365234375,0.014581561088562012,0.07513830065727234
1761132660184474400,4.384474365234375,-0.055980682373046875,0.07424092292785645,0.09135302901268005
1761132660194474500,4.394474609375,-0.07481765747070312,0.14744913578033447,0.032800883054733276
1761132660204474400,4.404474365234375,-0.0817422866821289,0.12499475479125977,0.0184917151927948
1761132660214474500,4.414474609375,-0.07442569732666016,0.0746910572052002,0.0152987539768219
1761132660224474400,4.424474365234375,-0.06484603881835938,0.04706621170043945,-0.021741420030593872
1761132660234474200,4.43447412109375,-0.055408477783203125,0.052078962326049805,-0.04637491703033447
1761132660244474400,4.444474365234375,-0.019742965698242188,0.07508313655853271,-0.04647061228752136
1761132660254474200,4.45447412109375,0.0469512939453125,0.127799391746521,-0.022428154945373535
1761132660264474400,4.464474365234375,0.113555908203125,0.12368392944335938,0.04645955562591553
1761132660274475000,4.47447509765625,0.1896839141845703,0.09566366672515869,0.07800334692001343
1761132660284475100,4.48447509765625,0.18923377990722656,0.09819889068603516,0.07287642359733582
1761132660294475000,4.49447509765625,0.21531963348388672,0.0652085542678833,0.05780518054962158
1761132660304475100,4.50447509765625,0.15546417236328125,0.04463660717010498,0.046354323625564575
1761132660314475000,4.51447509765625,0.06474781036376953,0.058122873306274414,0.02248045802116394
1761132660324475100,4.52447509765625,-0.016257286071777344,0.08490097522735596,-0.03678199648857117
1761132660334475000,4.53447509765625,-0.030257225036621094,0.10701870918273926,-0.08944541215896606
1761132660344475100,4.54447509765625,-0.0085296630859375,0.07050120830535889,-0.11269441246986389
1761132660354475000,4.55447509765625,0.044081687927246094,0.02621781826019287,-0.11591586470603943
1761132660364475100,4.56447509765625,0.09418678283691406,-0.024074554443359375,-0.032692015171051025
1761132660374474200,4.57447412109375,0.09638214111328125,-0.037805795669555664,0.013560205698013306
1761132660384474400,4.584474365234375,0.10826492309570312,-0.0042459964752197266,-0.008227229118347168
1761132660394474200,4.59447412109375,0.09637451171875,0.056638479232788086,-0.02223876118659973
1761132660404474400,4.604474365234375,0.06310081481933594,0.005620241165161133,0.006029963493347168
1761132660414474200,4.61447412109375,-0.005940437316894531,-0.023008346557617188,0.033550113439559937
1761132660424474400,4.624474365234375,-0.005450248718261719,-0.028679370880126953,0.02961626648902893
1761132660434474200,4.63447412109375,-0.15572643280029297,-0.027626752853393555,-0.0600544810295105
1761132660444474400,4.644474365234375,-0.24615764617919922,0.007311105728149414,-0.057944923639297485
1761132660454474200,4.65447412109375,-0.27919769287109375,0.009417295455932617,-0.041377902030944824
1761132660464474400,4.664474365234375,-0.3004608154296875,0.025106072425842285,-0.018315523862838745
1761132660474475000,4.67447509765625,-0.2621641159057617,0.028676509857177734,0.019793838262557983
1761132660484475100,4.68447509765625,-0.1882915496826172,0.0062029361724853516,0.05156458914279938
1761132660494475300,4.694475341796875,-0.08359241485595703,-0.00877237319946289,0.06641973555088043
1761132660504475100,4.70447509765625,-0.012623786926269531,0.009598493576049805,0.10612714290618896
1761132660514475300,4.714475341796875,0.06303787231445312,0.014909625053405762,0.12810960412025452
1761132660524475100,4.72447509765625,0.11728382110595703,0.055577993392944336,0.13581430912017822
1761132660534475300,4.734475341796875,0.06170654296875,0.04315447807312012,0.1412755250930786
1761132660544475100,4.74447509765625,0.015924453735351562,0.06200742721557617,0.08114628493785858
1761132660554475300,4.754475341796875,0.0037832260131835938,0.09153580665588379,0.03236563503742218
1761132660564475100,4.76447509765625,-0.010798454284667969,0.06613099575042725,-0.0297328382730484
1761132660574474500,4.774474609375,-0.0015707015991210938,0.006147503852844238,-0.022118866443634033
1761132660584474400,4.784474365234375,0.09131526947021484,-0.0354304313659668,-0.051444560289382935
1761132660594474500,4.794474609375,0.1792926788330078,-0.01086735725402832,-0.06008455157279968
1761132660604474400,4.804474365234375,0.23610210418701172,0.0069904327392578125,-0.001597568392753601
1761132660614474500,4.814474609375,0.2451953887939453,-0.0028464794158935547,0.05067606270313263
1761132660624474400,4.824474365234375,0.2138681411743164,0.0040471553802490234,0.03940330445766449
1761132660634474200,4.83447412109375,0.10378265380859375,0.001431107521057129,-0.014642447233200073
1761132660644474400,4.844474365234375,0.0035257339477539062,-0.00344693660736084,-0.08720612525939941
1761132660654474200,4.85447412109375,-0.046319007873535156,0.00009322166442871094,-0.13049732148647308
1761132660664474400,4.864474365234375,-0.1320962905883789,-0.03470206260681152,-0.10300149023532867
1761132660674475300,4.874475341796875,-0.17486190795898438,-0.05929970741271973,-0.04999054968357086
1761132660684475100,4.88447509765625,-0.1818218231201172,-0.030116677284240723,-0.018152296543121338
1761132660694475300,4.894475341796875,-0.15065860748291016,-0.0039539337158203125,-0.031694307923316956
1761132660704475400,4.904475341796875,-0.11491870880126953,0.007388710975646973,-0.05030792951583862
1761132660714475300,4.914475341796875,-0.02909088134765625,-0.03935801982879639,-0.047573670744895935
1761132660724475100,4.92447509765625,0.05420207977294922,-0.07529467344284058,-0.023745045065879822
1761132660734475300,4.934475341796875,0.044036865234375,-0.10812526941299438,0.030611112713813782
1761132660744475100,4.94447509765625,0.019570350646972656,-0.13183224201202393,0.10232691466808319
1761132660754475300,4.954475341796875,0.0025119781494140625,-0.06622296571731567,0.1808817982673645
1761132660764475100,4.96447509765625,-0.031050682067871094,0.02092266082763672,0.19745370745658875
1761132660774474500,4.974474609375,-0.11720657348632812,0.025575876235961914,0.22464489936828613
1761132660784474400,4.984474365234375,-0.18653583526611328,-0.027989506721496582,0.2035123109817505
1761132660794474200,4.99447412109375,-0.25595855712890625,-0.061626136302948,0.12201449275016785
1761132660804474400,5.004474365234375,-0.30159950256347656,-0.06725257635116577,0.005017131567001343
1761132660814474200,5.01447412109375,-0.3474578857421875,-0.06819039583206177,-0.017820000648498535
1761132660824474400,5.024474365234375,-0.29541778564453125,-0.042474210262298584,0.05797553062438965
1761132660834474200,5.03447412109375,-0.20061397552490234,-0.018340468406677246,0.1260857880115509
1761132660844474400,5.044474365234375,-0.20185279846191406,-0.006000101566314697,0.12610310316085815
1761132660854474200,5.05447412109375,0.02663707733154297,-0.042700111865997314,0.1952246129512787
1761132660864474400,5.064474365234375,0.09950637817382812,-0.026665687561035156,0.1561720073223114
1761132660874475300,5.074475341796875,0.15812015533447266,-0.016379177570343018,0.08115863800048828
1761132660884475100,5.08447509765625,0.18102169036865234,-0.022140800952911377,0.0358804315328598
1761132660894475300,5.094475341796875,0.16341876983642578,0.013341844081878662,0.010194987058639526
1761132660904475100,5.10447509765625,0.1507587432861328,0.011320292949676514,-0.013182193040847778
1761132660914475300,5.114475341796875,0.14062023162841797,0.04158872365951538,-0.03860068321228027
1761132660924475100,5.12447509765625,0.11616134643554688,0.06191974878311157,-0.042236536741256714
1761132660934475300,5.134475341796875,0.09652233123779297,0.05576878786087036,-0.028480976819992065
1761132660944475100,5.14447509765625,0.08409976959228516,0.06147181987762451,-0.05229020118713379
1761132660954475300,5.154475341796875,0.0812826156616211,0.08868157863616943,-0.08494114875793457
1761132660964475100,5.16447509765625,0.09758949279785156,0.11386507749557495,-0.12956243753433228
1761132660974474500,5.174474609375,0.1378192901611328,0.0938524603843689,-0.12388786673545837
1761132660984474400,5.184474365234375,0.17802143096923828,0.09325289726257324,-0.05151882767677307
1761132660994474200,5.19447412109375,0.21827983856201172,0.06557655334472656,-0.017929524183273315
1761132661004474400,5.204474365234375,0.26583385467529297,0.07965469360351562,-0.008572012186050415
1761132661014474200,5.21447412109375,0.2584505081176758,0.08001941442489624,0.0047653913497924805
1761132661024474400,5.224474365234375,0.2249317169189453,0.03246939182281494,0.017777472734451294
1761132661034474200,5.23447412109375,0.16050148010253906,0.02576678991317749,0.005082249641418457
1761132661044474400,5.244474365234375,0.02921295166015625,0.005279898643493652,-0.03558972477912903
1761132661064474400,5.264474365234375,-0.12063312530517578,0.02958446741104126,-0.03648322820663452
1761132661074475300,5.274475341796875,-0.16098594665527344,0.026382029056549072,-0.03181290626525879
1761132661084475100,5.28447509765625,-0.1608133316040039,0.02492910623550415,-0.030342310667037964
1761132661094475300,5.294475341796875,-0.14166641235351562,-0.04404169321060181,0.013874530792236328
1761132661104475100,5.30447509765625,-0.10111141204833984,-0.03003793954849243,0.04132270812988281
1761132661114475300,5.314475341796875,-0.058249473571777344,0.001709580421447754,0.05433860421180725
1761132661124475100,5.32447509765625,-0.022573471069335938,0.007338583469390869,0.04395318031311035
1761132661134475300,5.334475341796875,-0.01800537109375,-0.015763938426971436,0.046005308628082275
1761132661144475100,5.34447509765625,-0.018213272094726562,-0.012681841850280762,0.047960251569747925
1761132661154475300,5.354475341796875,0.00789642333984375,-0.002218186855316162,-0.02198377251625061
1761132661164475100,5.36447509765625,0.007626533508300781,0.0016087889671325684,-0.020044922828674316
1761132661174474500,5.374474609375,0.06238269805908203,-0.03237813711166382,-0.049194395542144775
1761132661184474400,5.384474365234375,0.12908172607421875,-0.020623624324798584,-0.023594677448272705
1761132661194474200,5.39447412109375,0.1287403106689453,-0.01611083745956421,-0.022259771823883057
1761132661204474400,5.404474365234375,0.2433490753173828,-0.0048004984855651855,0.04110637307167053
1761132661214474200,5.41447412109375,0.20725250244140625,-0.030709266662597656,0.002134978771209717
1761132661224474400,5.424474365234375,0.20740890502929688,-0.03136175870895386,0.005298137664794922
1761132661234474200,5.43447412109375,0.06169700622558594,0.040034353733062744,-0.09465959668159485
1761132661244474400,5.444474365234375,-0.009687423706054688,0.06448251008987427,-0.08745056390762329
1761132661254474200,5.45447412109375,-0.12415313720703125,0.04079759120941162,-0.06135040521621704
1761132661264474400,5.464474365234375,-0.17406654357910156,0.056451380252838135,-0.049817949533462524
1761132661274475000,5.47447509765625,-0.14511871337890625,0.05702388286590576,-0.052763432264328
1761132661284475100,5.48447509765625,-0.09479713439941406,0.07147341966629028,-0.05601632595062256
1761132661294475000,5.49447509765625,-0.039855003356933594,0.02294015884399414,-0.06965574622154236
1761132661304475100,5.50447509765625,0.031703948974609375,-0.017231345176696777,-0.060586005449295044
1761132661314475000,5.51447509765625,0.09601783752441406,-0.023178040981292725,-0.05637449026107788
1761132661324475100,5.52447509765625,0.13641834259033203,-0.01726245880126953,-0.020530641078948975
1761132661334475000,5.53447509765625,0.2200145721435547,0.02857959270477295,0.016316711902618408
1761132661344475100,5.54447509765625,0.22475147247314453,0.05620086193084717,0.022763848304748535
1761132661354475000,5.55447509765625,0.21285533905029297,0.0031732916831970215,0.0025766491889953613
1761132661364475100,5.56447509765625,0.15565776824951172,-0.011136233806610107,0.023661643266677856
1761132661374474200,5.57447412109375,0.07950115203857422,0.010816812515258789,0.0022363662719726562
1761132661384474400,5.584474365234375,0.008241653442382812,0.05067926645278931,-0.04551360011100769
1761132661394474200,5.59447412109375,-0.09412670135498047,0.04720240831375122,-0.09111979603767395
1761132661404474400,5.604474365234375,-0.11037921905517578,0.017850100994110107,-0.07563403248786926
1761132661414474200,5.61447412109375,-0.12199783325195312,-0.0222398042678833,-0.0974721610546112
1761132661424474400,5.624474365234375,-0.06202411651611328,-0.041032493114471436,-0.0560743510723114
1761132661434474200,5.63447412109375,-0.06206512451171875,-0.04132598638534546,-0.058022499084472656
1761132661444474400,5.644474365234375,0.0455322265625,-0.047531723976135254,0.02896323800086975
1761132661454474200,5.65447412109375,0.11723804473876953,-0.02709376811981201,0.0598321259021759
1761132661464474400,5.664474365234375,0.1698741912841797,0.01914161443710327,0.06548237800598145
1761132661474475000,5.67447509765625,0.15558147430419922,0.026143908500671387,0.059939682483673096
1761132661484475100,5.68447509765625,0.15103435516357422,-0.013770461082458496,0.04610246419906616
1761132661494475000,5.69447509765625,0.1370401382446289,0.00008016824722290039,-0.0104312002658844
1761132661504475100,5.70447509765625,0.06086444854736328,-0.013588488101959229,-0.08241957426071167
1761132661514475000,5.71447509765625,-0.0487518310546875,-0.08352124691009521,-0.10015088319778442
1761132661524475100,5.72447509765625,-0.1151876449584961,-0.075386643409729,-0.11553534865379333
1761132661534475300,5.734475341796875,-0.19122600555419922,-0.07220405340194702,-0.11065256595611572
1761132661544475100,5.74447509765625,-0.2506265640258789,-0.07542955875396729,-0.09775307774543762
1761132661554475300,5.754475341796875,-0.2478809356689453,-0.03914731740951538,-0.0727725625038147
1761132661564475100,5.76447509765625,-0.1926555633544922,0.02100139856338501,-0.018643617630004883
1761132661574474200,5.77447412109375,-0.13999652862548828,0.0450437068939209,0.012376189231872559
1761132661584474400,5.784474365234375,-0.0803365707397461,0.05198538303375244,0.05069667100906372
1761132661594474200,5.79447412109375,-0.0806894302368164,0.05556654930114746,0.04991710186004639
1761132661604474400,5.804474365234375,0.1104116439819336,0.05970883369445801,0.09605216979980469
1761132661614474200,5.81447412109375,0.1746196746826172,0.04459977149963379,0.10833875834941864
1761132661624474400,5.824474365234375,0.18389034271240234,0.01622295379638672,0.09464871883392334
1761132661634474200,5.83447412109375,0.15986347198486328,0.0409238338470459,0.06302863359451294
1761132661644474000,5.84447412109375,0.08818435668945312,0.06578713655471802,-0.0011791884899139404
1761132661654474200,5.85447412109375,0.08846759796142578,0.0627676248550415,-0.0008245408535003662
1761132661664474000,5.86447412109375,-0.030907630920410156,0.047058165073394775,-0.029569655656814575
1761132661674475000,5.87447509765625,-0.06172370910644531,0.03152036666870117,-0.03474435210227966
1761132661684475100,5.88447509765625,-0.06160926818847656,0.029205262660980225,-0.03750094771385193
1761132661694475300,5.894475341796875,-0.0041103363037109375,0.0301516056060791,-0.013904303312301636
1761132661704475100,5.90447509765625,0.01742076873779297,0.02941185235977173,0.00039711594581604004
1761132661714475300,5.914475341796875,0.02936840057373047,0.019388675689697266,-0.01584029197692871
1761132661724475100,5.92447509765625,0.007841110229492188,0.006746053695678711,-0.012252956628799438
1761132661734475000,5.93447509765625,-0.016050338745117188,0.03206813335418701,-0.01833382248878479
1761132661744475100,5.94447509765625,-0.008833885192871094,0.03571528196334839,0.020286738872528076
1761132661754475300,5.954475341796875,0.041439056396484375,-0.0010600686073303223,0.015341103076934814
1761132661764475100,5.96447509765625,0.10601329803466797,-0.03016960620880127,-0.009348481893539429
1761132661774474200,5.97447412109375,0.11072826385498047,-0.05937892198562622,-0.06323239207267761
1761132661784474400,5.984474365234375,0.12028694152832031,-0.10833317041397095,-0.08123108744621277
1761132661794474200,5.99447412109375,0.14426803588867188,-0.08837443590164185,-0.029498785734176636
1761132661804474400,6.004474365234375,0.15875911712646484,-0.06404662132263184,-0.0385591983795166
1761132661814474200,6.01447412109375,0.15419769287109375,-0.04743701219558716,-0.05075490474700928
1761132661824474400,6.024474365234375,0.0803232192993164,-0.026753604412078857,-0.09484905004501343
1761132661834474200,6.03447412109375,-0.01735210418701172,-0.028953731060028076,-0.11443716287612915
1761132661844474000,6.04447412109375,-0.11976051330566406,-0.00571674108505249,-0.09676438570022583
1761132661854441000,6.05444091796875,-0.2006549835205078,0.04353541135787964,0.007401823997497559
1761132661864407600,6.064407470703125,-0.22417259216308594,0.03800767660140991,0.08089451491832733
1761132661874375200,6.074375244140625,-0.16167163848876953,0.10103863477706909,0.1486089825630188
1761132661884341800,6.084341796875,-0.07541275024414062,0.10395514965057373,0.16176621615886688
1761132661894308600,6.09430859375,0.0058956146240234375,0.02748095989227295,0.15670739114284515
1761132661904275200,6.104275146484375,0.08234119415283203,-0.0214158296585083,0.09561897814273834
1761132661914241800,6.11424169921875,0.10853099822998047,-0.005270719528198242,0.043746381998062134
1761132661924208600,6.124208740234375,0.17072200775146484,0.03437376022338867,0.029231905937194824
1761132661934175200,6.13417529296875,0.2377767562866211,0.061309635639190674,0.01724180579185486
1761132661944141800,6.144141845703125,0.2211141586303711,0.0008522272109985352,-0.00300559401512146
1761132661954108700,6.154108642578125,0.1830129623413086,-0.04660862684249878,-0.004771769046783447
1761132661964075300,6.1640751953125,0.12836647033691406,-0.06749045848846436,-0.0206451416015625
1761132661974041000,6.174041015625,0.05709362030029297,-0.07269960641860962,-0.06437298655509949
1761132661984007700,6.184007568359375,-0.01885223388671875,-0.05002915859222412,-0.10238388180732727
1761132661993974500,6.193974609375,-0.05887413024902344,-0.02496349811553955,-0.08510810136795044
1761132662003941000,6.203941162109375,-0.04154205322265625,-0.015936672687530518,-0.06910175085067749
1761132662013907700,6.21390771484375,-0.03157520294189453,-0.0032051801681518555,-0.0525071918964386
1761132662023874300,6.223874267578125,0.006991386413574219,-0.03973501920700073,-0.0009955167770385742
1761132662033841200,6.233841064453125,0.026361465454101562,-0.07319831848144531,-0.0014632046222686768
1761132662043807700,6.243807861328125,0.048132896423339844,-0.07062602043151855,-0.03245830535888672
1761132662053774300,6.2537744140625,0.03161334991455078,-0.027467668056488037,-0.022584259510040283
1761132662063741200,6.2637412109375,-0.011164665222167969,-0.011584460735321045,0.04182758927345276
1761132662073708500,6.27370849609375,-0.04425621032714844,0.005526363849639893,0.1346852034330368
1761132662083675400,6.28367529296875,-0.0988321304321289,0.03639376163482666,0.12222510576248169
1761132662093642000,6.29364208984375,-0.14619731903076172,0.050267815589904785,0.1289617419242859
1761132662103608600,6.303608642578125,-0.1337118148803711,0.04505091905593872,0.07823307812213898
1761132662113575400,6.313575439453125,-0.16916561126708984,0.03315240144729614,0.04639926552772522
1761132662123542000,6.3235419921875,-0.15211009979248047,0.012858569622039795,0.013207852840423584
1761132662133508600,6.333508544921875,-0.1280527114868164,0.015646815299987793,0.000743865966796875
1761132662143475500,6.343475341796875,-0.0658864974975586,0.022719264030456543,0.012064516544342041
1761132662153475300,6.353475341796875,-0.0038976669311523438,0.03869223594665527,0.01854267716407776
1761132662163475200,6.36347509765625,0.09144115447998047,0.03001469373703003,0.027463018894195557
1761132662173474600,6.373474609375,0.1508016586303711,0.007775723934173584,-0.015808790922164917
1761132662183474400,6.383474365234375,0.15032291412353516,0.011831700801849365,-0.018080055713653564
1761132662193474300,6.393474365234375,0.19792652130126953,-0.07933217287063599,-0.05110159516334534
1761132662203474400,6.403474365234375,0.20742130279541016,-0.035985708236694336,-0.06500348448753357
1761132662213474300,6.413474365234375,0.16681194305419922,-0.05686885118484497,-0.07025796175003052
1761132662223474400,6.423474365234375,0.1359539031982422,-0.048386216163635254,-0.06375432014465332
1761132662233474300,6.433474365234375,0.10525989532470703,-0.039059460163116455,-0.047464221715927124
1761132662243474400,6.443474365234375,0.04829978942871094,-0.01844346523284912,0.0021554529666900635
1761132662253474300,6.453474365234375,-0.013422966003417969,-0.01957714557647705,0.03025341033935547
1761132662263474400,6.463474365234375,-0.0440216064453125,-0.013234615325927734,0.01615247130393982
1761132662273475000,6.47347509765625,-0.074676513671875,-0.018004775047302246,0.0007884800434112549
1761132662283475200,6.48347509765625,-0.07427310943603516,-0.02184116840362549,0.0008707940578460693
1761132662293475000,6.49347509765625,-0.09069633483886719,-0.02244710922241211,-0.0510789155960083
1761132662303475200,6.50347509765625,-0.08568382263183594,0.011437535285949707,-0.0674457848072052
1761132662313475000,6.51347509765625,-0.06645488739013672,-0.003859281539916992,-0.01558026671409607
1761132662323475200,6.52347509765625,-0.0736398696899414,-0.03306257724761963,0.05195826292037964
1761132662333475000,6.53347509765625,-0.05451488494873047,-0.009453177452087402,0.09027360379695892
1761132662343475200,6.54347509765625,-0.013831138610839844,0.01655256748199463,0.0954899936914444
1761132662353475000,6.55347509765625,0.04363250732421875,0.04957687854766846,0.09362734854221344
1761132662363475200,6.56347509765625,0.04601001739501953,0.003700852394104004,0.07711067795753479
1761132662373474600,6.573474609375,0.041179656982421875,-0.06830739974975586,0.06999042630195618
1761132662383474700,6.583474609375,0.0052204132080078125,-0.08253973722457886,0.05435498058795929
1761132662393474600,6.593474609375,0.02912616729736328,-0.05322551727294922,0.007474422454833984
1761132662403474700,6.603474609375,0.02909564971923828,-0.052322983741760254,0.009922027587890625
1761132662413474600,6.613474609375,0.02428436279296875,-0.039603471755981445,-0.014268338680267334
1761132662423474700,6.623474609375,-0.028306007385253906,-0.05450141429901123,-0.0013564825057983398
1761132662433474600,6.633474609375,-0.013831138610839844,-0.043566226959228516,-0.051588475704193115
1761132662443474400,6.643474365234375,0.029329299926757812,-0.04209864139556885,-0.09117496013641357
1761132662453474600,6.653474609375,0.041251182556152344,-0.06611502170562744,-0.0837293267250061
1761132662463474400,6.663474365234375,0.019580841064453125,-0.10121744871139526,-0.03484967350959778
1761132662473475300,6.673475341796875,0.07208824157714844,-0.058911800384521484,0.0036263763904571533
1761132662483475500,6.683475341796875,0.06954002380371094,-0.0068825483322143555,0.007199019193649292
1761132662493475300,6.693475341796875,0.04316234588623047,-0.006081223487854004,0.02794937789440155
1761132662503475500,6.703475341796875,-0.030908584594726562,-0.014252185821533203,0.053616032004356384
1761132662513475300,6.713475341796875,-0.14544963836669922,-0.015231728553771973,0.01862052083015442
1761132662523475500,6.723475341796875,-0.27420616149902344,-0.0035268068313598633,-0.012711405754089355
1761132662533475600,6.7334755859375,-0.3359251022338867,0.07259881496429443,-0.08093053102493286
1761132662543475500,6.743475341796875,-0.2925100326538086,0.0809856653213501,-0.052217572927474976
1761132662553475600,6.7534755859375,-0.21595478057861328,0.037618041038513184,-0.0029147565364837646
1761132662563475500,6.763475341796875,-0.11825370788574219,0.009903788566589355,0.08190062642097473
1761132662573474800,6.773474853515625,0.007901191711425781,-0.012566566467285156,0.08631427586078644
1761132662583475000,6.783474853515625,0.14828109741210938,0.0026112794876098633,-0.0011802613735198975
1761132662593474800,6.793474853515625,0.2670860290527344,-0.0009946823120117188,-0.07169194519519806
1761132662603474700,6.803474609375,0.32134342193603516,-0.03918111324310303,-0.06171350181102753
1761132662613474800,6.813474853515625,0.2872743606567383,-0.06057614088058472,0.04205578565597534
1761132662623474700,6.823474609375,0.18890380859375,-0.02521669864654541,0.10114669799804688
1761132662633474800,6.833474853515625,0.069366455078125,-0.014678120613098145,0.10695408284664154
1761132662643474700,6.843474609375,-0.06415843963623047,0.0405963659286499,0.07411856949329376
1761132662653474800,6.853474853515625,-0.17113876342773438,0.07714998722076416,0.010232612490653992
1761132662663474700,6.863474609375,-0.26149749755859375,0.05715632438659668,-0.005268692970275879
1761132662673475300,6.873475341796875,-0.26348400115966797,0.03420746326446533,0.009450733661651611
1761132662683475500,6.883475341796875,-0.10777759552001953,0.03584134578704834,0.05984039604663849
1761132662693475300,6.893475341796875,-0.012253761291503906,0.042763710021972656,0.061497047543525696
1761132662703475500,6.903475341796875,0.09029006958007812,0.029453039169311523,0.07169191539287567
1761132662713475300,6.913475341796875,0.14513778686523438,0.01043093204498291,0.07825350761413574
1761132662723475500,6.923475341796875,0.14502811431884766,0.011909127235412598,0.08001480996608734
1761132662733475300,6.933475341796875,0.18571186065673828,0.04808402061462402,0.04927389323711395
1761132662743475500,6.943475341796875,0.14518451690673828,0.022610783576965332,0.08097563683986664
1761132662753475300,6.953475341796875,0.1120595932006836,0.01437675952911377,0.09420594573020935
1761132662763475500,6.963475341796875,0.03840827941894531,0.026212573051452637,0.04587778449058533
1761132662773474600,6.973474609375,-0.027924537658691406,0.022529959678649902,0.021925315260887146
1761132662783474700,6.983474609375,-0.08222675323486328,0.03273606300354004,-0.006604969501495361
1761132662793474600,6.993474609375,-0.16289710998535156,0.024064064025878906,-0.05942291021347046
1761132662803474400,7.003474365234375,-0.1813983917236328,0.001778721809387207,-0.09795412421226501
1761132662813474600,7.013474609375,-0.18332958221435547,0.014819979667663574,-0.08377501368522644
1761132662823474400,7.023474365234375,-0.14244937896728516,0.02798771858215332,-0.08195021748542786
1761132662833474600,7.033474609375,-0.13301467895507812,0.04398679733276367,-0.03281465172767639
1761132662843474400,7.043474365234375,-0.07835769653320312,0.009602665901184082,0.008389085531234741
1761132662853474600,7.053474609375,-0.026294708251953125,-0.006154894828796387,0.04955977201461792
1761132662863474400,7.063474365234375,0.03284454345703125,-0.01131892204284668,0.006934106349945068
1761132662873475000,7.07347509765625,0.09435749053955078,-0.018617987632751465,-0.04282790422439575
1761132662883475000,7.083474853515625,0.13921833038330078,-0.04868936538696289,-0.03375720977783203
1761132662893475000,7.09347509765625,0.1387166976928711,-0.044164180755615234,-0.03469458222389221
1761132662903475200,7.10347509765625,0.1311788558959961,-0.00009655952453613281,0.027420133352279663
1761132662913475000,7.11347509765625,0.09026813507080078,0.05959498882293701,0.06659166514873505
1761132662923475200,7.12347509765625,0.04473590850830078,0.07251453399658203,0.09013456106185913
1761132662933475000,7.13347509765625,0.0016584396362304688,0.046537160873413086,0.05623015761375427
1761132662943475200,7.14347509765625,0.008830070495605469,0.04690563678741455,0.004505515098571777
1761132662953475000,7.15347509765625,0.08055305480957031,0.05734610557556152,0.0016410648822784424
1761132662963475200,7.16347509765625,0.14497661590576172,0.02792823314666748,0.03127408027648926
1761132662973474300,7.173474365234375,0.1686840057373047,-0.005918622016906738,0.06646211445331573
1761132662983474200,7.18347412109375,0.1374530792236328,-0.05474245548248291,0.03929002583026886
1761132662993474300,7.193474365234375,0.0728759765625,0.005285382270812988,-0.0487247109413147
1761132663003474200,7.20347412109375,-0.04662609100341797,-0.007820487022399902,-0.08864927291870117
1761132663013474300,7.213474365234375,-0.10380744934082031,0.016622424125671387,-0.08336648344993591
1761132663023474200,7.22347412109375,-0.12511062622070312,0.027004361152648926,-0.07106384634971619
1761132663033474300,7.233474365234375,-0.19203662872314453,0.019252896308898926,-0.050118446350097656
1761132663043474400,7.243474365234375,-0.24953365325927734,-0.004000425338745117,-0.06330135464668274
1761132663053474300,7.253474365234375,-0.2808341979980469,0.007789254188537598,-0.013584226369857788
1761132663063474200,7.26347412109375,-0.2979555130004883,0.028794050216674805,0.005752116441726685
1761132663073475000,7.27347509765625,-0.32012462615966797,0.018696904182434082,0.010219752788543701
1761132663083475200,7.28347509765625,-0.3090667724609375,-0.06543606519699097,-0.012738555669784546
1761132663093475000,7.29347509765625,-0.1522350311279297,-0.08470368385314941,-0.017227649688720703
1761132663103475200,7.30347509765625,0.1599559783935547,-0.007916510105133057,0.00424996018409729
1761132663113475000,7.31347509765625,0.46223926544189453,0.005111515522003174,0.13710978627204895
1761132663123475200,7.32347509765625,0.6882219314575195,-0.038793981075286865,0.2206728309392929
1761132663133475000,7.33347509765625,0.7663936614990234,-0.05884307622909546,0.2323235273361206
1761132663143475200,7.34347509765625,0.7184000015258789,-0.0644998550415039,0.1543109118938446
1761132663153475000,7.35347509765625,0.6616010665893555,-0.015819549560546875,0.06737002730369568
1761132663163475200,7.36347509765625,0.4522552490234375,0.04493272304534912,0.052310556173324585
1761132663173474300,7.373474365234375,0.2195444107055664,0.05249112844467163,0.014468729496002197
1761132663183474200,7.38347412109375,0.05909442901611328,0.08585238456726074,-0.03712493181228638
1761132663193474300,7.393474365234375,-0.041416168212890625,0.1433454155921936,-0.08743077516555786
1761132663203474200,7.40347412109375,-0.06055927276611328,0.13975465297698975,-0.14430707693099976
1761132663213474300,7.413474365234375,-0.060832977294921875,0.11201751232147217,-0.18955427408218384
1761132663223474200,7.42347412109375,-0.051944732666015625,0.03631281852722168,-0.18485340476036072
1761132663233474300,7.433474365234375,-0.02905750274658203,-0.013714194297790527,-0.14670702815055847
1761132663243474200,7.44347412109375,-0.008760452270507812,-0.06268751621246338,-0.1492244303226471
1761132663253474300,7.453474365234375,-0.07231712341308594,-0.12546473741531372,-0.13274332880973816
1761132663263474200,7.46347412109375,-0.09034442901611328,-0.09449338912963867,-0.18881535530090332
1761132663273475000,7.47347509765625,-0.089202880859375,-0.10367238521575928,-0.18580272793769836
1761132663283475000,7.483474853515625,-0.12639331817626953,-0.08392679691314697,-0.16874250769615173
1761132663293475000,7.49347509765625,-0.12288284301757812,-0.09793436527252197,-0.15250372886657715
1761132663303475200,7.50347509765625,-0.14812374114990234,-0.09058618545532227,-0.17105445265769958
1761132663313475000,7.51347509765625,-0.17584800720214844,-0.09965801239013672,-0.14311879873275757
1761132663323475200,7.52347509765625,-0.215667724609375,-0.0981454849243164,-0.07961678504943848
1761132663333475000,7.53347509765625,-0.21253013610839844,-0.09753477573394775,-0.04419949650764465
1761132663343475200,7.54347509765625,-0.23589134216308594,-0.0618131160736084,-0.0561642050743103
1761132663353475000,7.55347509765625,-0.14950180053710938,-0.01582169532775879,-0.05914098024368286
1761132663363475200,7.56347509765625,-0.06580829620361328,-0.02289760112762451,-0.0038180947303771973
1761132663373474300,7.573474365234375,0.06551647186279297,-0.038021206855773926,0.09517097473144531
1761132663383474200,7.58347412109375,0.17525577545166016,-0.0003216266632080078,0.13857132196426392
1761132663393474300,7.593474365234375,0.1941366195678711,0.0004724264144897461,0.2012023776769638
1761132663403474200,7.60347412109375,0.19412803649902344,-0.0004941225051879883,0.19820787012577057
1761132663413474300,7.613474365234375,0.06284523010253906,0.039054274559020996,0.22890613973140717
1761132663423474200,7.62347412109375,-0.044223785400390625,0.08886599540710449,0.16794686019420624
1761132663433474300,7.633474365234375,-0.0818014144897461,0.11898934841156006,0.14513197541236877
1761132663443474200,7.64347412109375,-0.17214584350585938,0.1137317419052124,0.15738563239574432
1761132663453474300,7.653474365234375,-0.19801044464111328,0.04028284549713135,0.15722273290157318
1761132663463474200,7.66347412109375,-0.1881570816040039,0.049944519996643066,0.04708421230316162
1761132663473475000,7.67347509765625,-0.1234273910522461,0.058991432189941406,-0.04812055826187134
1761132663483475200,7.68347509765625,-0.09483814239501953,0.03407907485961914,-0.03064444661140442
1761132663493475000,7.69347509765625,-0.0113372802734375,-0.008940935134887695,-0.052219510078430176
1761132663503475200,7.70347509765625,-0.011778831481933594,-0.00556635856628418,-0.05318295955657959
1761132663513475000,7.71347509765625,0.10019302368164062,-0.08555102348327637,-0.09645158052444458
1761132663523475200,7.72347509765625,0.13080120086669922,-0.12296867370605469,-0.0996178686618805
1761132663533475000,7.73347509765625,0.09697723388671875,-0.14245069026947021,-0.07719254493713379
1761132663543475200,7.74347509765625,0.070556640625,-0.08918619155883789,-0.09675687551498413
1761132663553475000,7.75347509765625,-0.029962539672851562,-0.060906410217285156,-0.09474688768386841
1761132663563475200,7.76347509765625,-0.03946208953857422,-0.03793489933013916,-0.10528197884559631
1761132663573474300,7.773474365234375,-0.02983570098876953,-0.0410003662109375,-0.06293320655822754
1761132663583474400,7.783474365234375,-0.025224685668945312,-0.06872093677520752,-0.014118283987045288
1761132663593474300,7.793474365234375,-0.008696556091308594,-0.09562385082244873,-0.009718865156173706
1761132663603474200,7.80347412109375,0.00301361083984375,-0.03558003902435303,-0.07087656855583191
1761132663613474300,7.813474365234375,0.0027208328247070312,-0.0324864387512207,-0.06911438703536987
1761132663623474200,7.82347412109375,0.03839302062988281,0.0013575553894042969,0.016673624515533447
1761132663633474300,7.833474365234375,0.05976390838623047,0.017715096473693848,0.020429551601409912
1761132663643474200,7.84347412109375,0.03325939178466797,-0.004881739616394043,0.0033996403217315674
1761132663653474300,7.853474365234375,0.0044002532958984375,-0.04737246036529541,-0.007644832134246826
1761132663663474200,7.86347412109375,-0.005236625671386719,-0.02091848850250244,-0.0016134977340698242
1761132663673475000,7.87347509765625,-0.033967018127441406,0.007712602615356445,-0.009090781211853027
1761132663683475200,7.88347509765625,-0.09623432159423828,0.027011990547180176,-0.011498779058456421
1761132663693475000,7.89347509765625,-0.09153079986572266,0.03735935688018799,0.012576371431350708
1761132663703475200,7.90347509765625,-0.0726022720336914,0.06090736389160156,0.03910094499588013
1761132663713475000,7.91347509765625,-0.0442962646484375,0.03563487529754639,0.04567825794219971
1761132663723475200,7.92347509765625,-0.004130363464355469,0.00890660285949707,0.06893077492713928
1761132663733475000,7.93347509765625,0.01932048797607422,-0.003698110580444336,0.0781872570514679
1761132663743475200,7.94347509765625,0.02851104736328125,0.02825760841369629,0.06821522116661072
1761132663753475000,7.95347509765625,-0.00048065185546875,0.015747666358947754,0.04542583227157593
1761132663763475200,7.96347509765625,-0.0796518325805664,0.007034659385681152,0.024660468101501465
1761132663773474600,7.973474609375,-0.13248062133789062,-0.011340856552124023,0.0013756155967712402
1761132663783474700,7.983474609375,-0.09444522857666016,0.012031197547912598,-0.06967517733573914
1761132663793474600,7.993474609375,-0.09257793426513672,0.008828878402709961,-0.0787750780582428
1761132663803474700,8.003474609375,-0.11499404907226562,-0.08493125438690186,-0.1100299060344696
1761132663813474600,8.013474609375,-0.13289356231689453,-0.11578118801116943,-0.13005268573760986
1761132663823474700,8.023474609375,0.0382537841796875,-0.20804691314697266,-0.11445629596710205
1761132663833474600,8.033474609375,0.2501792907714844,-0.1908491849899292,-0.005736827850341797
1761132663843474700,8.043474609375,0.170867919921875,-0.028402090072631836,-0.15388557314872742
1761132663853474600,8.053474609375,0.07746124267578125,0.07137835025787354,-0.12815400958061218
1761132663863474700,8.063474609375,-0.15212345123291016,-0.07598817348480225,0.05669519305229187
1761132663873475300,8.073475341796875,-0.3768625259399414,-0.07055473327636719,0.15511971712112427
1761132663883475500,8.083475341796875,-0.4437227249145508,0.09293174743652344,0.07262933254241943
1761132663893475600,8.0934755859375,-0.386749267578125,0.18951177597045898,0.06153479218482971
1761132663903475500,8.103475341796875,-0.2110137939453125,0.10944473743438721,0.17278262972831726
1761132663913475600,8.1134755859375,-0.009745597839355469,0.02637302875518799,0.18782107532024384
1761132663923475500,8.123475341796874,-0.05800342559814453,-0.06781923770904541,0.07626742124557495
