time,seconds_elapsed,z,y,x
1761132741158527700,0.08252783203125,1.1070841550827026,0.12128084897994995,-0.45661938190460205
1761132741178375700,0.102375732421875,1.0981436967849731,0.004462496377527714,-0.3206939995288849
1761132741198224000,0.122223876953125,1.0564857721328735,0.01988607458770275,-0.03344861418008804
1761132741218072600,0.142072509765625,0.9874486327171326,0.1067541241645813,0.18596713244915009
1761132741237920800,0.161920654296875,0.9040005803108215,0.18228520452976227,0.23355622589588165
1761132741257768700,0.181768798828125,0.7975119352340698,0.22422632575035095,0.1872871369123459
1761132741277616600,0.20161669921875,0.6984912157058716,0.21549120545387268,0.046306584030389786
1761132741297464800,0.22146484375,0.6165406107902527,0.12277788668870926,-0.119704470038414
1761132741317312800,0.241312744140625,0.5566189885139465,0.0432407520711422,-0.22983336448669434
1761132741337160700,0.26116064453125,0.5399092435836792,0.02088228613138199,-0.2544281482696533
1761132741357008600,0.281008544921875,0.519646942615509,-0.0007269170600920916,-0.19084890186786652
1761132741376856800,0.30085693359375,0.472908616065979,-0.03336811065673828,-0.05313318222761154
1761132741396705500,0.32070556640625,0.4289059638977051,-0.06683020293712616,0.10816501080989838
1761132741416553700,0.3405537109375,0.4147484600543976,-0.13072367012500763,0.2187822163105011
1761132741436402000,0.36040185546875,0.41832101345062256,-0.1706957370042801,0.24264979362487793
1761132741456249600,0.38024951171875,0.4256178140640259,-0.17426970601081848,0.26425203680992126
1761132741476097800,0.400097900390625,0.43784207105636597,-0.1434313952922821,0.22934728860855103
1761132741495945700,0.41994580078125,0.443075567483902,0.04802687466144562,0.007594460155814886
1761132741515794000,0.4397939453125,0.38253557682037354,0.0932648703455925,-0.22313040494918823
1761132741535641600,0.4596416015625,0.3549756407737732,0.10433464497327805,-0.13252900540828705
1761132741555489800,0.47948974609375,0.3104138970375061,0.12051185965538025,0.19940225780010223
1761132741575338800,0.4993388671875,0.18492500483989716,0.13616631925106049,0.47135135531425476
1761132741595186700,0.519186767578125,0.04200805351138115,0.21835386753082275,0.5076669454574585
1761132741615035000,0.539034912109375,-0.06992035359144211,0.2285413146018982,0.5271162986755371
1761132741634882800,0.5588828125,-0.16180333495140076,0.13882583379745483,0.6864251494407654
1761132741654730800,0.578730712890625,-0.22342762351036072,0.040175143629312515,0.8956636786460876
1761132741674578700,0.59857861328125,-0.2611408531665802,0.0038832586724311113,0.9289895296096802
1761132741694427000,0.618427001953125,-0.24755629897117615,-0.003181093605235219,0.6656113266944885
1761132741714274600,0.638274658203125,-0.15936201810836792,0.005501334555447102,0.2433561235666275
1761132741734123800,0.658123779296875,-0.02927449904382229,-0.019193336367607117,-0.21970926225185394
1761132741753971700,0.6779716796875,0.03627631813287735,-0.09722666442394257,-0.6659867763519287
1761132741773819600,0.697819580078125,0.09334573894739151,-0.18348680436611176,-0.9927381873130798
1761132741793667800,0.717667724609375,0.12526309490203857,-0.2536003887653351,-1.04814875125885
1761132741813515800,0.737515869140625,0.09011834859848022,-0.2769496738910675,-0.7652842998504639
1761132741833363700,0.75736376953125,0.006295963656157255,-0.20638646185398102,-0.3129578232765198
1761132741853211600,0.777211669921875,-0.047882068902254105,-0.09314753860235214,0.07062703371047974
1761132741873059800,0.797059814453125,-0.05008646100759506,0.02961863949894905,0.2921852469444275
1761132741892907500,0.816907470703125,-0.011776839382946491,0.17029407620429993,0.40382882952690125
1761132741912755700,0.836755615234375,0.05431508645415306,0.22203244268894196,0.4067239761352539
1761132741932604700,0.856604736328125,0.11351260542869568,0.17814742028713226,0.24185559153556824
1761132741952452600,0.87645263671875,0.1824779212474823,0.07621819525957108,0.01170838251709938
1761132741972300800,0.89630078125,0.27528896927833557,0.003642965806648135,-0.10685133934020996
1761132741992148700,0.916148681640625,0.3712458312511444,-0.06783781945705414,-0.14993104338645935
1761132742011996700,0.93599658203125,0.44146373867988586,-0.12785223126411438,-0.14196725189685822
1761132742031844900,0.955844970703125,0.4841585159301758,-0.061835192143917084,-0.08293875306844711
1761132742051692800,0.97569287109375,0.4793934226036072,0.0846199169754982,0.04057179391384125
1761132742071540700,0.995540771484375,0.46543487906455994,0.2627709209918976,0.2457403540611267
1761132742091388700,1.015388671875,0.4250015616416931,0.3445900082588196,0.4305316209793091
1761132742111238000,1.03523779296875,0.4046669006347656,0.3125481903553009,0.5279319882392883
1761132742131085600,1.05508544921875,0.5095576643943787,0.3581262230873108,0.3939158618450165
1761132742150933800,1.074933837890625,0.6013516187667847,0.20493084192276,0.11296563595533371
1761132742170782000,1.094781982421875,0.7251140475273132,0.05496211349964142,0.09368009120225906
1761132742190629600,1.114629638671875,0.7555193305015564,-0.07540382444858551,0.06699533760547638
1761132742210477800,1.134477783203125,0.7132565379142761,-0.1959475576877594,0.004349153488874435
1761132742230325800,1.15432568359375,0.6606535911560059,-0.167519673705101,-0.1090705469250679
1761132742250173700,1.174173583984375,0.5807698369026184,-0.151162788271904,-0.14300814270973206
1761132742270021600,1.194021728515625,0.5011497735977173,-0.23937155306339264,0.03880218788981438
1761132742289870800,1.213870849609375,0.4039207994937897,-0.3490893542766571,0.4076966643333435
1761132742309718800,1.23371875,0.3578229546546936,-0.2647436261177063,0.7121729254722595
1761132742329566700,1.253566650390625,0.3697556257247925,-0.05164976790547371,0.6477702260017395
1761132742349415000,1.273414794921875,0.3904188275337219,0.0738280713558197,0.24409039318561554
1761132742369262600,1.2932626953125,0.4136923849582672,0.1113680899143219,-0.2365470975637436
1761132742389110800,1.31311083984375,0.4093188941478729,0.07940264046192169,-0.667944073677063
1761132742408958700,1.332958740234375,0.39072519540786743,-0.018065186217427254,-1.0355415344238281
1761132742428806400,1.352806396484375,0.3810175955295563,-0.1856517791748047,-1.166783094406128
1761132742448654000,1.372654052734375,0.37498927116394043,-0.3088419437408447,-0.9561300277709961
1761132742468503300,1.39250341796875,0.3210693895816803,-0.26165518164634705,-0.4613720178604126
1761132742488351200,1.412351318359375,0.22404706478118896,-0.053203217685222626,0.12821587920188904
1761132742508199200,1.43219921875,0.10731349140405655,0.14469315111637115,0.4906699061393738
1761132742528047000,1.452047119140625,-0.006431928835809231,0.2727370858192444,0.5725868344306946
1761132742547895300,1.471895263671875,-0.10560266673564911,0.2437126338481903,0.47929030656814575
1761132742567743200,1.4917431640625,-0.17168213427066803,0.1669463962316513,0.32033592462539673
1761132742587591200,1.511591064453125,-0.18525202572345734,0.08194704353809357,0.17071311175823212
1761132742607439400,1.531439453125,-0.1781442016363144,0.009570121765136719,0.048146504908800125
1761132742627287000,1.551287109375,-0.21215732395648956,-0.02823898196220398,-0.012033814564347267
1761132742647136300,1.57113623046875,-0.31103911995887756,-0.013031121343374252,0.071285180747509
1761132742666984200,1.590984130859375,-0.42811891436576843,-0.00618349015712738,0.19252431392669678
1761132742686832000,1.61083203125,-0.507111668586731,-0.008971858769655228,0.2739342749118805
1761132742706680300,1.630680419921875,-0.5207452774047852,-0.07500064373016357,0.28301525115966797
1761132742726528300,1.6505283203125,-0.390764057636261,0.10921775549650192,0.059156257659196854
1761132742746376200,1.670376220703125,-0.260017454624176,0.17589807510375977,-0.312663197517395
1761132742766224100,1.69022412109375,-0.1583366096019745,0.08586350828409195,-0.2538885474205017
1761132742786072300,1.710072265625,-0.14227260649204254,0.009286340326070786,0.14625117182731628
1761132742805920000,1.729919921875,-0.24838891625404358,0.016028132289648056,0.4537562429904938
1761132742825768200,1.749768310546875,-0.3752818703651428,0.1422533243894577,0.4222983419895172
1761132742845617400,1.769617431640625,-0.4576469957828522,0.14285898208618164,0.3454406261444092
1761132742865465000,1.789465087890625,-0.5356672406196594,0.02236960083246231,0.4160573482513428
1761132742885313300,1.809313232421875,-0.6466898918151855,-0.04837612807750702,0.5378285050392151
1761132742905161200,1.8291611328125,-0.7011273503303528,-0.022744759917259216,0.5364493727684021
1761132742925009200,1.849009033203125,-0.6388707756996155,0.06655571609735489,0.2879228889942169
1761132742944857000,1.868857177734375,-0.5351054668426514,0.09232067316770554,-0.13992281258106232
1761132742964705300,1.888705322265625,-0.4349832236766815,0.028209106996655464,-0.6058716773986816
1761132742984553200,1.90855322265625,-0.36535266041755676,-0.1198519617319107,-1.036694049835205
1761132743004401200,1.928401123046875,-0.2943476438522339,-0.2749147117137909,-1.3623675107955933
1761132743024250400,1.94825048828125,-0.21246181428432465,-0.38307106494903564,-1.3766050338745117
1761132743044098000,1.96809814453125,-0.1986386626958847,-0.3626377582550049,-0.9584852457046509
1761132743063946200,1.9879462890625,-0.25818371772766113,-0.21480821073055267,-0.355002760887146
1761132743083794200,2.007794189453125,-0.3232548236846924,-0.07514630258083344,0.17117434740066528
1761132743103642000,2.02764208984375,-0.29535534977912903,0.0880613774061203,0.3801738917827606
1761132743123490000,2.047489990234375,-0.1863807886838913,0.20541353523731232,0.3632340133190155
1761132743143338200,2.067338134765625,-0.01607380621135235,0.2165732979774475,0.22137100994586945
1761132743163186400,2.0871865234375,0.1710333377122879,0.15345536172389984,-0.023028535768389702
1761132743183034000,2.1070341796875,0.301669716835022,0.08438822627067566,-0.21933633089065552
1761132743202883300,2.12688330078125,0.3639541566371918,0.023709289729595184,-0.2792523205280304
1761132743222731000,2.14673095703125,0.36523741483688354,-0.041346028447151184,-0.22089694440364838
1761132743242579200,2.1665791015625,0.38611140847206116,-0.0075145382434129715,-0.04776898771524429
1761132743262427100,2.18642724609375,0.4339083731174469,0.07291562855243683,0.15768156945705414
1761132743282275000,2.206275146484375,0.4712633490562439,0.17934124171733856,0.34167689085006714
1761132743302123300,2.226123291015625,0.45817962288856506,0.24106864631175995,0.46548575162887573
1761132743321971200,2.24597119140625,0.42164307832717896,0.25688084959983826,0.5678364038467407
1761132743341819400,2.2658193359375,0.4158362150192261,0.21237339079380035,0.6639320850372314
1761132743361667000,2.2856669921875,0.5065692663192749,0.22482280433177948,0.5368775725364685
1761132743381515300,2.305515380859375,0.6922035813331604,0.22805434465408325,0.11889650672674179
1761132743401364000,2.325364013671875,0.9460961222648621,0.2632844150066376,-0.26581650972366333
1761132743421212200,2.345212158203125,1.1192773580551147,0.24705679714679718,-0.6075640320777893
1761132743441060600,2.365060546875,1.1580654382705688,0.0359833762049675,-0.6122849583625793
1761132743460908500,2.384908447265625,1.03672194480896,-0.08939020335674286,-0.23266758024692535
1761132743480756500,2.404756591796875,0.8088053464889526,-0.09749297052621841,0.2443050891160965
1761132743500604700,2.424604736328125,0.6346014738082886,-0.10346461087465286,0.694176197052002
1761132743520452600,2.44445263671875,0.6027781367301941,-0.0751776173710823,1.066751480102539
1761132743540300500,2.464300537109375,0.6693492531776428,0.012329483404755592,1.0137876272201538
1761132743560148500,2.4841484375,0.7950724363327026,0.17977602779865265,0.47146493196487427
1761132743579996700,2.50399658203125,0.9217734932899475,0.3323926329612732,-0.2819056212902069
1761132743599845600,2.523845703125,1.0038398504257202,0.3561645448207855,-0.9696907997131348
1761132743619693600,2.543693603515625,1.0102874040603638,0.1854470819234848,-1.4145687818527222
1761132743639541500,2.56354150390625,1.0439863204956055,-0.07719925791025162,-1.5621596574783325
1761132743659389400,2.583389404296875,1.0733469724655151,-0.2929255962371826,-1.2826594114303589
1761132743679237600,2.603237548828125,1.0695593357086182,-0.34368813037872314,-0.740147054195404
1761132743699085600,2.62308544921875,0.9816378951072693,-0.18052938580513,-0.10809410363435745
1761132743718933500,2.64293359375,0.8198205232620239,-0.005688736215233803,0.2613982558250427
1761132743738781400,2.662781494140625,0.6914045214653015,0.06684640049934387,0.36181023716926575
1761132743758629600,2.682629638671875,0.6220289468765259,0.0638035461306572,0.37863805890083313
1761132743778478600,2.702478515625,0.5488001704216003,0.05242621898651123,0.3375660479068756
1761132743798326500,2.722326416015625,0.49910277128219604,0.028623249381780624,0.31291118264198303
1761132743818174700,2.7421748046875,0.5390737652778625,-0.03433923050761223,0.3185693323612213
1761132743838022400,2.7620224609375,0.6053943634033203,-0.09361501783132553,0.3804776966571808
1761132743857870600,2.78187060546875,0.617923378944397,-0.11989585310220718,0.43767303228378296
1761132743877718800,2.80171875,0.5745960474014282,-0.06405092775821686,0.4576505422592163
1761132743897566500,2.82156640625,0.5608957409858704,-0.00997774675488472,0.4830705225467682
1761132743917414700,2.84141455078125,0.5843134522438049,-0.028048239648342133,0.48321419954299927
1761132743937262600,2.8612626953125,0.6712128520011902,-0.025716058909893036,0.3700181543827057
1761132743957110500,2.881110595703125,0.7913478016853333,0.08504441380500793,0.010367627255618572
1761132743976959500,2.90095947265625,0.8182797431945801,-0.04484523832798004,-0.2998720109462738
1761132743996807700,2.9208076171875,0.830163300037384,-0.11587012559175491,-0.2694156765937805
1761132744016655600,2.940655517578125,0.6848359107971191,-0.19301699101924896,0.018626630306243896
1761132744036503600,2.960503662109375,0.4988762438297272,-0.176995649933815,0.37483614683151245
1761132744056351700,2.980351806640625,0.3617536127567291,-0.08101005852222443,0.592471718788147
1761132744076199400,3.000199462890625,0.26736781001091003,0.03921891376376152,0.7394021153450012
1761132744096047600,3.020047607421875,0.22327610850334167,0.13325688242912292,0.8116670250892639
1761132744115895600,3.0398955078125,0.2104908674955368,0.293751060962677,0.5526553988456726
1761132744135743700,3.05974365234375,0.283594012260437,0.4655265808105469,0.020553696900606155
1761132744155592700,3.0795927734375,0.5537989735603333,0.5227482914924622,-0.4591035842895508
1761132744175440600,3.099440673828125,0.8436596989631653,0.37170207500457764,-0.9074528217315674
1761132744195288600,3.11928857421875,1.0317658185958862,0.05522463098168373,-1.1712530851364136
1761132744215136500,3.139136474609375,1.102905511856079,-0.23459979891777039,-1.0684261322021484
1761132744234984700,3.158984619140625,1.1223597526550293,-0.3892281949520111,-0.7697622179985046
1761132744254832400,3.178832275390625,1.125113844871521,-0.4191189706325531,-0.3539203405380249
1761132744274680600,3.1986806640625,1.1082381010055542,-0.2698782682418823,0.07474840432405472
1761132744294528500,3.218528564453125,1.1344488859176636,-0.01728709414601326,0.39618152379989624
1761132744314376700,3.238376708984375,1.2328983545303345,0.20108112692832947,0.4313258230686188
1761132744334224400,3.258224365234375,1.322701334953308,0.33541062474250793,0.3215468227863312
1761132744354073600,3.278073486328125,1.3996615409851074,0.30622369050979614,0.13776972889900208
1761132744373921500,3.297921630859375,1.4527937173843384,0.20917107164859772,-0.07771966606378555
1761132744393769500,3.31776953125,1.4814141988754272,0.13907410204410553,-0.20240116119384766
1761132744413617700,3.33761767578125,1.516471028327942,0.16313643753528595,-0.16988569498062134
1761132744433465000,3.357465087890625,1.56552255153656,0.1731189340353012,0.09620869904756546
1761132744453313000,3.37731298828125,1.628467082977295,0.16172273457050323,0.45303916931152344
1761132744473161000,3.397160888671875,1.6152942180633545,0.1011866107583046,0.686086893081665
1761132744493009200,3.417009033203125,1.566552758216858,0.045046333223581314,0.8179992437362671
1761132744512857000,3.436857177734375,1.5722205638885498,0.2045448124408722,0.700066089630127
1761132744532706000,3.4567060546875,1.5338817834854126,0.4031963348388672,0.18869982659816742
1761132744552554200,3.47655419921875,1.5108565092086792,0.37413376569747925,0.20217148959636688
1761132744572402000,3.49640185546875,1.4898715019226074,0.28746137022972107,0.6044831871986389
1761132744592250000,3.51625,1.4382328987121582,0.279633492231369,0.8225861191749573
1761132744612098000,3.53609814453125,1.4061455726623535,0.30736711621284485,0.70524001121521
1761132744631946000,3.555946044921875,1.434894323348999,0.28276166319847107,0.5012435913085938
1761132744651794000,3.5757939453125,1.439351201057434,0.09745916724205017,0.26648184657096863
1761132744671642000,3.59564208984375,1.3847603797912598,-0.08064718544483185,-0.05851196497678757
1761132744691490000,3.615489990234375,1.2746293544769287,-0.0459170937538147,-0.39180752635002136
1761132744711338000,3.635337890625,1.1222522258758545,0.1189449280500412,-0.6074897050857544
1761132744731187200,3.655187255859375,0.9785243272781372,0.26993462443351746,-0.653118371963501
1761132744751035000,3.675034912109375,0.8243277072906494,0.34824803471565247,-0.7694455981254578
1761132744770883000,3.694883056640625,0.7063009142875671,0.1626395881175995,-0.7769699096679688
1761132744790731000,3.71473095703125,0.658578097820282,-0.06348223239183426,-0.7272486686706543
1761132744810579000,3.734578857421875,0.6738042831420898,-0.22749800980091095,-0.5777508616447449
1761132744830427100,3.75442724609375,0.6423062682151794,-0.2832055389881134,-0.31488344073295593
1761132744850275000,3.774275146484375,0.5681052207946777,-0.2204202562570572,0.01698225922882557
1761132744870123300,3.794123291015625,0.4605969190597534,-0.0901804268360138,0.30456942319869995
1761132744889971000,3.813970947265625,0.41156911849975586,0.002819265006110072,0.48384249210357666
1761132744909820200,3.833820068359375,0.4109964966773987,0.06540527939796448,0.45778021216392517
1761132744929668000,3.853668212890625,0.43453526496887207,0.017308685928583145,0.25346022844314575
1761132744949516000,3.87351611328125,0.48296627402305603,-0.11436835676431656,-0.016506262123584747
1761132744969364200,3.8933642578125,0.559914767742157,-0.2384955883026123,-0.278628945350647
1761132744989212200,3.913212158203125,0.6060572862625122,-0.3016590178012848,-0.37739497423171997
1761132745009060000,3.93306005859375,0.6224533319473267,-0.3109798729419708,-0.3255650997161865
1761132745028908000,3.952907958984375,0.6221063137054443,-0.24859972298145294,-0.18094095587730408
1761132745048756200,3.972756103515625,0.5891337394714355,-0.18531973659992218,0.004363412037491798
1761132745068604000,3.99260400390625,0.5709946155548096,-0.09848086535930634,0.12435385584831238
1761132745088451000,4.012451171875,0.5608935952186584,-0.02599306032061577,0.1844041496515274
1761132745108300000,4.032300048828125,0.5990451574325562,-0.016566501930356026,0.23415060341358185
1761132745128148000,4.05214794921875,0.6909425854682922,0.08039630949497223,0.16668646037578583
1761132745147996200,4.07199609375,0.7000048756599426,0.16423213481903076,0.004202024079859257
1761132745167844000,4.091843994140625,0.689437985420227,0.17184622585773468,-0.012489283457398415
1761132745187692300,4.1116923828125,0.7102742195129395,0.16890780627727509,-0.03234568238258362
1761132745207540000,4.1315400390625,0.7557884454727173,0.06293758749961853,0.09479809552431107
1761132745227388200,4.15138818359375,0.8771964311599731,-0.014997873455286026,0.26684197783470154
1761132745247236000,4.171236083984375,0.9568772315979004,-0.004468319937586784,0.35785815119743347
1761132745267084000,4.191083984375,0.9307454824447632,-0.009097692556679249,0.493688702583313
1761132745286933200,4.210933349609375,0.7966396808624268,-0.05926172062754631,0.7557612061500549
1761132745306781000,4.230781005859375,0.7006588578224182,-0.060008637607097626,1.037074089050293
1761132745326629000,4.250629150390625,0.7291656136512756,-0.02072322368621826,1.200433611869812
1761132745346477000,4.27047705078125,0.8743820786476135,0.08287716656923294,1.0484638214111328
1761132745366325200,4.2903251953125,1.0166515111923218,0.1775272786617279,0.5475212335586548
1761132745386173000,4.3101728515625,1.023254156112671,0.28095269203186035,-0.16885732114315033
1761132745406021000,4.330021240234375,1.0539072751998901,0.3699365556240082,-0.7504128217697144
1761132745425869000,4.349869140625,1.0951056480407715,0.37324586510658264,-1.1217554807662964
1761132745445717200,4.36971728515625,1.101414442062378,0.2468937486410141,-1.255506992340088
1761132745465565200,4.389565185546875,1.2536243200302124,0.0706917867064476,-1.1319425106048584
1761132745485414100,4.4094140625,1.4285691976547241,-0.07953061163425446,-0.9176558256149292
1761132745505262300,4.429262451171875,1.580037236213684,-0.2308485358953476,-0.6617820858955383
1761132745525110300,4.4491103515625,1.6882681846618652,-0.3305378258228302,-0.2384672909975052
1761132745544958500,4.46895849609375,1.7182815074920654,-0.27103734016418457,0.19559542834758759
1761132745564806100,4.48880615234375,1.7471529245376587,-0.17786230146884918,0.5214644074440002
1761132745584654300,4.508654296875,1.8333081007003784,-0.06436260789632797,0.5661722421646118
1761132745604502300,4.528502197265625,1.8898911476135254,0.01817702129483223,0.3865513205528259
1761132745624350200,4.54835009765625,1.923457145690918,0.018766295164823532,0.12000410258769989
1761132745644198400,4.568198486328125,1.9720549583435059,0.018678124994039536,-0.07424404472112656
1761132745664047400,4.58804736328125,2.0407536029815674,0.03285255283117294,-0.15117760002613068
1761132745683895300,4.607895263671875,2.099898099899292,0.04825687035918236,-0.1518256813287735
1761132745703743200,4.6277431640625,2.120326280593872,0.14122901856899261,-0.0627216249704361
1761132745723591400,4.64759130859375,2.1522316932678223,0.23883207142353058,0.08967024087905884
1761132745743439400,4.667439453125,2.199153184890747,0.3263716399669647,0.22065369784832
1761132745763287300,4.687287353515625,2.2497332096099854,0.3414400815963745,0.2844362258911133
1761132745783135500,4.707135498046875,2.2885935306549072,0.2818313539028168,0.2842230200767517
1761132745802983200,4.726983154296875,2.3156285285949707,0.22647221386432648,0.3033725917339325
1761132745822831400,4.746831298828125,2.3377740383148193,0.22408200800418854,0.3555079698562622
1761132745842680300,4.766680419921875,2.3599064350128174,0.2096342295408249,0.4242243468761444
1761132745862528300,4.7865283203125,2.4127440452575684,0.2363342046737671,0.3894554376602173
1761132745882376400,4.80637646484375,2.4917125701904297,0.2986351549625397,0.12120959907770157
1761132745902224400,4.826224365234375,2.62215518951416,0.3899425268173218,-0.3420419991016388
1761132745922072300,4.846072265625,2.6240525245666504,0.19471241533756256,-0.7257227897644043
1761132745941920300,4.865920166015625,2.4689972400665283,-0.19966037571430206,-0.5472665429115295
1761132745961768400,4.8857685546875,2.209469795227051,-0.40113988518714905,-0.12337473034858704
1761132745981616400,4.905616455078125,1.947242021560669,-0.20863653719425201,0.22438092529773712
1761132746001464300,4.92546435546875,1.8139691352844238,0.10838387906551361,0.4339577257633209
1761132746021312300,4.945312255859375,1.7486355304718018,0.3379359543323517,0.48012733459472656
1761132746041161200,4.9651611328125,1.682560682296753,0.3714331090450287,0.4093330502510071
1761132746061009400,4.985009521484375,1.59038507938385,0.29942741990089417,0.351967453956604
1761132746080857300,5.004857421875,1.5229190587997437,0.28733018040657043,0.29624277353286743
1761132746100705300,5.024705322265625,1.4752886295318604,0.34333091974258423,0.1277339905500412
1761132746120553200,5.04455322265625,1.4595015048980713,0.4027910530567169,-0.1553003042936325
1761132746140401400,5.0644013671875,1.4738103151321411,0.4628877341747284,-0.3934507966041565
1761132746160249300,5.084249267578125,1.5143574476242065,0.5029966831207275,-0.4642409682273865
1761132746180097300,5.10409716796875,1.5602858066558838,0.48492684960365295,-0.5069751739501953
1761132746199945200,5.1239453125,1.5768622159957886,0.38759100437164307,-0.6360640525817871
1761132746219794200,5.143794189453125,1.576462745666504,0.2769703269004822,-0.6774502396583557
1761132746239642400,5.163642333984375,1.5698091983795166,0.2127777487039566,-0.5537158846855164
1761132746259490300,5.183490234375,1.5441251993179321,0.17612624168395996,-0.3907693028450012
1761132746279338200,5.203338134765625,1.5112260580062866,0.13438168168067932,-0.23756253719329834
1761132746299186200,5.223186279296875,1.4856704473495483,0.07955118268728256,-0.07723480463027954
1761132746319034400,5.243034423828125,1.4913512468338013,-0.009315818548202515,0.01628176122903824
1761132746338882300,5.26288232421875,1.4912583827972412,-0.06263795495033264,0.030642732977867126
1761132746358730200,5.282730224609375,1.445145845413208,-0.07347765564918518,0.04739502817392349
1761132746378578400,5.302578369140625,1.370545506477356,-0.04136756807565689,0.10941538959741592
1761132746398427100,5.32242724609375,1.2910540103912354,-0.016188528388738632,0.1764829009771347
1761132746418275300,5.342275390625,1.19040048122406,-0.03306586667895317,0.24598826467990875
1761132746438123800,5.362123779296875,1.0839486122131348,-0.07381770014762878,0.3110390305519104
1761132746457971700,5.3819716796875,0.993877649307251,-0.12320687621831894,0.3504162132740021
1761132746477819600,5.401819580078125,0.9324767589569092,-0.13521157205104828,0.34570279717445374
1761132746497667800,5.421667724609375,0.8950759172439575,-0.13257242739200592,0.2909426987171173
1761132746517515800,5.441515869140625,0.866882860660553,-0.14129149913787842,0.19494332373142242
1761132746537363700,5.46136376953125,0.8350307941436768,-0.17136353254318237,0.07579078525304794
1761132746557211600,5.481211669921875,0.7762660384178162,-0.1947506070137024,-0.004809858277440071
1761132746577059800,5.501059814453125,0.6761845350265503,-0.20596137642860413,-0.04120582714676857
1761132746596908800,5.52090869140625,0.5668144226074219,-0.2183961272239685,-0.046353779733181
1761132746616756700,5.5407568359375,0.4494841694831848,-0.19396264851093292,-0.014513209462165833
1761132746636604700,5.560604736328125,0.3751603960990906,-0.1584031730890274,0.1093362420797348
1761132746656452600,5.58045263671875,0.33566999435424805,-0.1492827981710434,0.2718847095966339
1761132746676300800,5.60030078125,0.3113155961036682,-0.1761525571346283,0.4828791320323944
1761132746696148700,5.620148681640625,0.2726457118988037,-0.16187244653701782,0.7018595933914185
1761132746715996700,5.63999658203125,0.22433353960514069,-0.12235354632139206,0.8793411254882812
1761132746735844600,5.6598447265625,0.23611979186534882,0.011557966470718384,0.7022803425788879
1761132746755692800,5.67969287109375,0.24212120473384857,0.0025560089852660894,0.42065683007240295
1761132746775540500,5.69954052734375,0.3014844059944153,-0.09662283211946487,0.3096829652786255
1761132746795389700,5.7193896484375,0.32326456904411316,-0.22817033529281616,0.32554399967193604
1761132746815238000,5.73923779296875,0.2506444454193115,-0.29708778858184814,0.46795469522476196
1761132746835085600,5.75908544921875,0.153995543718338,-0.2844778001308441,0.609998345375061
1761132746854933800,5.778933837890625,0.0430445559322834,-0.1929396688938141,0.7052825689315796
1761132746874781700,5.79878173828125,-0.04744181036949158,-0.18147239089012146,0.8113348484039307
1761132746894629600,5.818629638671875,-0.17012394964694977,-0.2744428515434265,0.8308356404304504
1761132746914477600,5.8384775390625,-0.28229162096977234,-0.2832266688346863,0.7246068120002747
1761132746934325800,5.85832568359375,-0.2865249514579773,-0.18795758485794067,0.5390003323554993
1761132746954173700,5.878173583984375,-0.17912796139717102,-0.0861751064658165,0.3414575457572937
1761132746974022700,5.898022705078125,-0.0808781310915947,-0.03038567677140236,0.12288380414247513
1761132746993870800,5.917870849609375,0.005568694788962603,0.037042926996946335,-0.15727780759334564
1761132747013718500,5.937718505859375,0.09626075625419617,0.10651598870754242,-0.44442203640937805
1761132747033566700,5.957566650390625,0.18997038900852203,0.0983802005648613,-0.7625203728675842
1761132747053414700,5.97741455078125,0.2563704252243042,0.031046230345964432,-1.0843722820281982
1761132747073262600,5.9972626953125,0.2725810706615448,-0.14717485010623932,-1.3024195432662964
1761132747093110800,6.01711083984375,0.19765467941761017,-0.37787893414497375,-1.3250277042388916
1761132747112958700,6.036958740234375,0.060248784720897675,-0.5224968194961548,-1.0322450399398804
1761132747132806700,6.056806640625,-0.09685277938842773,-0.4707029163837433,-0.5006731152534485
1761132747152654600,6.076654541015625,-0.20903554558753967,-0.3295935392379761,-0.002072459552437067
1761132747172503800,6.09650390625,-0.24723364412784576,-0.18401369452476501,0.32475799322128296
1761132747192351500,6.1163515625,-0.22271504998207092,-0.11623106151819229,0.4383562207221985
1761132747212199700,6.13619970703125,-0.1675441563129425,-0.1279636025428772,0.3792420029640198
1761132747232047900,6.1560478515625,-0.12095708400011063,-0.16461072862148285,0.23029020428657532
1761132747251895600,6.1758955078125,-0.0612768679857254,-0.18050983548164368,0.0522579625248909
1761132747271743700,6.19574365234375,-0.0025406526401638985,-0.2310851365327835,-0.08789640665054321
1761132747291591700,6.215591796875,0.03334102779626846,-0.17443715035915375,0.005520952399820089
1761132747311440000,6.23543994140625,0.0370185486972332,-0.01157655194401741,0.27858591079711914
1761132747331287600,6.25528759765625,0.022268032655119896,0.0850718766450882,0.5226329565048218
1761132747351135700,6.2751357421875,0.07472379505634308,0.1287514567375183,0.48977550864219666
1761132747370984700,6.294984619140625,0.15956944227218628,0.19052863121032715,0.29532110691070557
1761132747390832600,6.31483251953125,0.21031180024147034,0.2551974952220917,0.13055741786956787
1761132747410680800,6.334680908203125,0.2564564347267151,0.3358372151851654,-0.01186196506023407
1761132747430528300,6.3545283203125,0.28842878341674805,0.36461707949638367,-0.12960071861743927
1761132747450376200,6.374376220703125,0.27971044182777405,0.32146623730659485,-0.24756869673728943
1761132747470224100,6.39422412109375,0.24415791034698486,0.2844023108482361,-0.27704212069511414
1761132747490072300,6.414072265625,0.12566730380058289,0.17519275844097137,-0.007500915788114071
1761132747509920000,6.433919921875,0.04237500950694084,0.19350509345531464,0.3002500534057617
1761132747529768200,6.453768310546875,0.18601073324680328,0.37235233187675476,0.21020102500915527
1761132747549617400,6.473617431640625,0.41222497820854187,0.3055592179298401,-0.1277100145816803
1761132747569465000,6.493465087890625,0.49068260192871094,0.15431292355060577,-0.26580771803855896
1761132747589313300,6.513313232421875,0.27647653222084045,0.017317840829491615,-0.11178871989250183
1761132747609161200,6.5331611328125,0.05307534709572792,-0.09641172736883163,0.1312994360923767
1761132747629009200,6.553009033203125,0.007665065582841635,-0.24888813495635986,0.18879887461662292
1761132747648857300,6.572857421875,0.0255002249032259,-0.4836677610874176,0.24535797536373138
1761132747668705300,6.592705322265625,0.0005364325479604304,-0.5540258884429932,0.40640565752983093
1761132747688553200,6.61255322265625,-0.11220573633909225,-0.36312970519065857,0.589110255241394
1761132747708401200,6.632401123046875,-0.22714859247207642,-0.06431557983160019,0.5114006996154785
1761132747728249300,6.652249267578125,-0.29847145080566406,0.06364326179027557,0.2218654304742813
1761132747748098000,6.67209814453125,-0.31844624876976013,0.06520286947488785,-0.023502331227064133
1761132747767946200,6.6919462890625,-0.3091832995414734,0.06063047796487808,-0.18776123225688934
1761132747787794400,6.71179443359375,-0.31132981181144714,0.02017652429640293,-0.2985181212425232
1761132747807642000,6.73164208984375,-0.3459335267543793,-0.05725705996155739,-0.36217573285102844
1761132747827490300,6.751490234375,-0.3617001175880432,-0.10608882457017899,-0.2812293469905853
1761132747847338200,6.771338134765625,-0.3823135793209076,-0.1418943703174591,-0.17907096445560455
1761132747867186400,6.7911865234375,-0.41913411021232605,-0.17841941118240356,-0.12481982260942459
1761132747887034000,6.8110341796875,-0.4708135724067688,-0.15782278776168823,-0.07720855623483658
1761132747906882300,6.83088232421875,-0.47121864557266235,-0.13420608639717102,-0.024666396901011467
1761132747926730200,6.850730224609375,-0.4796179533004761,-0.12911935150623322,0.02318654954433441
1761132747946579200,6.8705791015625,-0.48516616225242615,-0.11641722172498703,0.06765775382518768
1761132747966427400,6.890427490234375,-0.5004240870475769,-0.019866621121764183,0.21300628781318665
1761132747986275000,6.910275146484375,-0.5007327198982239,-0.010119968093931675,0.24855370819568634
1761132748006123300,6.930123291015625,-0.5211830735206604,-0.032400064170360565,0.23401306569576263
1761132748025971200,6.94997119140625,-0.5585852861404419,-0.08549807220697403,0.21512643992900848
1761132748045819400,6.9698193359375,-0.5975565314292908,-0.152314692735672,0.15087127685546875
1761132748065667000,6.9896669921875,-0.6492936015129089,-0.23982827365398407,0.10166055709123611
1761132748085515300,7.009515380859375,-0.6623640656471252,-0.1925070434808731,0.1640123873949051
