time,seconds_elapsed,z,y,x
1761133401826250200,0.075250244140625,0.7355828881263733,0.15954287350177765,0.07985753566026688
1761133401846097200,0.09509716796875,0.7139506340026855,0.12340943515300751,-0.0223682913929224
1761133401865944300,0.1149443359375,0.7067278623580933,0.08307869732379913,-0.20654375851154327
1761133401885791200,0.134791259765625,0.6708368062973022,0.04776524379849434,-0.3557516634464264
1761133401905638100,0.15463818359375,0.6145824193954468,0.020924771204590797,-0.4123111963272095
1761133401925486300,0.174486328125,0.6111714243888855,0.09733759611845016,-0.393995076417923
1761133401945333200,0.194333251953125,0.6491987705230713,0.1579824984073639,-0.3565610647201538
1761133401965180400,0.214180419921875,0.7343541979789734,0.2876453399658203,-0.2917443513870239
1761133401985027300,0.23402734375,0.7587106823921204,0.27142125368118286,-0.2602652907371521
1761133402004874200,0.253874267578125,0.7054694294929504,0.20476016402244568,-0.23582887649536133
1761133402024721400,0.273721435546875,0.5955835580825806,0.13955165445804596,-0.24637815356254578
1761133402044568300,0.293568359375,0.4676210880279541,-0.0465095080435276,-0.2736653685569763
1761133402064416500,0.31341650390625,0.4457293450832367,-0.11914381384849548,-0.272102952003479
1761133402084263400,0.333263427734375,0.4837718605995178,-0.02312583476305008,-0.28155517578125
1761133402104110000,0.353110107421875,0.5799111723899841,0.17288526892662048,-0.26932838559150696
1761133402123957000,0.37295703125,0.6492632031440735,0.3099074065685272,-0.19197534024715424
1761133402143804200,0.39280419921875,0.7137359380722046,0.3951002359390259,-0.05812321603298187
1761133402163651000,0.412651123046875,0.8190699219703674,0.4965561628341675,0.06590872257947922
1761133402183498000,0.432498046875,0.9395514726638794,0.6003753542900085,0.18596389889717102
1761133402203345200,0.45234521484375,1.0721946954727173,0.7504947185516357,0.24358755350112915
1761133402223192800,0.47219287109375,1.1390622854232788,0.797313392162323,0.1841868758201599
1761133402243039700,0.492039794921875,1.07332181930542,0.6346142888069153,0.0020317109301686287
1761133402262887000,0.511886962890625,0.9044609069824219,0.2943682074546814,-0.20944005250930786
1761133402282733800,0.53173388671875,0.7030879259109497,-0.04820448160171509,-0.3367703855037689
1761133402302581000,0.5515810546875,0.5383801460266113,-0.24401140213012695,-0.3549728989601135
1761133402322428000,0.571427978515625,0.471422404050827,-0.13994692265987396,-0.2783152461051941
1761133402342274800,0.59127490234375,0.42509356141090393,0.04816767945885658,-0.25498947501182556
1761133402362122000,0.6111220703125,0.41849446296691895,0.2202065885066986,-0.3248347043991089
1761133402381970000,0.630969970703125,0.43974635004997253,0.3332611918449402,-0.3933562934398651
1761133402401816800,0.65081689453125,0.4443661570549011,0.3753623366355896,-0.3841171860694885
1761133402421664000,0.6706640625,0.41416993737220764,0.41864627599716187,-0.25485414266586304
1761133402441511000,0.690510986328125,0.37493690848350525,0.4245520234107971,-0.11254099756479263
1761133402461358000,0.710358154296875,0.33996230363845825,0.3978212773799896,-0.0379873663187027
1761133402481205000,0.730205078125,0.3219238519668579,0.3375457227230072,-0.03572671860456467
1761133402501052000,0.750052001953125,0.3126554787158966,0.22056853771209717,-0.06373528391122818
1761133402520899000,0.769899169921875,0.23269301652908325,0.042242955416440964,-0.095021553337574
1761133402540747000,0.7897470703125,0.08894991874694824,-0.22697308659553528,-0.13511766493320465
1761133402560594000,0.809593994140625,-0.061732981353998184,-0.4655984342098236,-0.11128725111484528
1761133402580441000,0.829441162109375,-0.14959527552127838,-0.5514622330665588,-0.024540545418858528
1761133402600288000,0.8492880859375,-0.24039767682552338,-0.4718427062034607,-0.060644857585430145
1761133402620135200,0.86913525390625,-0.4345149099826813,-0.3302350640296936,-0.2029801309108734
1761133402639982000,0.888982177734375,-0.6485136151313782,-0.15818847715854645,-0.3280296325683594
1761133402659829000,0.9088291015625,-0.7904435396194458,-0.0779242292046547,-0.40174612402915955
1761133402679677000,0.928677001953125,-0.8186119198799133,-0.010611513629555702,-0.40720364451408386
1761133402699523800,0.94852392578125,-0.7696935534477234,0.057759787887334824,-0.39898422360420227
1761133402719370800,0.968370849609375,-0.6926301717758179,0.12629100680351257,-0.36621078848838806
1761133402739218000,0.988218017578125,-0.5997570753097534,0.21056662499904633,-0.23918232321739197
1761133402759064800,1.00806494140625,-0.5026363730430603,0.2738357186317444,0.006818526890128851
1761133402778912000,1.027912109375,-0.4544732868671417,0.21940261125564575,0.3113642930984497
1761133402798759000,1.047759033203125,-0.5173323750495911,0.1343454271554947,0.5406227707862854
1761133402818605800,1.067605712890625,-0.6674255132675171,0.002850200515240431,0.5691453814506531
1761133402838454000,1.0874541015625,-0.8165090680122375,-0.1580740213394165,0.4653005003929138
1761133402858301000,1.107301025390625,-0.9242305159568787,-0.266788125038147,0.32123106718063354
1761133402878148000,1.127148193359375,-1.032749056816101,-0.30946049094200134,0.1302121877670288
1761133402897995000,1.1469951171875,-1.1018967628479004,-0.27163368463516235,-0.12198705971240997
1761133402917842000,1.166842041015625,-1.0443273782730103,-0.1595221608877182,-0.38464677333831787
1761133402937689000,1.186689208984375,-0.8931928277015686,0.002409322652965784,-0.5476596355438232
1761133402957536000,1.206535888671875,-0.6716155409812927,0.13199199736118317,-0.5438377857208252
1761133402977383000,1.2263828125,-0.43175792694091797,0.1397380381822586,-0.36933138966560364
1761133402997231000,1.246231201171875,-0.2238328754901886,0.022073475643992424,-0.12918812036514282
1761133403017078000,1.266078125,-0.10096915066242218,-0.11522257328033447,-0.008540807291865349
1761133403036925200,1.28592529296875,-0.06168320029973984,-0.15354043245315552,-0.0109894759953022
1761133403056772000,1.305772216796875,-0.04040477052330971,-0.10156218707561493,-0.14595173299312592
1761133403076619000,1.325618896484375,-0.04797719791531563,-0.031259678304195404,-0.2936706840991974
1761133403096466200,1.345466064453125,-0.016629625111818314,0.03853181377053261,-0.3140447735786438
1761133403116313300,1.365313232421875,0.03413157910108566,0.06361821293830872,-0.2536064386367798
1761133403136160300,1.38516015625,0.09580418467521667,0.04012681171298027,-0.1898885816335678
1761133403156008400,1.405008544921875,0.17495033144950867,-0.036763228476047516,-0.08504434674978256
1761133403175855400,1.42485546875,0.25452280044555664,-0.09808413684368134,0.0556374154984951
1761133403195702300,1.444702392578125,0.2822185456752777,-0.09262483566999435,0.20250876247882843
1761133403215549400,1.464549560546875,0.2947402894496918,0.015185708180069923,0.3243805468082428
1761133403235396400,1.484396240234375,0.3339880406856537,0.14535582065582275,0.45513689517974854
1761133403255243300,1.5042431640625,0.45038673281669617,0.30216050148010254,0.5883301496505737
1761133403275090400,1.52409033203125,0.4578453302383423,0.14486829936504364,0.5456897020339966
1761133403294937300,1.543937255859375,0.34942904114723206,-0.010702750645577908,0.42329320311546326
1761133403314785500,1.56378564453125,0.10524242371320724,-0.19861599802970886,0.26666882634162903
1761133403334632400,1.583632568359375,-0.05416980758309364,-0.2213132530450821,0.1237480416893959
1761133403354479400,1.603479248046875,-0.052345216274261475,-0.08422164618968964,0.08458789438009262
1761133403374326500,1.623326416015625,0.1344083547592163,0.18271677196025848,0.1472190022468567
1761133403394173400,1.64317333984375,0.47767654061317444,0.4901483356952667,0.3380715548992157
1761133403414020400,1.663020263671875,0.764813244342804,0.5642056465148926,0.531076967716217
1761133403433867500,1.682867431640625,0.9046241044998169,0.35099759697914124,0.6125288009643555
1761133403453714400,1.70271435546875,0.8480896949768066,-0.07974636554718018,0.5720210075378418
1761133403473562400,1.722562255859375,0.6021245121955872,-0.46195074915885925,0.43973207473754883
1761133403493409300,1.7424091796875,0.40301790833473206,-0.5351658463478088,0.3144419193267822
1761133403513256200,1.762256103515625,0.2871376574039459,-0.5075792670249939,0.30331069231033325
1761133403533103400,1.782103271484375,0.28712618350982666,-0.4244547486305237,0.33412396907806396
1761133403552950300,1.8019501953125,0.39679282903671265,-0.24633240699768066,0.3505960702896118
1761133403572797200,1.821797119140625,0.5291018486022949,-0.06755383312702179,0.3576921224594116
1761133403592644400,1.841644287109375,0.6128556728363037,0.06815255433320999,0.34792065620422363
1761133403612491300,1.8614912109375,0.6561462879180908,0.1990138441324234,0.32266414165496826
1761133403632339500,1.88133935546875,0.6823237538337708,0.2369643896818161,0.2548733651638031
1761133403652186400,1.901186279296875,0.679489254951477,0.21160471439361572,0.14383573830127716
1761133403672033300,1.921033203125,0.6309844255447388,0.13726107776165009,0.0037697399966418743
1761133403691880400,1.94088037109375,0.5401887893676758,0.018079208210110664,-0.11765686422586441
1761133403711727400,1.960727294921875,0.42788487672805786,-0.09077874571084976,-0.1267736256122589
1761133403731574300,1.98057421875,0.33962664008140564,-0.11972156167030334,-0.06827700138092041
1761133403751421400,2.00042138671875,0.280021995306015,-0.1069740280508995,-0.02179407887160778
1761133403771268400,2.020268310546875,0.2312287837266922,-0.06330215930938721,-0.011410607025027275
1761133403791115300,2.040115234375,0.17563365399837494,-0.011679147370159626,0.002446245402097702
1761133403810963500,2.05996337890625,0.12006828188896179,-0.008824109099805355,0.025576714426279068
1761133403830810400,2.079810302734375,0.07292313873767853,-0.04636741429567337,0.09110903739929199
1761133403850657500,2.099657470703125,0.03257692605257034,-0.09956611692905426,0.15431761741638184
1761133403870504400,2.11950439453125,-0.04257604479789734,-0.1550159901380539,0.17247502505779266
1761133403890351400,2.139351318359375,-0.18621796369552612,-0.3056336045265198,0.0696328729391098
1761133403910198500,2.159198486328125,-0.29420939087867737,-0.35809245705604553,-0.04007335007190704
1761133403930045400,2.17904541015625,-0.29308953881263733,-0.31107860803604126,-0.06727008521556854
1761133403949892400,2.198892333984375,-0.16248248517513275,-0.21385666728019714,-0.004761015996336937
1761133403969740300,2.218740234375,-0.0005732221761718392,-0.15693645179271698,0.006220465991646051
1761133403989587200,2.238587158203125,0.10857927799224854,-0.1219620555639267,-0.13945625722408295
1761133404009434400,2.258434326171875,0.14136840403079987,-0.08203616738319397,-0.2662769854068756
1761133404029281300,2.27828125,0.1471164971590042,-0.049561504274606705,-0.1908249706029892
1761133404049128200,2.298128173828125,0.20152658224105835,0.06721126288175583,0.11134326457977295
1761133404068975400,2.317975341796875,0.265884667634964,0.17718394100666046,0.36785688996315
1761133404088822300,2.337822265625,0.2439115196466446,0.12123074382543564,0.35305678844451904
1761133404108669000,2.3576689453125,0.11009284108877182,0.019467074424028397,0.15508557856082916
1761133404128516900,2.377516845703125,-0.083854079246521,-0.05895131453871727,-0.07883813977241516
1761133404148364000,2.397364013671875,-0.15732324123382568,0.008549305610358715,-0.18812237679958344
1761133404168211000,2.4172109375,-0.06476110219955444,0.1287737935781479,-0.15031158924102783
1761133404188057900,2.437057861328125,0.15690210461616516,0.26502615213394165,-0.07872571051120758
1761133404207905000,2.456905029296875,0.3748447299003601,0.37466806173324585,-0.03551873564720154
1761133404227752000,2.476751953125,0.47657138109207153,0.3678252398967743,-0.042406752705574036
1761133404247598800,2.496598876953125,0.49922415614128113,0.32374879717826843,-0.04988253861665726
1761133404267446000,2.516446044921875,0.5328684449195862,0.3139658570289612,-0.04781641438603401
1761133404287293000,2.53629296875,0.5951237082481384,0.3562699258327484,-0.03707430139183998
1761133404307141000,2.55614111328125,0.6551808714866638,0.37626051902770996,-0.054707806557416916
1761133404326988000,2.575988037109375,0.6827400326728821,0.33979958295822144,-0.08861036598682404
1761133404346835000,2.5958349609375,0.6996037364006042,0.30478402972221375,-0.09860989451408386
1761133404366682000,2.61568212890625,0.7521233558654785,0.35093098878860474,-0.08542582392692566
1761133404386529000,2.635529052734375,0.8381234407424927,0.36444100737571716,-0.10077124089002609
1761133404406376000,2.6553759765625,0.9710130095481873,0.3424350619316101,-0.13788250088691711
1761133404426223000,2.67522314453125,1.10896635055542,0.27792367339134216,-0.10865801572799683
1761133404446070000,2.695070068359375,1.2493685483932495,0.19829027354717255,-0.010373293422162533
1761133404465918000,2.71491796875,1.3631747961044312,0.18279626965522766,0.08758434653282166
1761133404485764900,2.734764892578125,1.4290121793746948,0.16221006214618683,0.062021881341934204
1761133404505611800,2.75461181640625,1.4454243183135986,0.18427255749702454,-0.03969448804855347
1761133404525459000,2.774458984375,1.3771984577178955,0.1192876324057579,-0.13999192416667938
1761133404545305900,2.794305908203125,1.3348952531814575,0.15924543142318726,-0.10134422779083252
1761133404565152800,2.81415283203125,1.3969244956970215,0.41359013319015503,0.028643399477005005
1761133404585000000,2.834,1.503370761871338,0.6268081068992615,0.06440263986587524
1761133404604846800,2.853846923828125,1.5452890396118164,0.6006360054016113,-0.01578625664114952
1761133404624695000,2.873695068359375,1.4921568632125854,0.4505113959312439,-0.06286796927452087
1761133404644542000,2.8935419921875,1.4337366819381714,0.39366406202316284,0.004295544698834419
1761133404664388900,2.913388916015625,1.4331982135772705,0.45109352469444275,0.12267406284809113
1761133404684236000,2.933236083984375,1.4930307865142822,0.4819144606590271,0.1521100252866745
1761133404704083000,2.9530830078125,1.5707807540893555,0.30697891116142273,0.04580280929803848
1761133404723930000,2.97293017578125,1.5526505708694458,-0.012876423075795174,-0.11764992773532867
1761133404743777000,2.992777099609375,1.4608228206634521,-0.27608442306518555,-0.23339824378490448
1761133404763624000,3.0126240234375,1.3241117000579834,-0.4651396572589874,-0.21259278059005737
1761133404783471000,3.03247119140625,1.1973789930343628,-0.6057330965995789,-0.14554327726364136
1761133404803319000,3.052319091796875,1.1427910327911377,-0.5255159139633179,-0.0406671017408371
1761133404823166000,3.072166015625,1.162895679473877,-0.1645183116197586,0.1134895533323288
1761133404843013000,3.09201318359375,1.2194743156433105,0.35965126752853394,0.1970706731081009
1761133404862860000,3.111860107421875,1.2174524068832397,0.7763218879699707,0.10244470834732056
1761133404882707200,3.131707275390625,1.1968755722045898,0.989372730255127,-0.04713507369160652
1761133404902554000,3.15155419921875,1.1252168416976929,0.886397123336792,-0.17901431024074554
1761133404922401000,3.171401123046875,1.022727131843567,0.49803218245506287,-0.24810566008090973
1761133404942248200,3.191248291015625,0.9387430548667908,0.026509791612625122,-0.15535502135753632
1761133404962095900,3.211095947265625,0.9153307676315308,-0.24303346872329712,0.07829605042934418
1761133404981942800,3.23094287109375,0.9130176901817322,-0.3311496078968048,0.22952717542648315
1761133405001790000,3.2507900390625,0.9392343163490295,-0.2468739002943039,0.24778957664966583
1761133405021636900,3.270636962890625,0.9454241394996643,-0.11350825428962708,0.22587016224861145
1761133405041484000,3.290484130859375,0.9381461143493652,0.017248770222067833,0.2574158012866974
1761133405061331000,3.3103310546875,0.9433507323265076,0.1619112640619278,0.31561949849128723
1761133405081177900,3.330177734375,0.9996574521064758,0.32724064588546753,0.32150328159332275
1761133405101025500,3.350025634765625,0.991661548614502,0.2933063209056854,0.14603768289089203
1761133405120872400,3.36987255859375,0.9521262645721436,0.23196810483932495,-0.06068539246916771
1761133405140720600,3.389720703125,0.9138922095298767,0.2358449399471283,-0.18189139664173126
1761133405160567600,3.409567626953125,0.9202837347984314,0.2820722460746765,-0.21148546040058136
1761133405180414700,3.429414794921875,1.0052903890609741,0.3098315894603729,-0.15953311324119568
1761133405200261600,3.44926171875,1.0988900661468506,0.2159918248653412,-0.08174160122871399
1761133405220108500,3.469108642578125,1.1338638067245483,-0.060771893709897995,0.019643982872366905
1761133405239955700,3.488955810546875,1.1331267356872559,-0.4165213108062744,0.1325220763683319
1761133405259802600,3.508802734375,1.1433645486831665,-0.6745556592941284,0.20182842016220093
1761133405279649500,3.5286494140625,1.1389342546463013,-0.6197462677955627,0.2855691611766815
1761133405299497700,3.548497802734375,1.134934425354004,-0.2325183004140854,0.3876911401748657
1761133405319344600,3.5683447265625,1.0823118686676025,0.09259182214736938,0.36638346314430237
1761133405339191600,3.588191650390625,0.9407979249954224,0.177805095911026,0.21090053021907806
1761133405359038500,3.60803857421875,0.7802206873893738,0.17753520607948303,0.06387492269277573
1761133405378885600,3.6278857421875,0.681875467300415,0.14464174211025238,0.030256668105721474
1761133405398732500,3.647732666015625,0.7213734984397888,0.11483359336853027,0.12427970767021179
1761133405418579500,3.667579345703125,0.854586124420166,0.15067146718502045,0.23844808340072632
1761133405438426400,3.68742626953125,1.0339794158935547,0.26035723090171814,0.2684018909931183
1761133405458273500,3.7072734375,1.19534432888031,0.3864138722419739,0.22253547608852386
1761133405478121500,3.72712158203125,1.3177437782287598,0.45479875802993774,0.1404583901166916
1761133405497968600,3.74696875,1.4412622451782227,0.42481666803359985,0.07571496069431305
1761133405517815600,3.766815673828125,1.5400004386901855,0.31376031041145325,0.07884730398654938
1761133405537662500,3.786662353515625,1.6226760149002075,0.23796476423740387,0.13190960884094238
1761133405557509600,3.806509521484375,1.6879061460494995,0.21596857905387878,0.16270220279693604
1761133405577356500,3.8263564453125,1.731839895248413,0.2444453090429306,0.12150081992149353
1761133405597203500,3.846203369140625,1.7387892007827759,0.3108241558074951,0.04517325386404991
1761133405617050600,3.866050537109375,1.7620344161987305,0.37644949555397034,-0.007219912484288216
1761133405636897500,3.8858974609375,1.8294434547424316,0.39735883474349976,0.015926484018564224
1761133405656745700,3.905745849609375,1.9334779977798462,0.38915392756462097,0.08287501335144043
1761133405676592600,3.925592529296875,2.04329514503479,0.39944541454315186,0.16013255715370178
1761133405696439600,3.945439453125,2.152628183364868,0.4631510078907013,0.23296016454696655
1761133405716286700,3.96528662109375,2.2436933517456055,0.5180729031562805,0.2671777307987213
1761133405736133600,3.985133544921875,2.2988688945770264,0.577799916267395,0.25604134798049927
1761133405755979500,4.0049794921875,2.334746837615967,0.6120740175247192,0.22590778768062592
1761133405775826700,4.02482666015625,2.3665268421173096,0.6320867538452148,0.20799389481544495
1761133405795674600,4.044674560546875,2.405198335647583,0.5221942067146301,0.13051068782806396
1761133405815521500,4.064521484375,2.4297971725463867,0.320060133934021,0.04214903712272644
1761133405835368700,4.08436865234375,2.4321353435516357,0.10047478973865509,-0.005739405285567045
1761133405855215600,4.104215576171875,2.379167318344116,-0.0018752453615888953,0.10974402725696564
1761133405875062800,4.124062744140625,2.343071222305298,-0.0004600759129971266,0.2661172151565552
1761133405894909700,4.14390966796875,2.3531742095947266,0.13396593928337097,0.35319316387176514
1761133405914756600,4.163756591796875,2.3243494033813477,0.2021940052509308,0.2951781451702118
1761133405934603800,4.183603759765625,2.2071635723114014,0.1986151784658432,0.18052421510219574
1761133405954450700,4.20345068359375,2.008408546447754,0.12336494028568268,0.10231621563434601
1761133405974298400,4.22329833984375,1.785597562789917,0.040609244257211685,0.1206856444478035
1761133405994145500,4.2431455078125,1.615159511566162,0.011343452148139477,0.17775028944015503
1761133406013992400,4.262992431640625,1.5299334526062012,0.09096289426088333,0.2269306182861328
1761133406033839600,4.282839599609375,1.479060411453247,0.19459818303585052,0.2185308337211609
1761133406053686500,4.3026865234375,1.4669365882873535,0.3976154625415802,0.16765035688877106
1761133406073533400,4.322533447265625,1.4555085897445679,0.5748383402824402,0.08065987378358841
1761133406093380600,4.342380615234375,1.447544813156128,0.6302743554115295,-0.007483139168471098
1761133406113227000,4.36222705078125,1.4610463380813599,0.5960394740104675,-0.06356169283390045
1761133406133074200,4.38207421875,1.4643259048461914,0.5232351422309875,-0.10387539118528366
1761133406152923100,4.401923095703125,1.4495338201522827,0.41218701004981995,-0.12235548347234726
1761133406172770300,4.421770263671875,1.4098401069641113,0.19988536834716797,-0.10571204870939255
1761133406192617200,4.4416171875,1.3723019361495972,-0.004990254528820515,-0.015447493642568588
1761133406212464000,4.461464111328125,1.3464608192443848,-0.1666008085012436,0.14157536625862122
1761133406232311300,4.481311279296875,1.3543386459350586,-0.15482619404792786,0.2914421558380127
1761133406252158200,4.501158203125,1.4062526226043701,-0.003976184409111738,0.40641120076179504
1761133406272006400,4.52100634765625,1.490808367729187,0.2093835473060608,0.5105485916137695
1761133406291853300,4.540853271484375,1.5806975364685059,0.387451708316803,0.5782226920127869
1761133406311700200,4.5607001953125,1.6653248071670532,0.4570872187614441,0.5669021010398865
1761133406331547100,4.580547119140625,1.6853015422821045,0.43995174765586853,0.5568603873252869
1761133406351394300,4.600394287109375,1.6559609174728394,0.4014834761619568,0.5573898553848267
1761133406371241200,4.6202412109375,1.5871495008468628,0.36895984411239624,0.5281184315681458
1761133406391088000,4.640088134765625,1.469924807548523,0.34104976058006287,0.456057608127594
1761133406410935000,4.65993505859375,1.3352447748184204,0.29539844393730164,0.39236581325531006
1761133406430782200,4.6797822265625,1.2219120264053345,0.21717484295368195,0.37600526213645935
1761133406450630100,4.699630126953125,1.1021088361740112,0.10638875514268875,0.391548752784729
1761133406470477000,4.71947705078125,0.9678202271461487,-0.005581307224929333,0.4285147190093994
1761133406490324200,4.73932421875,0.8107772469520569,-0.03913426771759987,0.41907891631126404
1761133406510171100,4.759171142578125,0.6325371265411377,-0.07914338260889053,0.29979828000068665
1761133406530018300,4.779018310546875,0.46278417110443115,0.018535258248448372,0.1725708246231079
1761133406549865200,4.798865234375,0.3564898371696472,0.23468847572803497,0.12940014898777008
1761133406569712000,4.818712158203125,0.3381968140602112,0.4022791385650635,0.11926813423633575
1761133406589559300,4.838559326171875,0.35337451100349426,0.42687690258026123,0.04643590375781059
1761133406609407200,4.8584072265625,0.33032646775245667,0.37099242210388184,-0.07124887406826019
1761133406629254100,4.878254150390625,0.2603085935115814,0.2432168871164322,-0.13867461681365967
1761133406649101300,4.898101318359375,0.20548845827579498,0.13873383402824402,-0.12425926327705383
1761133406668948200,4.9179482421875,0.1778038591146469,0.09731924533843994,-0.10101010650396347
1761133406688795400,4.93779541015625,0.20277447998523712,0.06613203883171082,-0.11716661602258682
1761133406708642300,4.957642333984375,0.24790064990520477,0.05941207334399223,-0.03438021242618561
1761133406728489200,4.9774892578125,0.2413073033094406,0.02356892079114914,0.12983985245227814
1761133406748336400,4.99733642578125,0.17141611874103546,-0.0005468444433063269,0.21090815961360931
1761133406768183300,5.017183349609375,0.09188896417617798,0.00698566809296608,0.13783183693885803
1761133406788031000,5.037031005859375,0.051497068256139755,0.01903824508190155,0.029420096427202225
1761133406807878100,5.056878173828125,0.07875613868236542,-0.035215627402067184,-0.04767702519893646
1761133406827725000,5.07672509765625,0.1454944908618927,-0.11013934016227722,-0.07494817674160004
1761133406847572200,5.096572265625,0.25923678278923035,-0.2014678716659546,-0.07132941484451294
1761133406867419100,5.116419189453125,0.39185628294944763,-0.2849147319793701,-0.05576315522193909
1761133406887266000,5.13626611328125,0.5121307969093323,-0.32227623462677,-0.02140560746192932
1761133406907113200,5.15611328125,0.5710038542747498,-0.34297120571136475,-0.04071210324764252
1761133406926960000,5.175960205078125,0.5416684150695801,-0.3389222323894501,-0.12333016097545624
1761133406946807000,5.19580712890625,0.4876132011413574,-0.3098854422569275,-0.19774895906448364
1761133406966655200,5.2156552734375,0.4146869480609894,-0.19896404445171356,-0.1964477002620697
1761133406986502100,5.235502197265625,0.34901198744773865,-0.08627064526081085,-0.16948947310447693
1761133407006349300,5.255349365234375,0.3071145713329315,0.0034637078642845154,-0.1275617927312851
1761133407026196200,5.2751962890625,0.25533953309059143,0.03792682662606239,-0.06449198722839355
1761133407046043100,5.295043212890625,0.19091951847076416,0.0547587126493454,0.023878313601017
1761133407065890300,5.314890380859375,0.13221412897109985,0.11039867997169495,0.1276947408914566
1761133407085737200,5.3347373046875,0.1003526970744133,0.20257091522216797,0.18256403505802155
1761133407105584600,5.354584716796875,0.11142352223396301,0.31460779905319214,0.19804754853248596
1761133407125431600,5.374431640625,0.12516789138317108,0.3937491476535797,0.16474135220050812
1761133407145278700,5.39427880859375,0.09108608216047287,0.45262017846107483,0.11490988731384277
1761133407165126700,5.414126708984375,0.05598963797092438,0.514541506767273,0.08098812401294708
1761133407184973600,5.4339736328125,0.01571659743785858,0.36529722809791565,0.0005406243726611137
1761133407204820700,5.45382080078125,-0.003478115890175104,0.21507546305656433,-0.0494181253015995
1761133407224667600,5.473667724609375,-0.05217147246003151,0.09742242097854614,-0.06508465111255646
1761133407244514800,5.493514892578125,-0.08418496698141098,0.03313278779387474,-0.09877881407737732
1761133407264361700,5.51336181640625,-0.07865044474601746,-0.01757393404841423,-0.17899489402770996
1761133407284208600,5.533208740234375,-0.04026146978139877,-0.026672448962926865,-0.19314156472682953
1761133407304055800,5.553055908203125,0.07979827374219894,0.1547701209783554,0.005937861278653145
1761133407323902700,5.57290283203125,0.28251683712005615,0.4385386109352112,0.38756197690963745
1761133407343750400,5.59275048828125,0.4649975895881653,0.6626392006874084,0.6481057405471802
1761133407363597600,5.61259765625,0.5747970342636108,0.6717946529388428,0.6326386332511902
1761133407383444500,5.632444580078125,0.5450330972671509,0.42286255955696106,0.4270894527435303
1761133407403291600,5.652291748046875,0.33278506994247437,0.013535689562559128,0.1997694969177246
1761133407423138600,5.672138671875,0.07282118499279022,-0.298469603061676,0.07310938835144043
1761133407442985500,5.6919853515625,-0.09378807991743088,-0.3899170756340027,0.04821030795574188
1761133407462832600,5.71183251953125,-0.17199991643428802,-0.3376525342464447,0.009287154302001
1761133407482679600,5.731679443359375,-0.14561855792999268,-0.20438456535339355,-0.056599199771881104
1761133407502526500,5.7515263671875,-0.054500874131917953,-0.050421569496393204,-0.11066849529743195
1761133407522374700,5.771374755859375,0.04870542138814926,0.06092921271920204,-0.10572386533021927
1761133407542221600,5.7912216796875,0.08812587708234787,0.1396438479423523,-0.07280245423316956
1761133407562068700,5.81106884765625,0.0695769265294075,0.15373525023460388,-0.09967033565044403
1761133407581915600,5.83091552734375,0.026258226484060287,0.12366694957017899,-0.12261748313903809
1761133407601762600,5.850762451171875,-0.02052728272974491,0.0763690173625946,-0.12770575284957886
1761133407621609700,5.870609619140625,-0.08592202514410019,0.04483446851372719,-0.1361760050058365
1761133407641456600,5.89045654296875,-0.13191965222358704,0.036856960505247116,-0.15850615501403809
1761133407661303600,5.910303466796875,-0.1623898595571518,0.031182145699858665,-0.1406550407409668
1761133407681150700,5.930150634765625,-0.20389892160892487,0.0005876114591956139,-0.10815330594778061
1761133407700998700,5.94999853515625,-0.2522992491722107,-0.053909365087747574,-0.11253451555967331
1761133407720845800,5.969845703125,-0.28806576132774353,-0.13139860332012177,-0.1067996472120285
1761133407740692700,5.989692626953125,-0.29122394323349,-0.2156725525856018,-0.0746074914932251
1761133407760539600,6.00953955078125,-0.321943074464798,-0.38436615467071533,0.003973386716097593
1761133407780386600,6.029386474609375,-0.34923604130744934,-0.5315752029418945,0.06391515582799911
1761133407800233700,6.049233642578125,-0.3605602979660034,-0.6201844811439514,0.12685711681842804
1761133407820080600,6.06908056640625,-0.4030037224292755,-0.6268618106842041,0.12319062650203705
1761133407839927600,6.088927490234375,-0.42561623454093933,-0.7848877310752869,0.010979343205690384
1761133407859774500,6.1087744140625,-0.44651922583580017,-0.8839954137802124,-0.18977929651737213
1761133407879622700,6.12862255859375,-0.45336806774139404,-0.7376893758773804,-0.4333517253398895
1761133407899469600,6.148469482421875,-0.30362504720687866,-0.3474375605583191,-0.5090947151184082
1761133407919316500,6.16831640625,-0.08056268095970154,0.14017483592033386,-0.324709951877594
1761133407939163600,6.18816357421875,0.06120826303958893,0.23645618557929993,-0.1380074918270111
1761133407959010600,6.208010498046875,0.06005821377038956,-0.09221726655960083,-0.05251409485936165
1761133407978857500,6.227857421875,0.010639015585184097,-0.5200583934783936,0.05956106632947922
1761133407998704600,6.24770458984375,0.005096688400954008,-0.5609316825866699,0.3253178298473358
1761133408018551600,6.267551513671875,0.04681965708732605,-0.2505066692829132,0.6064110994338989
1761133408038398500,6.2873984375,-0.0183266494423151,0.06661631166934967,0.6755679845809937
1761133408058245600,6.30724560546875,-0.24343061447143555,0.0363997183740139,0.45100724697113037
1761133408078093600,6.327093505859375,-0.44819027185440063,-0.08947114646434784,0.1471421867609024
1761133408097940700,6.346940673828125,-0.5029017925262451,-0.09355010092258453,-0.004393516108393669
1761133408117786600,6.36678662109375,-0.4543413519859314,-0.05473095923662186,-0.04301651567220688
1761133408137633500,6.386633544921875,-0.4349006414413452,-0.013169199228286743,-0.07791294157505035
1761133408157480400,6.40648046875,-0.46088650822639465,0.0643613189458847,-0.1311749368906021
1761133408177327600,6.42632763671875,-0.5272839069366455,0.1047879308462143,-0.1743074655532837
1761133408197174500,6.446174560546875,-0.6097965836524963,0.14142057299613953,-0.2007690966129303
1761133408217021700,6.466021728515625,-0.6040498614311218,0.21360009908676147,-0.23453952372074127
1761133408236868600,6.48586865234375,-0.5729657411575317,0.31672582030296326,-0.27646586298942566
1761133408256715500,6.505715576171875,-0.514011025428772,0.48842665553092957,-0.20862717926502228
1761133408276563700,6.525563720703125,-0.5158270597457886,0.3702988922595978,-0.1614687740802765
1761133408296410600,6.54541064453125,-0.5448785424232483,0.014707792550325394,-0.18764162063598633
1761133408316257500,6.565257568359375,-0.5620754957199097,-0.17647238075733185,-0.22966864705085754
1761133408336104700,6.585104736328125,-0.5701627135276794,-0.2657349109649658,-0.27244046330451965
1761133408355951600,6.60495166015625,-0.5350591540336609,-0.38244354724884033,-0.2905671000480652
1761133408375798800,6.624798828125,-0.3944007158279419,-0.38273799419403076,-0.16170261800289154
1761133408395645700,6.644645751953125,-0.22237640619277954,-0.2565558850765228,0.06410440057516098
1761133408415492600,6.66449267578125,-0.07020208239555359,0.016121570020914078,0.31886041164398193
1761133408435339800,6.68433984375,-0.0192462969571352,0.15126919746398926,0.43190884590148926
1761133408455187500,6.7041875,-0.08226312696933746,0.02679363638162613,0.34245604276657104
1761133408475034400,6.724034423828125,-0.18087062239646912,-0.035854823887348175,0.2267252653837204
1761133408494881500,6.743881591796875,-0.2971060574054718,-0.09558957815170288,0.1422407180070877
1761133408514728400,6.763728515625,-0.3326394557952881,-0.017475206404924393,0.14881302416324615
1761133408534575600,6.78357568359375,-0.30429786443710327,0.14502911269664764,0.13089576363563538
1761133408554422500,6.803422607421875,-0.2654813230037689,0.22993722558021545,-0.00932733528316021
1761133408574269400,6.82326953125,-0.26216208934783936,0.23814645409584045,-0.23088876903057098
1761133408594116600,6.84311669921875,-0.1335802674293518,0.24501897394657135,-0.3542759418487549
1761133408613963500,6.862963623046875,0.1624029129743576,0.4882948398590088,-0.1365145444869995
1761133408633810400,6.882810546875,0.49707990884780884,0.6957462430000305,0.2504950761795044
1761133408653658600,6.90265869140625,0.7106299996376038,0.679352879524231,0.5568296909332275
1761133408673505500,6.922505615234375,0.7636841535568237,0.35762062668800354,0.6377795934677124
1761133408693352700,6.942352783203125,0.6411525011062622,-0.14948754012584686,0.553083598613739
1761133408713199600,6.96219970703125,0.44210949540138245,-0.6804099082946777,0.39308664202690125
1761133408733046500,6.982046630859375,0.3071835935115814,-0.9708841443061829,0.1866239309310913
1761133408752893700,7.001893798828125,0.18835829198360443,-0.9035212993621826,0.009911276400089264
1761133408772740600,7.02174072265625,0.08698196709156036,-0.5966144800186157,-0.09966886043548584
1761133408792587500,7.04158740234375,0.057695042341947556,-0.10265747457742691,-0.08357726037502289
1761133408812434700,7.0614345703125,0.10393021255731583,0.33856937289237976,0.004849652759730816
1761133408832282600,7.08128271484375,0.20862485468387604,0.612156093120575,0.024669280275702477
1761133408852129800,7.1011298828125,0.2582753598690033,0.6807334423065186,-0.05254247039556503
1761133408871976700,7.120976806640625,0.21907372772693634,0.5281077027320862,-0.1496959924697876
1761133408891823600,7.14082373046875,0.13284920156002045,0.2943178117275238,-0.16836483776569366
1761133408911670800,7.1606708984375,0.052866242825984955,0.021247539669275284,-0.06821761280298233
1761133408931517700,7.180517578125,-0.027165500447154045,-0.26774606108665466,0.12603271007537842
1761133408951364600,7.200364501953125,-0.08726173639297485,-0.5043774843215942,0.22596195340156555
1761133408971211800,7.220211669921875,-0.1449417918920517,-0.6739012002944946,0.12642104923725128
1761133408991058700,7.24005859375,-0.21965138614177704,-0.7341283559799194,-0.040306832641363144
1761133409010906600,7.25990673828125,-0.2568889260292053,-0.6709230542182922,-0.11688364297151566
1761133409030753500,7.27975341796875,-0.19746708869934082,-0.43614956736564636,-0.03204771876335144
1761133409050600400,7.299600341796875,-0.1243903860449791,-0.19909879565238953,0.08630330860614777
1761133409070447600,7.319447509765625,-0.14355935156345367,-0.1908290535211563,0.10391785949468613
1761133409090294500,7.33929443359375,-0.15423919260501862,-0.04610735550522804,0.12404543161392212
1761133409110141700,7.3591416015625,-0.12639281153678894,0.06927850097417831,0.13275225460529327
1761133409129988600,7.378988525390625,-0.055379148572683334,0.11196697503328323,0.12315069884061813
1761133409149835800,7.398835693359375,-0.030319662764668465,-0.13218280673027039,0.013960719108581543
1761133409169682700,7.4186826171875,-0.08200982958078384,-0.4859040081501007,-0.1138804629445076
1761133409189529600,7.438529541015625,-0.143832728266716,-0.7275406122207642,-0.1650547832250595
1761133409209377800,7.458377685546875,-0.1853097677230835,-0.8286160230636597,-0.13695074617862701
1761133409229224700,7.478224609375,-0.24111050367355347,-0.8164492845535278,-0.09074447304010391
1761133409249071600,7.498071533203125,-0.3256284296512604,-0.5543274879455566,0.022493166849017143
1761133409268918800,7.517918701171875,-0.4052433669567108,0.005657636560499668,0.17718204855918884
1761133409288765700,7.537765625,-0.4465208053588867,0.4702175259590149,0.16581106185913086
1761133409308612900,7.55761279296875,-0.45405805110931396,0.5513588190078735,0.02140096388757229
1761133409328459800,7.577459716796875,-0.4673379957675934,0.332722544670105,-0.11320442706346512
1761133409348306700,7.597306640625,-0.5617555975914001,0.00836392492055893,-0.19235436618328094
1761133409368153900,7.61715380859375,-0.6410903930664062,-0.21735341846942902,-0.18897701799869537
1761133409388001800,7.637001708984375,-0.5960562825202942,-0.14831601083278656,-0.23358780145645142
1761133409407848700,7.6568486328125,-0.49422580003738403,0.018561434000730515,-0.3821490705013275
1761133409427695900,7.67669580078125,-0.39047691226005554,0.1812586635351181,-0.4935528635978699
1761133409447542800,7.696542724609375,-0.30767521262168884,0.28110530972480774,-0.47147420048713684
1761133409467389700,7.7163896484375,-0.24002297222614288,0.31264597177505493,-0.3491706848144531
1761133409487236900,7.73623681640625,-0.18207642436027527,0.24802963435649872,-0.21361619234085083
1761133409507083800,7.756083740234375,-0.15486402809619904,0.09744469076395035,-0.07803165167570114
1761133409526930700,7.7759306640625,-0.1706710010766983,-0.04774809628725052,0.02044321596622467
1761133409546777600,7.795777587890625,-0.20598740875720978,-0.11501229554414749,0.02643858641386032
1761133409566625500,7.81562548828125,-0.27997544407844543,-0.06490583717823029,-0.07620171457529068
1761133409586472700,7.83547265625,-0.3415258228778839,0.062098290771245956,-0.23168519139289856
1761133409606319600,7.855319580078125,-0.3285980820655823,0.19271686673164368,-0.3269686698913574
1761133409626166800,7.875166748046875,-0.22625002264976501,0.25003379583358765,-0.2950029969215393
1761133409646013700,7.895013671875,-0.04693930596113205,0.24620036780834198,-0.15579064190387726
1761133409665860600,7.914860595703125,0.1480329930782318,0.18813039362430573,0.0343465581536293
1761133409685707800,7.934707763671875,0.32313117384910583,0.14944645762443542,0.2107890248298645
1761133409705554700,7.9545546875,0.36883699893951416,-0.06623527407646179,0.25853222608566284
1761133409725401600,7.974401611328125,0.2994798421859741,-0.20475898683071136,0.28887465596199036
1761133409745248800,7.994248779296875,0.23666182160377502,-0.12595170736312866,0.3865610957145691
1761133409765094700,8.0140947265625,0.29334113001823425,0.07803557068109512,0.5701928734779358
1761133409784941600,8.033941650390625,0.3838067650794983,0.19701115787029266,0.6145989298820496
1761133409804788700,8.053788818359376,0.43132543563842773,0.22675229609012604,0.4877023994922638
1761133409824636700,8.07363671875,0.41534197330474854,0.19463765621185303,0.32320672273635864
1761133409844483600,8.093483642578125,0.3468126356601715,0.114522784948349,0.19031108915805817
1761133409864330800,8.113330810546875,0.26970985531806946,0.007664156146347523,0.08735991269350052
1761133409884177700,8.133177734375,0.24994567036628723,-0.030175985768437386,0.02126176469027996
1761133409904024600,8.153024658203124,0.3303239643573761,0.05136299505829811,0.03371643275022507
1761133409923871700,8.172871826171875,0.4864940643310547,0.142015278339386,0.1665569692850113
1761133409943718700,8.19271875,0.6205999851226807,0.29971590638160706,0.2992212772369385
1761133409963565800,8.21256591796875,0.6658602356910706,0.39639711380004883,0.259588360786438
1761133409983412700,8.232412841796876,0.674659013748169,0.39858555793762207,0.08755668997764587
1761133410003260700,8.2522607421875,0.6165532469749451,0.21519827842712402,-0.12341248989105225
1761133410023107800,8.27210791015625,0.5516417026519775,-0.10550449043512344,-0.1989053338766098
1761133410042954800,8.291954833984375,0.5071971416473389,-0.37830978631973267,-0.14913702011108398
1761133410062801700,8.3118017578125,0.46739161014556885,-0.44319018721580505,-0.1449952870607376
1761133410082648800,8.33164892578125,0.44054535031318665,-0.22757571935653687,-0.1722939908504486
1761133410102495700,8.351495849609375,0.44690629839897156,0.2177874594926834,-0.15211133658885956
1761133410122343400,8.371343505859375,0.48250389099121094,0.5654285550117493,-0.1408284306526184
1761133410142190300,8.3911904296875,0.5376494526863098,0.6386461853981018,-0.11148115247488022
1761133410162037200,8.411037353515624,0.5729394555091858,0.46636202931404114,0.028383813798427582
1761133410181885200,8.43088525390625,0.5914286375045776,0.30723580718040466,0.23417726159095764
1761133410201732000,8.450732177734375,0.5618121027946472,0.1317945122718811,0.33960700035095215
1761133410221579300,8.470579345703126,0.505424976348877,0.002211700426414609,0.3293322026729584
1761133410241426200,8.49042626953125,0.4864737391471863,-0.0033939715940505266,0.2939775586128235
1761133410261273000,8.510273193359374,0.4902612268924713,-0.0006294043269008398,0.25453147292137146
1761133410281120300,8.530120361328125,0.4777070879936218,-0.055142082273960114,0.22404365241527557
1761133410300967200,8.54996728515625,0.4424411356449127,-0.09941204637289047,0.1515873670578003
1761133410320814000,8.56981396484375,0.3641701936721802,-0.08406900614500046,0.034740183502435684
1761133410340661200,8.5896611328125,0.1894495040178299,-0.13554109632968903,-0.10506755858659744
1761133410360509200,8.60950927734375,0.06711651384830475,-0.07767239212989807,-0.11826861649751663
1761133410380356400,8.6293564453125,0.10516397655010223,0.2235427349805832,-0.04269089177250862
1761133410400203300,8.649203369140626,0.255025714635849,0.5429459810256958,0.012324793264269829
1761133410420050200,8.66905029296875,0.3797653019428253,0.7256336212158203,0.04972581937909126
1761133410439897300,8.6888974609375,0.4226517975330353,0.6272796392440796,0.1004827469587326
1761133410459744300,8.708744140625,0.4283219873905182,0.2638859152793884,0.17331205308437347
1761133410479591200,8.728591064453125,0.4572320282459259,-0.15214699506759644,0.20758375525474548
1761133410499438300,8.748438232421876,0.45683154463768005,-0.5215364694595337,0.23255681991577148
1761133410519285200,8.76828515625,0.38575878739356995,-0.6934893131256104,0.25684261322021484
1761133410539133200,8.78813330078125,0.23505741357803345,-0.6373599767684937,0.17504946887493134
1761133410558980400,8.80798046875,0.06540419906377792,-0.3801335096359253,-0.0066108680330216885
1761133410578827300,8.8278271484375,-0.023189213126897812,-0.014691625721752644,-0.15640071034431458
1761133410598674200,8.847674072265624,-0.0029667282942682505,0.34096410870552063,-0.1850927472114563
1761133410618521000,8.86752099609375,0.07569258660078049,0.5590672492980957,-0.11482831090688705
1761133410638368300,8.8873681640625,0.19464011490345,0.7143044471740723,-0.005557289347052574
1761133410658215200,8.907215087890625,0.2939816415309906,0.5907312035560608,0.019699927419424057
1761133410678062000,8.92706201171875,0.32395339012145996,0.450865238904953,-0.021224090829491615
1761133410697909000,8.946908935546874,0.3051782250404358,0.36738407611846924,-0.015668971464037895
1761133410717756200,8.966756103515625,0.3071269392967224,0.36708852648735046,-0.07292784750461578
1761133410737604000,8.98660400390625,0.3769274950027466,0.357835590839386,-0.18368788063526154
1761133410757451300,9.006451171875,0.4972872734069824,0.33057838678359985,-0.31880104541778564
1761133410777298200,9.026298095703124,0.6204931735992432,0.33232009410858154,-0.38396069407463074
1761133410797145000,9.04614501953125,0.7232381105422974,0.3518597185611725,-0.31593984365463257
1761133410816992300,9.0659921875,0.8056278824806213,0.3699188530445099,-0.16612085700035095
1761133410836839200,9.085839111328125,0.896417498588562,0.3443668782711029,-0.06753571331501007
1761133410856686000,9.10568603515625,0.9789220690727234,0.391949325799942,0.045490097254514694
