time,seconds_elapsed,z,y,x
1761132803358408200,0.084408203125,-0.06298881024122238,-0.040964554995298386,0.0848943367600441
1761132803378256400,0.10425634765625,-0.10618013888597488,-0.14304573833942413,0.19022952020168304
1761132803398104000,0.12410400390625,-0.0835169181227684,-0.13023974001407623,0.250445157289505
1761132803417952300,0.1439521484375,0.029182881116867065,-0.06812069565057755,0.248656764626503
1761132803437800200,0.16380029296875,0.17164121568202972,-0.11544506996870041,0.0930655226111412
1761132803457648400,0.1836484375,0.2681225836277008,-0.2690747082233429,-0.15652130544185638
1761132803477496300,0.203496337890625,0.28146374225616455,-0.3403373658657074,-0.22356761991977692
1761132803497343700,0.22334375,0.23246480524539948,-0.34957054257392883,-0.1182354986667633
1761132803517192000,0.24319189453125,0.14948779344558716,-0.29052451252937317,0.0007734261453151703
1761132803537040000,0.263039794921875,0.10002605617046356,-0.1919381022453308,0.04326760768890381
1761132803556887800,0.2828876953125,0.041797105222940445,-0.1493339091539383,-0.029399408027529716
1761132803576735700,0.30273583984375,-0.02440759725868702,-0.13085609674453735,-0.08653441071510315
1761132803596584000,0.322583984375,-0.08580577373504639,-0.12976962327957153,-0.09300929307937622
1761132803616431600,0.342431640625,-0.10920874029397964,-0.11248792707920074,-0.09576483070850372
1761132803636279800,0.36227978515625,-0.14212000370025635,-0.096683569252491,-0.10633577406406403
1761132803656127700,0.382127685546875,-0.20809154212474823,-0.08937636762857437,-0.12025202065706253
1761132803675975700,0.4019755859375,-0.28943493962287903,-0.07822847366333008,-0.12330607324838638
1761132803695823600,0.42182373046875,-0.3488970994949341,-0.07596255838871002,-0.12116574496030807
1761132803715671800,0.441671875,-0.35489222407341003,-0.07524898648262024,-0.09465357661247253
1761132803735520000,0.46152001953125,-0.32529717683792114,-0.10758894681930542,-0.07054787129163742
1761132803755367700,0.48136767578125,-0.3016330301761627,-0.14043965935707092,-0.0584503710269928
1761132803775215900,0.5012158203125,-0.2919149398803711,-0.1823953241109848,-0.023090695962309837
1761132803795063800,0.521063720703125,-0.2708384692668915,-0.2092592567205429,0.035669080913066864
1761132803814911700,0.540911865234375,-0.2255324274301529,-0.2353363037109375,0.0873737633228302
1761132803834759700,0.560759765625,-0.1906220018863678,-0.27787071466445923,0.12715508043766022
1761132803854608000,0.58060791015625,-0.16373322904109955,-0.32493868470191956,0.14548534154891968
1761132803874455800,0.600455810546875,-0.08273397386074066,-0.30197978019714355,0.10945787280797958
1761132803894303700,0.6203037109375,-0.02854950539767742,-0.26103103160858154,0.002467151265591383
1761132803914151700,0.640151611328125,0.008079800754785538,-0.21245986223220825,-0.1367783546447754
1761132803933999900,0.659999755859375,0.004563554655760527,-0.12790547311306,-0.11466765403747559
1761132803953847800,0.679847900390625,-0.03276856616139412,-0.06958267837762833,-0.06947066634893417
1761132803973695700,0.69969580078125,-0.0521748922765255,-0.09923018515110016,-0.1708909273147583
1761132803993544000,0.7195439453125,-0.0741899162530899,-0.15738829970359802,-0.3853051960468292
1761132804013391600,0.7393916015625,-0.09372465312480927,-0.13316220045089722,-0.543825626373291
1761132804033239800,0.75923974609375,-0.07786489278078079,0.07922612875699997,-0.5269331932067871
1761132804053087700,0.779087646484375,-0.11522433906793594,0.17048010230064392,-0.37584590911865234
1761132804072936000,0.79893603515625,-0.25073668360710144,-0.012979971244931221,-0.18784929811954498
1761132804092783600,0.81878369140625,-0.4414774179458618,-0.2547832429409027,-0.07006078958511353
1761132804112631800,0.8386318359375,-0.5219830870628357,-0.24916914105415344,-0.10588448494672775
1761132804132479700,0.858479736328125,-0.5510841012001038,-0.08251520246267319,-0.22306714951992035
1761132804152327700,0.87832763671875,-0.5150106549263,0.02559831365942955,-0.20355235040187836
1761132804172176000,0.89817578125,-0.44608914852142334,0.05502917245030403,-0.10473950207233429
1761132804192023800,0.91802392578125,-0.31950485706329346,0.053870756179094315,-0.08734007179737091
1761132804211871700,0.937871826171875,-0.1962020844221115,-0.014459091238677502,-0.12353289872407913
1761132804231719700,0.9577197265625,-0.09651713818311691,-0.13091112673282623,-0.1431998759508133
1761132804251567900,0.97756787109375,-0.02858377993106842,-0.2529536783695221,-0.11306001245975494
1761132804271415800,0.997415771484375,0.0018800846301019192,-0.31837937235832214,-0.06445768475532532
1761132804291263700,1.017263671875,0.012440918944776058,-0.3517438769340515,-0.07603637129068375
1761132804311111700,1.037111572265625,0.02103126235306263,-0.3151262700557709,-0.1269681304693222
1761132804330960000,1.0569599609375,0.029418107122182846,-0.19574913382530212,-0.10325366258621216
1761132804350807800,1.076807861328125,0.02539401315152645,-0.04813114553689957,-0.0348215252161026
1761132804370655700,1.09665576171875,0.030094852671027184,0.08717772364616394,-0.02776334062218666
1761132804390504000,1.11650390625,0.0397903136909008,0.19450588524341583,-0.09678170084953308
1761132804410351900,1.136351806640625,0.062011029571294785,0.27825337648391724,-0.20013146102428436
1761132804430199800,1.15619970703125,0.11383841186761856,0.32064497470855713,-0.22776268422603607
1761132804450047700,1.1760478515625,0.20145514607429504,0.413656085729599,-0.16849465668201447
1761132804469896000,1.19589599609375,0.28372275829315186,0.48956769704818726,0.009739174507558346
1761132804489743600,1.21574365234375,0.3164644241333008,0.4640933573246002,0.23427797853946686
1761132804509592600,1.235592529296875,0.31404465436935425,0.41685041785240173,0.3809356987476349
1761132804529440800,1.255440673828125,0.3721732199192047,0.4694732129573822,0.31664952635765076
1761132804549288400,1.275288330078125,0.4728924036026001,0.5309721231460571,0.13395006954669952
1761132804569136600,1.29513671875,0.5730664730072021,0.5526337027549744,0.042570535093545914
1761132804588984600,1.314984619140625,0.5981755256652832,0.4432068467140198,0.05212036520242691
1761132804608832500,1.33483251953125,0.5511763095855713,0.2802170515060425,0.013739913702011108
1761132804628680400,1.354680419921875,0.46611636877059937,0.14058807492256165,-0.03577708825469017
1761132804648528600,1.374528564453125,0.3659624755382538,0.06270687282085419,0.057038262486457825
1761132804668376300,1.394376220703125,0.27991148829460144,0.04673163592815399,0.31556808948516846
1761132804688224500,1.414224609375,0.256220281124115,0.11347013711929321,0.5080968737602234
1761132804708072400,1.434072509765625,0.29723116755485535,0.18225795030593872,0.48771634697914124
1761132804727920600,1.453920654296875,0.3681943714618683,0.18025802075862885,0.35367175936698914
1761132804747768600,1.4737685546875,0.4647764265537262,0.12344926595687866,0.20567654073238373
1761132804767616500,1.493616455078125,0.5538469552993774,0.0031737994868308306,0.11265907436609268
1761132804787464700,1.513464599609375,0.5979105234146118,-0.08877092599868774,0.07108327001333237
1761132804807312400,1.5333125,0.6158995032310486,-0.12333203852176666,0.0597633495926857
1761132804827160600,1.55316064453125,0.6363953948020935,-0.09949905425310135,0.047458235174417496
1761132804847008500,1.573008544921875,0.6496321558952332,-0.09088392555713654,0.01161300577223301
1761132804866856400,1.5928564453125,0.6560470461845398,-0.09689164906740189,-0.07899925112724304
1761132804886704400,1.612704345703125,0.6142091751098633,-0.11265308409929276,-0.1663575917482376
1761132804906552600,1.632552490234375,0.521554708480835,-0.1262776404619217,-0.20611967146396637
1761132804926400500,1.652400390625,0.41741743683815,-0.115849070250988,-0.21678389608860016
1761132804946248400,1.67224853515625,0.342214971780777,-0.09768025577068329,-0.20129427313804626
1761132804966096600,1.6920966796875,0.29407772421836853,-0.05870632454752922,-0.1654115915298462
1761132804985944600,1.711944580078125,0.2730589210987091,-0.035585928708314896,-0.14815689623355865
1761132805005792500,1.73179248046875,0.2691860795021057,-0.03411170095205307,-0.14380896091461182
1761132805025640400,1.751640380859375,0.26744937896728516,-0.03824561461806297,-0.13321402668952942
1761132805045488600,1.771488525390625,0.2484952211380005,-0.056565068662166595,-0.08750489354133606
1761132805065336600,1.791336669921875,0.22901175916194916,-0.07506293803453445,-0.0395347997546196
1761132805085184500,1.8111845703125,0.2207200825214386,-0.08031831681728363,-0.003972070291638374
1761132805105032400,1.831032470703125,0.23150169849395752,-0.09711743891239166,0.022277850657701492
1761132805124880600,1.850880615234375,0.25158631801605225,-0.13781926035881042,0.05537520349025726
1761132805144728300,1.870728271484375,0.29054248332977295,-0.16337482631206512,0.09035441279411316
1761132805164576500,1.890576416015625,0.31681007146835327,-0.15043438971042633,0.12435773015022278
1761132805184424700,1.9104248046875,0.29711323976516724,-0.14381706714630127,0.1927720010280609
1761132805204272400,1.9302724609375,0.35150521993637085,0.0008689984679222107,0.2608430087566376
1761132805224120600,1.95012060546875,0.4865386486053467,0.22952426970005035,0.2761712670326233
1761132805243968500,1.969968505859375,0.6440737843513489,0.42408180236816406,0.35192668437957764
1761132805263816700,1.989816650390625,0.7664276361465454,0.46938851475715637,0.45402657985687256
1761132805283664400,2.009664306640625,0.8245651721954346,0.42873695492744446,0.5812669992446899
1761132805303512600,2.0295126953125,0.9753459095954895,0.45773759484291077,0.5861181616783142
1761132805323360500,2.049360595703125,1.1415059566497803,0.5045515894889832,0.4787507653236389
1761132805343208400,2.06920849609375,1.4144879579544067,0.5149527192115784,0.2991459369659424
1761132805363056400,2.089056396484375,1.6801832914352417,0.590018630027771,0.2735464870929718
1761132805382904600,2.108904541015625,1.8406970500946045,0.6402664184570312,0.3223588764667511
1761132805402752500,2.12875244140625,1.9109807014465332,0.6027292609214783,0.4138002395629883
1761132805422600400,2.148600341796875,1.8641891479492188,0.409577339887619,0.5943040251731873
1761132805442448600,2.16844873046875,1.6583138704299927,0.18644508719444275,0.660370409488678
1761132805462296600,2.188296630859375,1.4269503355026245,0.1412268877029419,0.5682752728462219
1761132805482144500,2.20814453125,1.3183835744857788,0.28494688868522644,0.4836137294769287
1761132805501992400,2.227992431640625,1.3200690746307373,0.3171098232269287,0.5087368488311768
1761132805521840600,2.247840576171875,1.4192463159561157,0.27908122539520264,0.5745438933372498
1761132805541688300,2.267688232421875,1.49342942237854,0.2721826434135437,0.48636502027511597
1761132805561536500,2.28753662109375,1.549825668334961,0.3495451509952545,0.3647933304309845
1761132805581384400,2.307384521484375,1.539859652519226,0.4390936493873596,0.2787509560585022
1761132805601232600,2.327232666015625,1.461816668510437,0.513961136341095,0.19412584602832794
1761132805621080600,2.34708056640625,1.3390145301818848,0.5430814027786255,0.1491684913635254
1761132805640928500,2.366928466796875,1.225061297416687,0.5818114280700684,0.13920842111110687
1761132805660776700,2.386776611328125,1.157218098640442,0.6391736268997192,0.1215917244553566
1761132805680624400,2.406624267578125,1.1462126970291138,0.7243455648422241,0.0736660584807396
1761132805700472600,2.42647265625,1.18986976146698,0.7649495005607605,0.053476110100746155
1761132805720320500,2.446320556640625,1.2879923582077026,0.7649507522583008,0.0550684817135334
1761132805740168400,2.46616845703125,1.401962161064148,0.7029139995574951,0.014820811338722706
1761132805760016400,2.486016357421875,1.5262373685836792,0.5746612548828125,-0.11918091773986816
1761132805779864600,2.505864501953125,1.6585242748260498,0.4709060490131378,-0.2623100280761719
1761132805799712500,2.52571240234375,1.7798614501953125,0.40829479694366455,-0.35163962841033936
1761132805819560400,2.545560546875,1.8973867893218994,0.33876192569732666,-0.36746644973754883
1761132805839408600,2.56540869140625,1.9527063369750977,0.2827984690666199,-0.30239805579185486
1761132805859256600,2.585256591796875,1.9337372779846191,0.2671661972999573,-0.17102736234664917
1761132805879104500,2.6051044921875,1.9196443557739258,0.35597774386405945,-0.07223173975944519
1761132805898952400,2.624952392578125,1.9493718147277832,0.47124341130256653,-0.023700864985585213
1761132805918800600,2.644800537109375,1.9534823894500732,0.5156000256538391,0.09066978096961975
1761132805938648600,2.664648681640625,1.8925840854644775,0.49047523736953735,0.24186818301677704
1761132805958496500,2.68449658203125,1.8084442615509033,0.48005494475364685,0.2865605056285858
1761132805978344400,2.704344482421875,1.6925307512283325,0.4828557074069977,0.22760164737701416
1761132805998192600,2.724192626953125,1.6353472471237183,0.47875672578811646,0.12510424852371216
1761132806018040300,2.744040283203125,1.6414297819137573,0.48558780550956726,0.022028954699635506
1761132806037888500,2.763888427734375,1.6801143884658813,0.527449905872345,-0.05290351063013077
1761132806057736700,2.78373681640625,1.7317392826080322,0.634507417678833,-0.06959456205368042
1761132806077584400,2.80358447265625,1.774391531944275,0.7481781244277954,-0.03954796493053436
1761132806097432600,2.8234326171875,1.7957392930984497,0.7636335492134094,-0.045354485511779785
1761132806117280500,2.843280517578125,1.8151544332504272,0.7240993976593018,-0.11381778120994568
1761132806137128700,2.863128662109375,1.826874017715454,0.7001485228538513,-0.2136598527431488
1761132806156975600,2.8829755859375,1.8296198844909668,0.7153113484382629,-0.26178500056266785
1761132806176823600,2.902823486328125,1.808421015739441,0.7487318515777588,-0.17291399836540222
1761132806196671500,2.92267138671875,1.7892894744873047,0.7151517868041992,-0.05682023614645004
1761132806216519700,2.942519775390625,1.7811322212219238,0.6156371235847473,0.0011820434592664242
1761132806236367400,2.962367431640625,1.7907989025115967,0.5232746601104736,0.015878263860940933
1761132806256215600,2.982215576171875,1.800460696220398,0.4364664554595947,0.012477021664381027
1761132806276063500,3.0020634765625,1.7819194793701172,0.37329187989234924,0.014140404760837555
1761132806295911400,3.021911376953125,1.739931344985962,0.37429097294807434,0.02755078114569187
1761132806315759400,3.04175927734375,1.6882059574127197,0.3984348475933075,0.06624729186296463
1761132806335607600,3.061607666015625,1.653019666671753,0.41678690910339355,0.08437174558639526
1761132806355455700,3.081455810546875,1.6094725131988525,0.414673388004303,0.046662602573633194
1761132806375303400,3.101303466796875,1.5588232278823853,0.34808874130249023,-0.018442345783114433
1761132806395151600,3.121151611328125,1.4868799448013306,0.22814618051052094,-0.08488689363002777
1761132806414999600,3.14099951171875,1.3893883228302002,0.12109263241291046,-0.12466862052679062
1761132806434847500,3.160847412109375,1.317840337753296,0.09776553511619568,-0.13416539132595062
1761132806454695400,3.1806953125,1.2763842344284058,0.10319749265909195,-0.1072673425078392
1761132806474543600,3.200543701171875,1.2330361604690552,0.07410943508148193,-0.08061844110488892
1761132806494391600,3.2203916015625,1.1972862482070923,0.004021403379738331,-0.08141888678073883
1761132806514238700,3.24023876953125,1.1747889518737793,-0.04495678097009659,-0.08395647257566452
1761132806534087000,3.2600869140625,1.1631494760513306,-0.03873595595359802,-0.059639159590005875
1761132806553934800,3.279934814453125,1.150061845779419,-0.01091831736266613,-0.04814791679382324
1761132806573783000,3.299782958984375,1.1445022821426392,0.005146280862390995,-0.041886795312166214
1761132806593631000,3.319630859375,1.140515685081482,0.03929930552840233,-0.07916301488876343
1761132806613479000,3.33947900390625,1.12863290309906,0.08082804083824158,-0.1235603392124176
1761132806633327000,3.3593271484375,1.116109013557434,0.16040094196796417,-0.1341736912727356
1761132806653174800,3.3791748046875,1.0741171836853027,0.15609458088874817,-0.056101828813552856
1761132806673023000,3.39902294921875,0.9914833903312683,0.10140549391508102,0.12496337294578552
1761132806692871000,3.418870849609375,0.9296589493751526,0.02941735088825226,0.18688102066516876
1761132806712718800,3.43871875,0.8846341371536255,-0.04853396862745285,0.011002282612025738
1761132806732566800,3.45856689453125,0.84107905626297,-0.1021866649389267,-0.09937860816717148
1761132806752415000,3.4784150390625,0.8164613842964172,0.03210172802209854,0.0912843868136406
1761132806772263000,3.498262939453125,0.7739076018333435,0.22474747896194458,0.4653227925300598
1761132806792110800,3.51811083984375,0.768292248249054,0.3198355436325073,0.727719783782959
1761132806811959000,3.537958984375,0.7741745114326477,0.30784541368484497,0.7803253531455994
1761132806831807000,3.557806884765625,0.8318061828613281,0.32607656717300415,0.6899941563606262
1761132806851655000,3.577655029296875,0.9515054821968079,0.4364074468612671,0.5468869805335999
1761132806871502800,3.5975029296875,1.120914340019226,0.5391923189163208,0.43192344903945923
1761132806891351000,3.61735107421875,1.2690502405166626,0.539536714553833,0.32248958945274353
1761132806911199000,3.637198974609375,1.389837622642517,0.45235535502433777,0.19253262877464294
1761132806931047000,3.657046875,1.4757616519927979,0.35545533895492554,0.07186729460954666
1761132806950894800,3.676894775390625,1.5209511518478394,0.3009105622768402,0.057440247386693954
1761132806970743000,3.696742919921875,1.5574711561203003,0.3111540377140045,0.15576711297035217
1761132806990590700,3.7165908203125,1.602023959159851,0.40300387144088745,0.2798784673213959
1761132807010439000,3.73643896484375,1.6658365726470947,0.5142502188682556,0.32261186838150024
1761132807030287000,3.756287109375,1.784744143486023,0.6514403820037842,0.33195260167121887
1761132807050134800,3.776134765625,1.9331893920898438,0.7715209126472473,0.35703980922698975
1761132807069983000,3.79598291015625,2.096494674682617,0.8638943433761597,0.3304908871650696
1761132807089831000,3.815830810546875,2.2404086589813232,0.9028446078300476,0.16010244190692902
1761132807109679000,3.83567919921875,2.3295044898986816,0.8371595740318298,-0.08812140673398972
1761132807129526800,3.85552685546875,2.3362457752227783,0.7078506946563721,-0.23787789046764374
1761132807149375000,3.875375,2.2714662551879883,0.569098949432373,-0.3113298714160919
1761132807169223000,3.895222900390625,2.186180591583252,0.4791013300418854,-0.3516193628311157
1761132807189070800,3.91507080078125,2.043046474456787,0.4104727506637573,-0.37096425890922546
1761132807208918800,3.934918701171875,1.82926607131958,0.36593085527420044,-0.36971771717071533
1761132807228767000,3.95476708984375,1.5817289352416992,0.3695954978466034,-0.36984774470329285
1761132807248615000,3.974614990234375,1.318393588066101,0.4610718786716461,-0.36958977580070496
1761132807268462800,3.994462890625,1.0539439916610718,0.5270286798477173,-0.36817049980163574
1761132807288311000,4.01431103515625,0.8157123327255249,0.5783852338790894,-0.31635376811027527
1761132807308159000,4.034158935546875,0.5615798234939575,0.4980112314224243,-0.21989935636520386
1761132807328007000,4.0540068359375,0.33229905366897583,0.4468604624271393,-0.13268785178661346
1761132807347854800,4.073854736328125,0.16126294434070587,0.434782475233078,-0.048914529383182526
1761132807367703000,4.093703125,0.012407343834638596,0.45020592212677,0.041286978870630264
1761132807387550700,4.11355078125,-0.09751038253307343,0.45118874311447144,0.09168247878551483
1761132807407399000,4.13339892578125,-0.19834142923355103,0.3792969882488251,0.08002571761608124
1761132807427246800,4.153246826171875,-0.2748987078666687,0.3387020230293274,0.03967763110995293
1761132807447095000,4.173094970703125,-0.32303252816200256,0.2561420798301697,0.01625598967075348
1761132807466943000,4.19294287109375,-0.33410605788230896,0.1564704179763794,0.045519452542066574
1761132807486791000,4.212791015625,-0.3026181161403656,0.0627669245004654,0.050972215831279755
1761132807506638800,4.232638916015625,-0.25451672077178955,-0.029332421720027924,0.05550703778862953
1761132807526486800,4.25248681640625,-0.18259522318840027,-0.11050627380609512,0.05780749395489693
1761132807546334700,4.272334716796875,-0.11445572227239609,-0.20184551179409027,0.041213683784008026
1761132807566183000,4.292182861328125,-0.08811714500188828,-0.28552407026290894,0.005484736058861017
1761132807586030800,4.31203076171875,-0.06170443445444107,-0.29725098609924316,-0.04155144467949867
1761132807605878800,4.331878662109375,-0.021421201527118683,-0.2400636374950409,-0.051471490412950516
1761132807625726700,4.351726806640625,0.012927028350532055,-0.17262236773967743,0.036910392343997955
1761132807645575000,4.371574951171875,0.0037143707741051912,-0.10955164581537247,0.17739510536193848
1761132807665422600,4.391422607421875,-0.06529568135738373,-0.18637536466121674,0.2755168378353119
1761132807685270800,4.411270751953125,-0.16981881856918335,-0.27341368794441223,0.37687596678733826
1761132807705119000,4.431118896484375,-0.275998592376709,-0.3202677071094513,0.45891034603118896
1761132807724966700,4.450966552734375,-0.3662034571170807,-0.2698381543159485,0.45613574981689453
1761132807744814800,4.47081494140625,-0.2853110730648041,-0.08307402580976486,0.3577736020088196
1761132807764662800,4.490662841796875,-0.20723001658916473,0.11492656916379929,0.13152208924293518
1761132807784511000,4.510510986328125,-0.1315523087978363,0.17198021709918976,-0.16002030670642853
1761132807804358700,4.530358642578125,-0.2574112117290497,0.01973210647702217,-0.2562282085418701
1761132807824206800,4.550206787109375,-0.49527978897094727,-0.16030627489089966,-0.1627027541399002
1761132807844054800,4.5700546875,-0.6960906982421875,-0.23247329890727997,0.0756666362285614
1761132807863902700,4.58990283203125,-0.7332782745361328,-0.30554571747779846,0.37087124586105347
1761132807883750700,4.609750732421875,-0.5674685835838318,-0.452510267496109,0.5640161037445068
1761132807903598800,4.629598876953125,-0.3078080713748932,-0.515571117401123,0.6439633965492249
1761132807923446800,4.64944677734375,-0.17968781292438507,-0.4081960916519165,0.5519866943359375
1761132807943293700,4.669293701171875,-0.10277362167835236,-0.24489949643611908,0.3136392831802368
1761132807963143000,4.689142822265625,0.08550804853439331,-0.159993976354599,0.016250189393758774
1761132807982989800,4.70898974609375,0.3165109157562256,-0.1942775845527649,-0.16237516701221466
1761132808002838000,4.728838134765625,0.37752121686935425,-0.24838484823703766,-0.17006158828735352
1761132808022685700,4.748685791015625,0.33128243684768677,-0.18402886390686035,-0.12684397399425507
1761132808042534000,4.768533935546875,0.25738459825515747,-0.041110809892416,-0.08596828579902649
1761132808062381800,4.7883818359375,0.178507462143898,0.10131677240133286,-0.10907664149999619
1761132808082229800,4.808229736328125,0.09232574701309204,0.2325156331062317,-0.10003618150949478
1761132808102077700,4.82807763671875,0.007372646126896143,0.24836929142475128,-0.02909633331000805
1761132808121926000,4.84792578125,-0.04859904572367668,0.1603490710258484,-0.0109200868755579
1761132808141773800,4.86777392578125,-0.06309792399406433,0.04391029104590416,-0.09579722583293915
1761132808161621800,4.887621826171875,-0.057500798255205154,-0.07814459502696991,-0.3031371831893921
1761132808181469700,4.9074697265625,-0.03411164879798889,-0.15056608617305756,-0.4622461199760437
1761132808201318000,4.92731787109375,0.046626899391412735,-0.1905745416879654,-0.5571848154067993
1761132808221165800,4.947165771484375,0.09585165977478027,-0.23008476197719574,-0.6677407026290894
1761132808241013800,4.967013671875,0.005227680783718824,-0.28159305453300476,-0.7118321657180786
1761132808260862000,4.986862060546875,-0.17808637022972107,-0.30009883642196655,-0.5848126411437988
1761132808280709600,5.006709716796875,-0.37124618887901306,-0.2615395784378052,-0.32073959708213806
1761132808300557800,5.026557861328125,-0.48570793867111206,-0.07048249244689941,-0.01736292615532875
1761132808320405800,5.04640576171875,-0.5213075280189514,0.187782883644104,0.3093455731868744
1761132808340254000,5.06625390625,-0.5048099160194397,0.3338300883769989,0.587388277053833
1761132808360101600,5.0861015625,-0.45222902297973633,0.30602332949638367,0.7359548211097717
1761132808379949800,5.10594970703125,-0.30247849225997925,0.24481479823589325,0.8221730589866638
1761132808399797800,5.1257978515625,-0.01231694221496582,0.3517419397830963,0.7953394055366516
1761132808419645700,5.145645751953125,0.2732115089893341,0.4115687906742096,0.5752379894256592
1761132808439494000,5.165493896484375,0.4775604009628296,0.2755890190601349,0.23460853099822998
1761132808459341800,5.185341796875,0.528264045715332,0.01756744086742401,0.03407391905784607
1761132808479189800,5.205189697265625,0.4987165927886963,-0.1089925467967987,0.05367807671427727
1761132808499037700,5.22503759765625,0.5009695887565613,-0.03166766092181206,0.07347974181175232
1761132808518886000,5.244885986328125,0.4980219006538391,0.04216108098626137,-0.004173385910689831
1761132808538734000,5.264734130859375,0.38733065128326416,-0.06630707532167435,-0.003920040093362331
1761132808558581800,5.284581787109375,0.22195038199424744,-0.2516292631626129,0.10959579050540924
1761132808578430000,5.304429931640625,0.03566586598753929,-0.38679859042167664,0.193983256816864
1761132808598278000,5.32427783203125,-0.09188354015350342,-0.2929416000843048,0.21206702291965485
1761132808618125800,5.344125732421875,-0.17101088166236877,-0.06487274914979935,0.10287731140851974
1761132808637974000,5.36397412109375,-0.16054020822048187,0.16510330140590668,0.060754116624593735
1761132808657822000,5.383822021484375,-0.09807270020246506,0.35059577226638794,0.09254522621631622
1761132808677670000,5.403669921875,0.04657531529664993,0.515584409236908,0.039464764297008514
1761132808697517800,5.423517822265625,0.24045336246490479,0.6285209059715271,-0.057181861251592636
1761132808717366000,5.443365966796875,0.39966124296188354,0.5800824761390686,-0.1646137237548828
1761132808737214000,5.4632138671875,0.508698582649231,0.35941803455352783,-0.13604365289211273
1761132808757062000,5.483061767578125,0.5540955662727356,0.12716320157051086,0.0323944017291069
1761132808776909800,5.502909912109375,0.5778961181640625,-0.03262406215071678,0.10198964923620224
1761132808796758000,5.522758056640625,0.6149327754974365,-0.09326454252004623,0.041519924998283386
1761132808816605700,5.542605712890625,0.6437138319015503,-0.09532541781663895,-0.019659243524074554
1761132808836454000,5.562453857421875,0.6735350489616394,-0.038263022899627686,0.006107007153332233
1761132808856302000,5.582302001953125,0.6695709228515625,0.01091129332780838,0.09336107969284058
1761132808876150000,5.60214990234375,0.6773244738578796,0.07805973291397095,0.2046634405851364
1761132808895998000,5.621998046875,0.7366193532943726,0.2521221935749054,0.25082406401634216
1761132808915846000,5.641845947265625,0.8309788107872009,0.5037293434143066,0.22300994396209717
1761132808935694000,5.661694091796875,0.8873504996299744,0.6684470772743225,0.24861609935760498
1761132808955541800,5.681541748046875,0.921647846698761,0.6898205280303955,0.3636128008365631
1761132808975390000,5.701389892578125,0.9616394639015198,0.6468871235847473,0.45062676072120667
1761132808995238000,5.72123779296875,1.0105715990066528,0.5892136693000793,0.513805091381073
1761132809015085800,5.7410859375,1.0157493352890015,0.4989061653614044,0.6646838188171387
1761132809034933800,5.760933837890625,1.1495604515075684,0.6075482964515686,0.7259241342544556
1761132809054782000,5.780781982421875,1.2608847618103027,0.6510411500930786,0.4731447100639343
1761132809074630100,5.800630126953125,1.4501898288726807,0.7505791187286377,0.09186821430921555
1761132809094477800,5.820477783203125,1.474702000617981,0.6067764163017273,-0.041903238743543625
1761132809114326000,5.840325927734375,1.3343316316604614,0.33782151341438293,0.05947934091091156
1761132809134174000,5.860174072265625,1.0567455291748047,-0.014789046719670296,0.20034870505332947
1761132809154022000,5.88002197265625,0.785892128944397,-0.17919176816940308,0.39976146817207336
1761132809173869800,5.899869873046875,0.6448373198509216,-0.1083894819021225,0.48811471462249756
1761132809193718000,5.919718017578125,0.6569505929946899,0.2507130205631256,0.40160468220710754
1761132809213566000,5.93956591796875,0.7658697962760925,0.6187583208084106,0.18703171610832214
1761132809233414000,5.959413818359375,0.8849044442176819,0.7826983332633972,-0.05354263260960579
1761132809253261800,5.97926171875,0.9238716959953308,0.7773076295852661,-0.1607828438282013
1761132809273110000,5.999110107421875,0.924580991268158,0.6203431487083435,-0.16548657417297363
1761132809292958000,6.0189580078125,0.9410576224327087,0.38679444789886475,-0.21086065471172333
1761132809312804900,6.038804931640625,1.0090203285217285,0.0792369619011879,-0.42986854910850525
1761132809332654000,6.058654052734375,1.0059808492660522,-0.18635545670986176,-0.6246625185012817
1761132809352501000,6.0785009765625,0.8980991244316101,-0.26148825883865356,-0.5708189606666565
1761132809372349000,6.098348876953125,0.8054684996604919,-0.12013915926218033,-0.3203875720500946
1761132809392196900,6.11819677734375,0.7316268682479858,0.10471086204051971,-0.05286622792482376
1761132809412045000,6.138045166015625,0.6561625003814697,0.15979444980621338,0.023975949734449387
1761132809431893000,6.15789306640625,0.5359171032905579,0.08714548498392105,-0.030807364732027054
1761132809451741000,6.177740966796875,0.4137134850025177,-0.01615331321954727,-0.09026175737380981
1761132809471588900,6.1975888671875,0.32323482632637024,-0.03919993340969086,-0.05719057843089104
1761132809491437000,6.21743701171875,0.2858094274997711,-0.030682669952511787,0.06459440290927887
1761132809511284700,6.23728466796875,0.2898024320602417,-0.014906580559909344,0.1492936909198761
1761132809531133000,6.2571328125,0.2831333875656128,-0.046638570725917816,0.14900735020637512
1761132809550980900,6.27698095703125,0.2640829086303711,-0.09876206517219543,0.08101413398981094
1761132809570828800,6.296828857421875,0.21912309527397156,-0.13842463493347168,0.07563673704862595
1761132809590677000,6.316677001953125,0.17963102459907532,-0.15735287964344025,0.15318655967712402
1761132809610525000,6.33652490234375,0.18451452255249023,-0.17081226408481598,0.2880116403102875
1761132809630373000,6.356373046875,0.19611135125160217,-0.15096688270568848,0.3600350022315979
1761132809650220800,6.376220703125,0.3144855797290802,-0.007264092098921537,0.27860191464424133
1761132809670069000,6.396069091796875,0.3941097557544708,0.06671903282403946,0.11199024319648743
1761132809689917000,6.4159169921875,0.5194862484931946,0.0580957867205143,-0.05227240175008774
1761132809709764900,6.435764892578125,0.5336472392082214,-0.04840487241744995,-0.08679337054491043
1761132809729612800,6.45561279296875,0.47985294461250305,-0.04946056008338928,-0.03855857253074646
1761132809749461000,6.4754609375,0.43425098061561584,0.06582470238208771,0.03756111115217209
1761132809769309000,6.495308837890625,0.3761634826660156,0.1137070283293724,0.08817976713180542
1761132809789156900,6.515156982421875,0.2793031334877014,0.09797561168670654,0.1448371261358261
1761132809809005000,6.535005126953125,0.14337356388568878,0.09916359931230545,0.24393528699874878
1761132809828853000,6.55485302734375,0.07140815258026123,0.2389260232448578,0.2763223350048065
1761132809848701000,6.574700927734375,0.060761064291000366,0.4479399025440216,0.16167764365673065
1761132809868548900,6.594548828125,0.12257906794548035,0.6372933387756348,0.029797393828630447
1761132809888397000,6.61439697265625,0.2234077751636505,0.7889121770858765,-0.07440996170043945
1761132809908244700,6.63424462890625,0.33507978916168213,0.7572352886199951,-0.2164515107870102
1761132809928093000,6.654093017578125,0.47511306405067444,0.6378573179244995,-0.4495907723903656
1761132809947940900,6.67394091796875,0.5626056790351868,0.4702892601490021,-0.6018489003181458
1761132809967789000,6.6937890625,0.5440316200256348,0.26690474152565,-0.46311166882514954
1761132809987636700,6.71363671875,0.5105351805686951,0.18190784752368927,-0.17358317971229553
1761132810007485000,6.73348486328125,0.5525974035263062,0.2362062782049179,-0.006897886283695698
1761132810027333000,6.7533330078125,0.6058353781700134,0.33825069665908813,-0.0026426496915519238
1761132810047180800,6.773180908203125,0.694136917591095,0.44870251417160034,0.025924071669578552
1761132810067029000,6.793029052734375,0.8182156682014465,0.5626960396766663,0.09603606909513474
1761132810086877000,6.812876953125,0.9773719310760498,0.6572823524475098,0.20258179306983948
1761132810106724900,6.832724853515625,1.1344072818756104,0.7033920288085938,0.20886459946632385
1761132810126572800,6.85257275390625,1.2907426357269287,0.6945376396179199,0.12626346945762634
1761132810146421000,6.8724208984375,1.4289389848709106,0.6316784620285034,0.08636946976184845
1761132810166269000,6.89226904296875,1.5568434000015259,0.5852671265602112,0.14949874579906464
1761132810186116900,6.912116943359375,1.7064049243927002,0.5796223878860474,0.23191368579864502
1761132810205964800,6.93196484375,1.8023784160614014,0.5267999172210693,0.3099854290485382
1761132810225813000,6.95181298828125,1.964523196220398,0.6361947655677795,0.23654727637767792
1761132810245661000,6.971660888671875,2.2445573806762695,0.8308267593383789,-0.025162361562252045
1761132810265508900,6.9915087890625,2.497849225997925,0.6477041244506836,-0.32045239210128784
1761132810285357000,7.011357177734375,2.5806963443756104,0.405712753534317,-0.4103635847568512
1761132810305205000,7.031205078125,2.385676145553589,0.20899832248687744,-0.4816493093967438
1761132810325053000,7.051052978515625,2.1309814453125,0.19629614055156708,-0.6850062608718872
1761132810344900900,7.07090087890625,1.8651331663131714,0.29619312286376953,-0.7034595608711243
1761132810364749000,7.0907490234375,1.5926398038864136,0.410909503698349,-0.2900485098361969
1761132810384596700,7.1105966796875,1.3814491033554077,0.6482216119766235,0.2207731008529663
1761132810404445000,7.13044482421875,1.327487826347351,0.9124894738197327,0.4089414179325104
1761132810424292900,7.15029296875,1.3963085412979126,1.1254231929779053,0.23119601607322693
1761132810444140800,7.170140869140625,1.596971035003662,1.214614748954773,0.002206603530794382
1761132810463987700,7.18998779296875,1.8586246967315674,1.23030686378479,-0.14163115620613098
1761132810483836000,7.2098359375,2.0548572540283203,0.9675186276435852,-0.299272745847702
1761132810503683800,7.229683837890625,2.145277261734009,0.7733418941497803,-0.41180914640426636
1761132810523531800,7.24953173828125,2.2381296157836914,0.8379458785057068,-0.3448721170425415
1761132810543379700,7.269379638671875,2.2929320335388184,0.9029156565666199,-0.23517701029777527
1761132810563228000,7.289227783203125,2.225156307220459,0.829364538192749,-0.24441371858119965
1761132810583075800,7.309075927734375,2.048556327819824,0.6696292161941528,-0.3217909038066864
1761132810602923800,7.328923828125,1.7913413047790527,0.556591808795929,-0.3316274881362915
1761132810622771700,7.348771728515625,1.5822093486785889,0.47956493496894836,-0.22020363807678223
1761132810642620000,7.368619873046875,1.4628206491470337,0.46030452847480774,0.00280574569478631
1761132810662467800,7.3884677734375,1.3850740194320679,0.46432751417160034,0.1885204017162323
1761132810682315800,7.408315673828125,1.3559919595718384,0.42901578545570374,0.24855326116085052
1761132810702163700,7.428163818359375,1.3923763036727905,0.3361257016658783,0.2056882679462433
1761132810722012000,7.448011962890625,1.4865614175796509,0.28622183203697205,0.1335727870464325
1761132810741859600,7.467859619140625,1.5401719808578491,0.2660652995109558,0.042250730097293854
1761132810761707800,7.487707763671875,1.5192564725875854,0.1876414716243744,0.0038523469120264053
1761132810781556000,7.507555908203125,1.3857544660568237,0.10162653028964996,-0.009934630244970322
1761132810801403600,7.527403564453125,1.1852768659591675,0.06417743116617203,-0.00022623594850301743
1761132810821251800,7.547251953125,0.9942599534988403,0.15768778324127197,0.08803824335336685
1761132810841099800,7.567099853515625,0.8146630525588989,0.2957994341850281,0.20094533264636993
1761132810860948000,7.586947998046875,0.6248927712440491,0.3117223381996155,0.2692260146141052
1761132810880795600,7.606795654296875,0.46547576785087585,0.2476392537355423,0.3035936951637268
1761132810900643800,7.626643798828125,0.4414471983909607,0.1640656292438507,0.2893872559070587
1761132810920491800,7.64649169921875,0.512503981590271,0.03844335302710533,0.23582659661769867
1761132810940339700,7.666339599609375,0.664943516254425,-0.011303856037557125,0.15070436894893646
1761132810960187600,7.686187744140625,0.8242477178573608,-0.005864286795258522,0.12418092787265778
1761132810980035800,7.706035888671875,0.9755183458328247,0.004060667939484119,0.1236162856221199
1761132810999883800,7.7258837890625,1.0759917497634888,-0.02481720596551895,0.10409243404865265
1761132811019731700,7.745731689453125,1.1369014978408813,-0.03572919964790344,0.046768225729465485
1761132811039580000,7.765579833984375,1.1436065435409546,-0.013754604384303093,0.015346688218414783
1761132811059427800,7.785427734375,1.1097056865692139,0.022256454452872276,0.038522087037563324
1761132811079275800,7.80527587890625,1.0515791177749634,0.04239463433623314,0.041623555123806
1761132811099123700,7.825123779296875,0.9921115636825562,0.04503877833485603,0.013969428837299347
1761132811118972000,7.844971923828125,0.941123366355896,0.09490944445133209,0.01502200122922659
1761132811138819600,7.864819580078125,0.8914781808853149,0.14007826149463654,0.05805636942386627
1761132811158667800,7.884667724609375,0.8434485197067261,0.17670875787734985,0.09398157149553299
1761132811178515700,7.904515625,0.8128990530967712,0.22999557852745056,0.09440523386001587
1761132811198364000,7.924364013671875,0.7943108081817627,0.2910548746585846,0.05886922404170036
1761132811218211800,7.9442119140625,0.7784342765808105,0.30507194995880127,0.040267959237098694
1761132811238059800,7.964059814453125,0.7334520816802979,0.219821035861969,-0.0005533099174499512
1761132811257908000,7.983907958984375,0.6865993738174438,0.14466017484664917,0.025074519217014313
1761132811277755600,8.003755615234375,0.6323340535163879,0.19347086548805237,0.1670951396226883
1761132811297603800,8.023603759765624,0.6364879608154297,0.3558233380317688,0.2694118916988373
1761132811317451800,8.04345166015625,0.691574215888977,0.4697505533695221,0.24715059995651245
1761132811337299700,8.0632998046875,0.7506590485572815,0.48944804072380066,0.13022445142269135
1761132811357147600,8.083147705078124,0.8114092946052551,0.48379990458488464,0.0027783222030848265
1761132811376995800,8.102995849609375,0.8728333711624146,0.49814584851264954,0.04575576260685921
1761132811396843800,8.12284375,0.9432325959205627,0.4771013855934143,0.10351737588644028
1761132811416691700,8.142691650390624,1.0414338111877441,0.45587265491485596,0.010253495536744595
1761132811436540000,8.162539794921875,1.1073943376541138,0.4066193997859955,-0.12103010714054108
1761132811456387800,8.182387939453125,1.1015212535858154,0.33639976382255554,-0.14607743918895721
1761132811476235800,8.20223583984375,1.0462278127670288,0.30558905005455017,-0.05526946857571602
1761132811496082700,8.222082763671875,1.0096944570541382,0.35735854506492615,0.038043063133955
1761132811515930600,8.2419306640625,1.0108822584152222,0.4096672832965851,0.07262101769447327
1761132811535778800,8.26177880859375,1.0638025999069214,0.47534701228141785,0.0576152577996254
1761132811555626800,8.281626708984374,1.1057721376419067,0.46469804644584656,-0.003285014536231756
1761132811575474700,8.301474609375,1.1411104202270508,0.42043620347976685,-0.09713930636644363
1761132811595322600,8.321322509765626,1.1844100952148438,0.3541501462459564,-0.10044261813163757
1761132811615170800,8.3411708984375,1.2263822555541992,0.2877833843231201,-0.04123091697692871
1761132811635018500,8.3610185546875,1.2952229976654053,0.2337445765733719,-0.06782662123441696
1761132811654866700,8.38086669921875,1.3492908477783203,0.18095943331718445,-0.14114797115325928
1761132811674716700,8.400716552734375,1.3721797466278076,0.17104357481002808,-0.18817125260829926
1761132811694564600,8.420564697265625,1.3891562223434448,0.1792059689760208,-0.23465891182422638
1761132811714412800,8.440412841796874,1.3959019184112549,0.21322199702262878,-0.27312326431274414
1761132811734260500,8.460260498046875,1.403648018836975,0.25860878825187683,-0.2731803357601166
1761132811754108700,8.480108642578125,1.4040464162826538,0.3167414665222168,-0.20521749556064606
1761132811773956900,8.499956787109374,1.3818758726119995,0.34971553087234497,-0.08715339004993439
1761132811793804500,8.519804443359375,1.3523736000061035,0.39736253023147583,-0.04663941636681557
1761132811813652700,8.53965283203125,1.342956781387329,0.466419517993927,-0.029774945229291916
1761132811833500700,8.559500732421874,1.34934401512146,0.5590986609458923,0.05255534499883652
1761132811853348600,8.5793486328125,1.3589600324630737,0.6742346882820129,0.17120034992694855
1761132811873196500,8.599196533203125,1.3456124067306519,0.7523987293243408,0.29384052753448486
1761132811893044700,8.619044677734376,1.322848916053772,0.7885342240333557,0.3751554787158966
1761132811912892700,8.638892578125,1.3722798824310303,0.8000560402870178,0.3893349766731262
1761132811932740600,8.65874072265625,1.4260369539260864,0.7394236326217651,0.3551263213157654
1761132811952588500,8.678588623046876,1.478930115699768,0.676884114742279,0.2990152835845947
1761132811972436700,8.698436767578125,1.4909083843231201,0.6408287882804871,0.20878709852695465
1761132811992284700,8.71828466796875,1.4612306356430054,0.597877025604248,0.08268488943576813
1761132812012132600,8.738132568359376,1.4125896692276,0.5867550373077393,0.0258821751922369
1761132812031979500,8.7579794921875,1.3427834510803223,0.5812939405441284,0.03915483504533768
1761132812051827700,8.77782763671875,1.29099440574646,0.5888474583625793,0.06221400201320648
1761132812071676000,8.797676025390626,1.2717257738113403,0.5967285633087158,0.09857768565416336
1761132812091523600,8.817523681640624,1.274829626083374,0.5933239459991455,0.11710921674966812
1761132812111371800,8.837371826171875,1.3173677921295166,0.604791522026062,0.08573127537965775
1761132812131219700,8.8572197265625,1.3725149631500244,0.5989206433296204,0.02969113364815712
1761132812151067600,8.877067626953124,1.3893773555755615,0.5584935545921326,-0.09297603368759155
1761132812170915600,8.89691552734375,1.383170247077942,0.639288604259491,-0.023369036614894867
1761132812190763800,8.916763671875,1.3741997480392456,0.5990127921104431,-0.04173990711569786
1761132812210611500,8.936611572265624,1.3377044200897217,0.4271334707736969,-0.2837100028991699
1761132812230459600,8.956459716796875,1.2154731750488281,0.21892301738262177,-0.5730159282684326
1761132812250307600,8.9763076171875,0.9325875639915466,0.01851518265902996,-0.6828740835189819
