time,seconds_elapsed,z,y,x
1761131553989314600,0.102314453125,0.3713407516479492,-0.6381850242614746,-1.5654741525650024
1761131554019315500,0.1323154296875,0.4580392837524414,-0.7947359085083008,-1.574647068977356
1761131554029315600,0.142315673828125,0.48836612701416016,-0.8474359512329102,-1.5792577266693115
1761131554039315700,0.152315673828125,0.4776649475097656,-0.832944393157959,-1.5653899908065796
1761131554049315800,0.16231591796875,0.4647178649902344,-0.8157768249511719,-1.5470123291015625
1761131554059311600,0.1723115234375,0.45256900787353516,-0.7986774444580078,-1.5323749780654907
1761131554069311500,0.1823115234375,0.44336986541748047,-0.7835283279418945,-1.527845859527588
1761131554079311600,0.1923115234375,0.4383878707885742,-0.771690845489502,-1.5365453958511353
1761131554089311500,0.2023115234375,0.43813419342041016,-0.7648043632507324,-1.5562193393707275
1761131554099311600,0.2123115234375,0.4416236877441406,-0.7645230293273926,-1.5762006044387817
1761131554109311500,0.2223115234375,0.44765377044677734,-0.7708377838134766,-1.5900213718414307
1761131554119311600,0.2323115234375,0.45509910583496094,-0.781308650970459,-1.5989571809768677
1761131554129311500,0.2423115234375,0.46271228790283203,-0.7933712005615234,-1.6039198637008667
1761131554139311600,0.2523115234375,0.4699535369873047,-0.8074154853820801,-1.6008533239364624
1761131554149311500,0.2623115234375,0.47605037689208984,-0.8237056732177734,-1.584720492362976
1761131554159311600,0.2723115234375,0.48129940032958984,-0.841010570526123,-1.5604788064956665
1761131554169311500,0.2823115234375,0.4864168167114258,-0.8580179214477539,-1.5358493328094482
1761131554179311600,0.2923115234375,0.49205493927001953,-0.8740882873535156,-1.5165245532989502
1761131554189311500,0.3023115234375,0.4998626708984375,-0.8890752792358398,-1.5125632286071777
1761131554199311600,0.3123115234375,0.5102710723876953,-0.9022374153137207,-1.5288293361663818
1761131554209311500,0.3223115234375,0.5230722427368164,-0.917569637298584,-1.5510470867156982
1761131554219311600,0.3323115234375,0.5377025604248047,-0.9391055107116699,-1.5632179975509644
1761131554229311500,0.3423115234375,1.5324764251708984,1.1830849647521973,-5.735874652862549
1761131554239311600,0.3523115234375,1.1772775650024414,1.2970938682556152,-5.768474578857422
1761131554249311500,0.3623115234375,0.5346879959106445,0.7335152626037598,-4.758051872253418
1761131554259310600,0.372310546875,-0.02950000762939453,-0.12992143630981445,-3.373720169067383
1761131554269310500,0.382310546875,-0.8054113388061523,-0.5326838493347168,-2.108464479446411
1761131554279310600,0.392310546875,-1.1377944946289062,-0.2135000228881836,-1.7327563762664795
1761131554289310500,0.402310546875,-1.0599660873413086,0.576934814453125,-2.348323106765747
1761131554299310600,0.412310546875,-0.8412375450134277,1.17531156539917,-3.3649582862854004
1761131554309310500,0.422310546875,-0.5424213409423828,1.1043105125427246,-4.585333824157715
1761131554319310600,0.432310546875,-0.05234336853027344,0.4197659492492676,-5.815751552581787
1761131554329310500,0.442310546875,0.3551034927368164,0.057965755462646484,-6.700502872467041
1761131554339310600,0.452310546875,0.7971725463867188,-0.28293609619140625,-6.8674116134643555
1761131554349310500,0.462310546875,1.054551124572754,-0.3079514503479004,-6.156081199645996
1761131554359311400,0.472311279296875,1.0409698486328125,0.0009069442749023438,-4.599102020263672
1761131554369311500,0.4823115234375,0.8278255462646484,0.6136393547058105,-2.7554402351379395
1761131554379311400,0.492311279296875,0.4946155548095703,1.1077861785888672,-0.5598852634429932
1761131554389311500,0.5023115234375,-0.09838104248046875,1.3220462799072266,1.1466115713119507
1761131554399311400,0.512311279296875,-1.1181726455688477,1.1098737716674805,2.4464685916900635
1761131554409311500,0.5223115234375,-2.1203479766845703,0.5699234008789062,2.9496498107910156
1761131554419311400,0.532311279296875,-3.2536792755126953,0.8035106658935547,0.8266950845718384
1761131554429311500,0.5423115234375,-4.111719131469727,2.492990016937256,-3.782223701477051
1761131554439311400,0.552311279296875,-4.245400428771973,1.9399242401123047,-5.3172807693481445
1761131554449311500,0.5623115234375,-3.2789230346679688,2.454800605773926,-6.7811431884765625
1761131554459310600,0.572310546875,-1.8125333786010742,2.698068618774414,-7.023171424865723
1761131554469310500,0.582310546875,-1.7857398986816406,2.2004551887512207,-8.610947608947754
1761131554479310600,0.592310546875,-2.8708138465881348,1.1477904319763184,-7.963828086853027
1761131554489310500,0.602310546875,-4.092874526977539,-0.1382427215576172,-7.002542018890381
1761131554499310600,0.612310546875,-4.84506893157959,-1.0147128105163574,-6.717251300811768
1761131554509310500,0.622310546875,-4.477818965911865,-2.7934024333953857,-5.0941948890686035
1761131554519310600,0.632310546875,-4.1084442138671875,-5.242597579956055,-3.2762351036071777
1761131554529310500,0.642310546875,-4.148196220397949,-6.818848609924316,-2.148982286453247
1761131554539310600,0.652310546875,-4.122985363006592,-6.640097618103027,-1.2970727682113647
1761131554549310700,0.662310791015625,-3.8401265144348145,-4.534405708312988,0.05808686092495918
1761131554559311400,0.672311279296875,-3.331399440765381,-1.8628959655761719,1.388305902481079
1761131554569311500,0.6823115234375,-2.706540584564209,0.9669265747070312,2.2482144832611084
1761131554579311600,0.6923115234375,-2.251965045928955,2.3340439796447754,2.63373064994812
1761131554589311500,0.7023115234375,-2.1529016494750977,1.741614818572998,2.997241735458374
1761131554599311400,0.712311279296875,-2.536405086517334,0.03335380554199219,2.6879172325134277
1761131554609311500,0.7223115234375,-2.9857382774353027,-1.0838227272033691,2.388057231903076
1761131554619311400,0.732311279296875,-3.3111677169799805,-1.2202749252319336,1.3259189128875732
1761131554629311500,0.7423115234375,-3.3455114364624023,-1.1834511756896973,1.4178972244262695
1761131554639311400,0.752311279296875,-2.9383583068847656,-1.2459774017333984,-2.458397388458252
1761131554649311500,0.7623115234375,-1.7622146606445312,-1.322859287261963,-4.093323707580566
1761131554659310600,0.772310546875,-1.8230690956115723,-1.2452664375305176,-3.949166774749756
1761131554669310700,0.782310791015625,1.0719852447509766,-1.2518553733825684,-6.933089256286621
1761131554679310600,0.792310546875,2.1699156761169434,-0.8118605613708496,-7.164911270141602
1761131554689310700,0.802310791015625,2.9919753074645996,-0.011150836944580078,-6.593488693237305
1761131554699310600,0.812310546875,3.543323516845703,1.039353847503662,-5.536281585693359
1761131554709310700,0.822310791015625,3.8957419395446777,2.0321621894836426,-4.240878582000732
1761131554719310600,0.832310546875,4.2441864013671875,3.0642309188842773,-2.7894201278686523
1761131554729310500,0.842310546875,4.413627624511719,3.8379459381103516,-1.2497506141662598
1761131554739310600,0.852310546875,4.6515607833862305,4.074763774871826,-0.4998030364513397
1761131554749310500,0.862310546875,5.083884239196777,3.597966194152832,-0.46660688519477844
1761131554759311400,0.872311279296875,5.504456520080566,2.841683864593506,-1.1947672367095947
1761131554769311500,0.8823115234375,5.576729774475098,2.1163177490234375,-2.0016064643859863
1761131554779311400,0.892311279296875,5.419821739196777,1.23067045211792,-2.304304838180542
1761131554789311500,0.9023115234375,5.510846138000488,0.556973934173584,-2.0877199172973633
1761131554799311600,0.9123115234375,5.300250053405762,0.13982295989990234,-1.9650204181671143
1761131554809311500,0.9223115234375,4.830257415771484,-0.16228151321411133,-1.980517029762268
1761131554819311400,0.932311279296875,4.313103675842285,-0.24199533462524414,-2.049442768096924
1761131554829311500,0.9423115234375,3.6066951751708984,-0.12661981582641602,-2.3613293170928955
1761131554839311400,0.952311279296875,2.5350332260131836,-0.0067348480224609375,-2.6225783824920654
1761131554849311500,0.9623115234375,1.524001121520996,0.013916969299316406,-2.5412096977233887
1761131554859310600,0.972310546875,0.5714836120605469,0.15186357498168945,-2.3819148540496826
1761131554869310500,0.982310546875,-0.3671073913574219,0.38976240158081055,-2.1396656036376953
1761131554879310600,0.992310546875,-1.0359091758728027,0.5535135269165039,-1.9212615489959717
1761131554889310500,1.002310546875,-1.5135746002197266,0.4560074806213379,-1.8396955728530884
1761131554899310600,1.012310546875,-1.8007254600524902,0.21456527709960938,-1.9562393426895142
1761131554909310500,1.022310546875,-1.7308521270751953,0.02200031280517578,-2.2183351516723633
1761131554919310600,1.032310546875,-1.632462978363037,-0.057489871978759766,-2.4952030181884766
1761131554929310500,1.042310546875,-1.4856505393981934,-0.1971416473388672,-2.7566447257995605
1761131554939310600,1.052310546875,-1.3200912475585938,-0.35604000091552734,-2.87947678565979
1761131554949310500,1.062310546875,-1.3589067459106445,-0.2672882080078125,-2.8979945182800293
1761131554959311400,1.072311279296875,-1.6982183456420898,-0.6459932327270508,-3.083224296569824
1761131554969311500,1.0823115234375,-1.9821548461914062,-0.6100776195526123,-3.0327987670898438
1761131554979311400,1.092311279296875,-2.4456734657287598,-0.5315487384796143,-2.8971171379089355
1761131554989311500,1.1023115234375,-2.9002857208251953,-0.49089527130126953,-2.7906157970428467
1761131554999311400,1.112311279296875,-3.2157254219055176,-0.44088220596313477,-2.772928237915039
1761131555009311500,1.1223115234375,-3.2807259559631348,-0.372758150100708,-3.0212655067443848
1761131555019311400,1.132311279296875,-3.3458118438720703,-0.421872615814209,-3.3825316429138184
1761131555029311700,1.142311767578125,-3.520660877227783,-0.5329494476318359,-3.4780359268188477
1761131555039312000,1.152311767578125,-3.6651549339294434,-0.6561546325683594,-3.391913890838623
1761131555049311700,1.162311767578125,-3.818333625793457,-0.6515145301818848,-3.3373327255249023
1761131555059311000,1.17231103515625,-3.95883846282959,-0.49529433250427246,-3.4242827892303467
1761131555069311000,1.18231103515625,-3.831930637359619,-0.23531246185302734,-3.7421188354492188
1761131555079310800,1.192310791015625,-3.311551570892334,-0.0797891616821289,-4.267299652099609
1761131555089311000,1.20231103515625,-2.6784090995788574,-0.003883838653564453,-4.7356648445129395
1761131555099310800,1.212310791015625,-2.632704257965088,-0.06939983367919922,-4.779077529907227
1761131555109311000,1.22231103515625,-1.9304437637329102,-0.08383607864379883,-5.060979843139648
1761131555119310800,1.232310791015625,-0.18791484832763672,-0.49317216873168945,-4.726877212524414
1761131555129311000,1.24231103515625,0.922114372253418,-0.6462497711181641,-4.367254257202148
1761131555139310800,1.252310791015625,2.2471914291381836,-0.6157636642456055,-4.174963474273682
1761131555149311000,1.26231103515625,3.450756072998047,-0.6379833221435547,-4.301878929138184
1761131555159312000,1.272311767578125,4.464954376220703,-0.772885799407959,-4.808588027954102
1761131555169311700,1.282311767578125,5.092792510986328,-0.9872314929962158,-5.223201751708984
1761131555179311900,1.292311767578125,5.203668594360352,-1.2043404579162598,-5.437038898468018
1761131555189311700,1.302311767578125,4.822893142700195,-1.1955552101135254,-5.454791069030762
1761131555199312000,1.312311767578125,4.32921028137207,-0.8556802272796631,-5.43281364440918
1761131555209311700,1.322311767578125,4.038884162902832,-0.3884463310241699,-5.421746253967285
1761131555219311900,1.332311767578125,3.955015182495117,0.007579326629638672,-5.307273864746094
1761131555229311700,1.342311767578125,3.9578752517700195,-0.005994319915771484,-5.287697792053223
1761131555239312000,1.352311767578125,4.161449432373047,0.12072467803955078,-4.677551746368408
1761131555249311700,1.362311767578125,4.097533226013184,-0.16074037551879883,-4.020387649536133
1761131555259310800,1.372310791015625,3.964447021484375,-0.17034530639648438,-3.589548110961914
1761131555269311000,1.38231103515625,3.909534454345703,0.04871225357055664,-3.4776782989501953
1761131555279310800,1.392310791015625,4.014333724975586,0.4035911560058594,-3.3249497413635254
1761131555289311000,1.40231103515625,4.114960670471191,0.5355782508850098,-2.9738574028015137
1761131555299310800,1.412310791015625,4.086673736572266,0.3265085220336914,-2.282428026199341
1761131555309311000,1.42231103515625,3.814742088317871,-0.04451751708984375,-1.5309327840805054
1761131555319311000,1.43231103515625,3.514967918395996,-0.49704694747924805,-1.0181630849838257
1761131555329310700,1.442310791015625,3.159478187561035,-0.7071206569671631,-0.8639532327651978
1761131555339310600,1.452310546875,2.851503372192383,-0.7859654426574707,-0.9995880126953125
1761131555349310500,1.462310546875,2.556830406188965,-0.8585412502288818,-1.3567498922348022
1761131555359311400,1.472311279296875,2.251699447631836,-0.9847455024719238,-2.054409980773926
1761131555369311500,1.4823115234375,1.8186750411987305,-1.0931260585784912,-2.6388723850250244
1761131555379311400,1.492311279296875,1.1787242889404297,-1.0942094326019287,-2.9536187648773193
1761131555389311500,1.5023115234375,0.2665281295776367,-1.134462833404541,-2.881777048110962
1761131555399311400,1.512311279296875,-0.7464714050292969,-1.1676807403564453,-2.7118239402770996
1761131555409311500,1.5223115234375,-1.6698660850524902,-1.084498405456543,-2.6501853466033936
1761131555419311400,1.532311279296875,-2.470097064971924,-0.8721845149993896,-2.852238655090332
1761131555429311500,1.5423115234375,-2.980463981628418,-0.781475305557251,-3.0748138427734375
1761131555439311400,1.552311279296875,-3.5040903091430664,-0.821608304977417,-3.134784698486328
1761131555449311500,1.5623115234375,-3.8860936164855957,-0.9881041049957275,-2.9542531967163086
1761131555462354000,1.57535400390625,-4.086550235748291,-1.1559600830078125,-2.7215867042541504
1761131555472354000,1.58535400390625,-4.103960037231445,-1.222249984741211,-2.5428802967071533
1761131555482354000,1.59535400390625,-3.7646636962890625,-1.247645378112793,-2.5705485343933105
1761131555492354000,1.60535400390625,-3.3657054901123047,-1.2657413482666016,-2.610006332397461
1761131555502354000,1.61535400390625,-2.747997283935547,-1.2742996215820312,-2.741664409637451
1761131555512354000,1.62535400390625,-2.0738682746887207,-1.2808527946472168,-2.994131088256836
1761131555522354000,1.63535400390625,-1.473646640777588,-1.315269947052002,-3.135347366333008
1761131555532354000,1.64535400390625,-0.9366426467895508,-1.3447928428649902,-3.067190647125244
1761131555542354000,1.65535400390625,-0.6730608940124512,-1.3514924049377441,-3.100581645965576
1761131555552354000,1.66535400390625,-0.5365748405456543,-1.4007253646850586,-3.2502212524414062
1761131555562355000,1.67535498046875,-0.4842700958251953,-1.468048095703125,-3.5054216384887695
1761131555572354800,1.685354736328125,-0.39582300186157227,-1.5845510959625244,-3.9832897186279297
1761131555582355000,1.69535498046875,-0.4485464096069336,-1.7779905796051025,-4.485146999359131
1761131555592354800,1.705354736328125,-0.7455229759216309,-2.090343475341797,-4.738097667694092
1761131555602355000,1.71535498046875,-1.129281997680664,-2.2937333583831787,-4.715184211730957
1761131555612354800,1.725354736328125,-1.313448429107666,-2.1038365364074707,-4.64003324508667
1761131555622354400,1.7353544921875,-1.3569707870483398,-1.6221647262573242,-4.541213035583496
1761131555632354600,1.7453544921875,-1.131103515625,-1.1713876724243164,-4.60616397857666
1761131555652354600,1.7653544921875,0.5768117904663086,-0.44883108139038086,-5.194611549377441
1761131555662353700,1.775353759765625,1.2580351829528809,0.07061147689819336,-5.151064872741699
1761131555672353500,1.785353515625,1.8577880859375,0.5243387222290039,-4.648041725158691
1761131555682353700,1.795353759765625,2.357079029083252,0.8222765922546387,-4.185927391052246
1761131555692353500,1.805353515625,2.601656436920166,1.0082721710205078,-3.6491737365722656
1761131555702353700,1.815353759765625,2.7688817977905273,1.0186972618103027,-3.4360015392303467
1761131555712353500,1.825353515625,2.9934334754943848,1.0075922012329102,-3.7017362117767334
1761131555722353700,1.835353759765625,2.7349743843078613,0.8963613510131836,-4.324820041656494
1761131555732353500,1.845353515625,2.6846389770507812,0.930060863494873,-4.257417678833008
1761131555742353700,1.855353759765625,1.7431344985961914,0.22500228881835938,-4.833166122436523
1761131555752353500,1.865353515625,1.3452253341674805,0.25086092948913574,-4.76613712310791
1761131555762354400,1.8753544921875,1.142542839050293,0.8477249145507812,-4.6718220710754395
1761131555772354600,1.8853544921875,1.274937629699707,1.6637463569641113,-4.379727840423584
1761131555782354400,1.8953544921875,1.4020967483520508,1.8984575271606445,-3.685624599456787
1761131555792354600,1.9053544921875,1.487809181213379,1.6307892799377441,-2.5501456260681152
1761131555802354400,1.9153544921875,1.4238033294677734,1.3057801723480225,-1.4574670791625977
1761131555812354600,1.9253544921875,1.2334365844726562,1.2272076606750488,-0.8143470287322998
1761131555822354400,1.9353544921875,1.0522394180297852,1.3202238082885742,-0.5786659717559814
1761131555832354600,1.9453544921875,0.9398250579833984,1.478621006011963,-0.7932083606719971
1761131555842354400,1.9553544921875,0.9818229675292969,1.736454963684082,-1.3567912578582764
1761131555852354600,1.9653544921875,1.0885581970214844,2.066210985183716,-1.9790456295013428
1761131555862353700,1.975353759765625,1.0799531936645508,2.2892024517059326,-2.2296817302703857
1761131555872353800,1.985353759765625,0.82373046875,2.3045148849487305,-2.1541738510131836
1761131555882353700,1.995353759765625,0.28050899505615234,2.145037889480591,-1.834038496017456
1761131555892353500,2.005353515625,-0.3261995315551758,2.0539162158966064,-1.5961889028549194
1761131555902353700,2.015353759765625,-0.8193359375,2.1194634437561035,-1.5773990154266357
1761131555912353500,2.025353515625,-1.2846465110778809,2.2791244983673096,-1.6733359098434448
1761131555922354000,2.03535400390625,-1.6638612747192383,2.454298973083496,-1.6975648403167725
1761131555932354000,2.04535400390625,-2.030752182006836,2.6310346126556396,-1.529902458190918
1761131555942354000,2.05535400390625,-2.437659740447998,2.7741806507110596,-1.100443959236145
1761131555952354000,2.06535400390625,-2.4932117462158203,2.8541455268859863,-0.9861065149307251
1761131555962355000,2.07535498046875,-2.2059803009033203,2.9552509784698486,-1.132495403289795
1761131555972354800,2.085354736328125,-1.805302619934082,3.016248941421509,-1.3323752880096436
1761131555982355000,2.09535498046875,-1.275568962097168,2.9633638858795166,-1.3453384637832642
1761131555992354800,2.105354736328125,-0.8564453125,2.783405303955078,-1.2905242443084717
1761131556002355000,2.11535498046875,-0.5776910781860352,2.589003801345825,-1.1620662212371826
1761131556012354800,2.125354736328125,-0.41447925567626953,2.538210868835449,-1.002990961074829
1761131556022355000,2.13535498046875,-0.3350028991699219,2.553239583969116,-0.9350712299346924
1761131556032354800,2.145354736328125,-0.3408823013305664,2.5774383544921875,-1.007548451423645
1761131556042355000,2.15535498046875,-0.3137779235839844,2.584296703338623,-1.1827727556228638
1761131556052355000,2.16535498046875,-0.13217449188232422,2.48008131980896,-1.4924778938293457
1761131556062354200,2.175354248046875,0.11485004425048828,2.268582344055176,-1.8022540807724
1761131556072354000,2.18535400390625,0.2593040466308594,2.0322020053863525,-1.9651907682418823
1761131556082354200,2.195354248046875,0.4958477020263672,1.7995946407318115,-1.967803716659546
1761131556092354000,2.20535400390625,0.8011837005615234,1.5355558395385742,-1.998784065246582
1761131556102354200,2.215354248046875,1.2098331451416016,1.3509807586669922,-2.1105575561523438
1761131556112354000,2.22535400390625,1.6501226425170898,1.1639001369476318,-2.226348876953125
1761131556122354200,2.235354248046875,2.245655059814453,0.989342451095581,-2.477879524230957
1761131556132354000,2.24535400390625,2.594853401184082,0.7986652851104736,-2.741905450820923
1761131556142354200,2.255354248046875,2.5881948471069336,0.8030674457550049,-2.711526393890381
1761131556152354000,2.26535400390625,2.5885086059570312,0.5245089530944824,-2.8706116676330566
1761131556162355000,2.27535498046875,2.2130508422851562,0.6312587261199951,-2.9770288467407227
1761131556172354800,2.285354736328125,1.6881752014160156,1.0344526767730713,-3.128716468811035
1761131556182355000,2.29535498046875,1.3599605560302734,1.3904452323913574,-3.297004222869873
1761131556192354800,2.305354736328125,1.1170463562011719,1.7170417308807373,-3.4155631065368652
1761131556202355000,2.31535498046875,1.015070915222168,2.0019826889038086,-3.382042407989502
1761131556212354800,2.325354736328125,0.8194770812988281,2.1774213314056396,-3.2639260292053223
1761131556222355000,2.33535498046875,0.6834564208984375,2.3500924110412598,-3.1550326347351074
1761131556232354800,2.345354736328125,0.7187099456787109,2.594017505645752,-2.945786476135254
1761131556242355000,2.35535498046875,0.8910551071166992,2.8171074390411377,-2.750394344329834
1761131556252354800,2.365354736328125,1.3577461242675781,2.898906946182251,-2.569302558898926
1761131556262354000,2.37535400390625,1.8883171081542969,2.6962146759033203,-2.361891746520996
1761131556272354000,2.38535400390625,2.18133544921875,2.1432766914367676,-1.894986867904663
1761131556282354000,2.39535400390625,2.371293067932129,1.5861313343048096,-1.224138855934143
1761131556292354000,2.40535400390625,2.264327049255371,1.0779147148132324,-0.9364595413208008
1761131556302354000,2.41535400390625,1.9823951721191406,0.74588942527771,-0.7839152216911316
1761131556312354000,2.42535400390625,1.4369220733642578,0.5695686340332031,-0.7210624814033508
1761131556322354000,2.43535400390625,0.7562332153320312,0.5001446008682251,-0.7423911094665527
1761131556332354000,2.44535400390625,0.011148452758789062,0.5617785453796387,-0.7936168313026428
1761131556342354000,2.45535400390625,-0.7315483093261719,0.7605271339416504,-0.7631403803825378
1761131556352354000,2.46535400390625,-1.816162109375,0.9952361583709717,-0.676701545715332
1761131556362355000,2.47535498046875,-2.7842984199523926,1.1339409351348877,-0.5957427024841309
1761131556372354800,2.485354736328125,-3.617729663848877,1.3567267656326294,-0.6772175431251526
1761131556382355000,2.49535498046875,-4.2748589515686035,1.5113543272018433,-0.8970639109611511
1761131556392354800,2.505354736328125,-4.68112325668335,1.5902090072631836,-1.0638734102249146
1761131556402355000,2.51535498046875,-5.000913143157959,1.5584222078323364,-1.2092055082321167
1761131556412354800,2.525354736328125,-5.061069965362549,1.4683787822723389,-1.4137980937957764
1761131556422355000,2.53535498046875,-4.857799053192139,1.351790189743042,-1.6448719501495361
1761131556432354800,2.545354736328125,-4.460966110229492,1.2007105350494385,-1.8524200916290283
1761131556442355000,2.55535498046875,-4.034388542175293,1.0991111993789673,-1.789668321609497
1761131556452354800,2.565354736328125,-3.6905112266540527,1.029313087463379,-1.482102394104004
1761131556462354000,2.57535400390625,-3.290750503540039,1.03764808177948,-0.9973019957542419
1761131556472354000,2.58535400390625,-2.9627885818481445,1.0638337135314941,-0.5586037635803223
1761131556482354000,2.59535400390625,-2.702399253845215,1.1598001718521118,-0.3260483741760254
1761131556492354000,2.60535400390625,-2.3759655952453613,1.2436878681182861,-0.23489415645599365
1761131556502354000,2.61535400390625,-1.8948135375976562,1.310602068901062,-0.21493685245513916
1761131556512354000,2.62535400390625,-1.3949060440063477,1.3197919130325317,-0.16386133432388306
1761131556522354000,2.63535400390625,-0.9375505447387695,1.2819119691848755,0.08860772848129272
1761131556532354000,2.64535400390625,-0.5956573486328125,1.1620832681655884,0.3720608949661255
1761131556542354000,2.65535400390625,-0.29120540618896484,1.0027090311050415,0.578277051448822
1761131556552354000,2.66535400390625,0.0039014816284179688,0.8363475799560547,0.6196391582489014
1761131556562355000,2.67535498046875,0.38956546783447266,0.6412174701690674,0.507571816444397
1761131556572354800,2.685354736328125,0.7842464447021484,0.46208786964416504,0.3237130641937256
1761131556582355000,2.69535498046875,1.0999164581298828,0.15241479873657227,0.13083767890930176
1761131556592354800,2.705354736328125,1.1949405670166016,-0.05599069595336914,0.038649916648864746
1761131556602355000,2.71535498046875,1.1237030029296875,-0.21938717365264893,0.07721710205078125
1761131556612354800,2.725354736328125,1.215712547302246,-0.179848313331604,0.05114400386810303
1761131556622355000,2.73535498046875,1.4223442077636719,0.03568768501281738,-0.06503582000732422
1761131556632354800,2.745354736328125,1.8779296875,0.28650736808776855,-0.12319731712341309
1761131556642355000,2.75535498046875,2.6571550369262695,0.6080832481384277,-0.09396600723266602
1761131556652354800,2.765354736328125,3.3657522201538086,0.8150405883789062,-0.01992201805114746
1761131556662354200,2.775354248046875,4.1912078857421875,0.9970877170562744,0.14691805839538574
1761131556672354300,2.785354248046875,4.9494524002075195,1.0457432270050049,0.37537145614624023
1761131556682354200,2.795354248046875,5.446833610534668,0.8915213346481323,0.5535184144973755
1761131556692354300,2.805354248046875,5.494884490966797,0.5190534591674805,0.7456350326538086
1761131556702354200,2.815354248046875,5.181495666503906,0.2648310661315918,0.8340067863464355
1761131556712354300,2.825354248046875,4.601774215698242,0.24218356609344482,0.7560877799987793
1761131556722354200,2.835354248046875,3.7210617065429688,0.5474401712417603,0.4399491548538208
1761131556732354000,2.84535400390625,2.6151580810546875,0.9700710773468018,0.1812969446182251
1761131556742354200,2.855354248046875,1.4080486297607422,1.3461670875549316,-0.007675647735595703
1761131556752354000,2.86535400390625,0.05325031280517578,1.7133809328079224,-0.1406407356262207
1761131556762355000,2.87535498046875,-0.9165859222412109,1.974196434020996,-0.2570458650588989
1761131556772355000,2.88535498046875,-1.7523717880249023,2.245023727416992,-0.36105602979660034
1761131556782355000,2.89535498046875,-2.4121274948120117,2.4465856552124023,-0.5032033920288086
1761131556792355000,2.90535498046875,-2.8660802841186523,2.575514793395996,-0.6653815507888794
1761131556802355200,2.915355224609375,-3.0284972190856934,2.57621431350708,-0.7897944450378418
1761131556812355000,2.92535498046875,-2.978886604309082,2.4821724891662598,-0.846447229385376
1761131556822355200,2.935355224609375,-2.8737354278564453,2.3835744857788086,-0.7263382077217102
1761131556832355000,2.94535498046875,-2.739269256591797,2.285982370376587,-0.5839831233024597
1761131556842355000,2.95535498046875,-2.624783515930176,2.270902633666992,-0.46300533413887024
1761131556852355000,2.96535498046875,-2.4885544776916504,2.4128522872924805,-0.4470929801464081
1761131556862354200,2.975354248046875,-2.36312198638916,2.5609421730041504,-0.3326813578605652
1761131556872354300,2.985354248046875,-2.4106907844543457,2.6468753814697266,-0.1402295082807541
1761131556882354200,2.995354248046875,-2.5855002403259277,2.6663451194763184,0.04651045799255371
1761131556892354300,3.005354248046875,-2.770113468170166,2.743509292602539,0.17262119054794312
1761131556902354200,3.015354248046875,-2.962130546569824,2.906890869140625,0.28566163778305054
1761131556912354300,3.025354248046875,-3.202317714691162,3.0021071434020996,0.37708961963653564
1761131556922354200,3.035354248046875,-3.373506546020508,3.0098533630371094,0.334139883518219
1761131556932354300,3.045354248046875,-3.4377365112304688,3.0132789611816406,0.2105967104434967
1761131556942354200,3.055354248046875,-3.349931240081787,3.057617664337158,0.048675112426280975
1761131556952354300,3.065354248046875,-3.1105823516845703,3.0588173866271973,-0.2081366777420044
1761131556962355000,3.07535498046875,-2.744049549102783,2.9889886379241943,-0.3427784740924835
1761131556972354800,3.085354736328125,-2.2051448822021484,2.864393711090088,-0.49534446001052856
1761131556982355000,3.09535498046875,-1.6090736389160156,2.7059662342071533,-0.6434662342071533
1761131556992355000,3.10535498046875,-1.0139179229736328,2.5872044563293457,-0.7416788339614868
1761131557002355000,3.11535498046875,-0.5532779693603516,2.4918501377105713,-0.7798222899436951
1761131557012355000,3.12535498046875,-0.2628297805786133,2.467731475830078,-0.8459881544113159
1761131557022355000,3.13535498046875,-0.05604362487792969,2.4857964515686035,-0.8668659925460815
1761131557032355000,3.14535498046875,0.0029163360595703125,2.5385169982910156,-1.0147734880447388
1761131557042355000,3.15535498046875,0.0337677001953125,2.5144777297973633,-1.2133482694625854
1761131557052355000,3.16535498046875,0.12258625030517578,2.3580715656280518,-1.4165630340576172
1761131557062354200,3.175354248046875,0.2451333999633789,2.081303119659424,-1.66648530960083
1761131557072354000,3.18535400390625,0.25234413146972656,2.0444083213806152,-1.609214186668396
1761131557082354200,3.195354248046875,0.4907255172729492,1.5581345558166504,-2.088538408279419
1761131557092354000,3.20535400390625,0.6008396148681641,1.3962388038635254,-2.2359161376953125
1761131557102354200,3.215354248046875,0.7573490142822266,1.455561876296997,-2.455484628677368
1761131557112354000,3.22535400390625,0.8741855621337891,1.620932698249817,-2.5781705379486084
1761131557122354200,3.235354248046875,1.066664695739746,1.7787822484970093,-2.621612548828125
1761131557132354000,3.24535400390625,1.3420648574829102,1.8715375661849976,-2.5377328395843506
1761131557142354200,3.255354248046875,1.7050256729125977,1.984604001045227,-2.210526466369629
1761131557152354000,3.26535400390625,2.0758132934570312,1.9939497709274292,-1.8325550556182861
1761131557162355000,3.27535498046875,2.580746650695801,1.862288475036621,-1.47468900680542
1761131557172354800,3.285354736328125,2.5740842819213867,1.896481990814209,-1.4872472286224365
1761131557182355000,3.29535498046875,2.964655876159668,1.3758819103240967,-1.1506038904190063
1761131557192354800,3.305354736328125,2.9301891326904297,1.2771549224853516,-1.2488714456558228
1761131557202355000,3.31535498046875,2.7540245056152344,1.3668951988220215,-1.4016655683517456
1761131557212354800,3.325354736328125,2.5128345489501953,1.5865949392318726,-1.5552146434783936
1761131557222355000,3.33535498046875,2.225630760192871,1.845901608467102,-1.5943061113357544
1761131557232354800,3.345354736328125,2.225762367248535,1.8466297388076782,-1.5888707637786865
1761131557242355000,3.35535498046875,2.026447296142578,1.8071658611297607,-1.1472957134246826
1761131557252354800,3.365354736328125,2.045924186706543,1.7569100856781006,-0.7309173345565796
1761131557262354200,3.375354248046875,2.025467872619629,1.7261463403701782,-0.15781307220458984
1761131557272354000,3.38535400390625,1.8220491409301758,1.590312123298645,0.5389648079872131
1761131557282354000,3.39535400390625,1.393423080444336,1.5110198259353638,1.3088414669036865
1761131557292354000,3.40535400390625,0.9076995849609375,1.5009666681289673,1.6758017539978027
1761131557302354200,3.415354248046875,0.4702920913696289,1.5209730863571167,1.8354623317718506
1761131557312354000,3.42535400390625,0.09082412719726562,1.4929569959640503,1.734027624130249
1761131557322354200,3.435354248046875,-0.3883695602416992,1.3563721179962158,1.5211613178253174
1761131557332354000,3.44535400390625,-1.1174449920654297,1.2192167043685913,1.2446061372756958
1761131557342354000,3.45535400390625,-1.8874750137329102,1.1876497268676758,1.1479113101959229
1761131557352354000,3.46535400390625,-2.620760917663574,1.2093000411987305,1.055232286453247
1761131557362355000,3.47535498046875,-3.290668487548828,1.275535225868225,0.9321674108505249
1761131557372354800,3.485354736328125,-3.881568431854248,1.3534914255142212,0.7813326120376587
1761131557382355000,3.49535498046875,-4.377741813659668,1.40585458278656,0.7525712251663208
1761131557392354800,3.505354736328125,-4.7940850257873535,1.3724950551986694,0.892296552658081
1761131557402355000,3.51535498046875,-5.070401668548584,1.2637546062469482,1.1024930477142334
1761131557412354800,3.525354736328125,-5.255413055419922,1.143013834953308,1.3010255098342896
1761131557422355000,3.53535498046875,-5.241937637329102,1.0713701248168945,1.2941192388534546
1761131557432354800,3.545354736328125,-5.224490165710449,1.0069118738174438,1.3507356643676758
1761131557442355000,3.55535498046875,-4.784449577331543,0.9973342418670654,1.1344815492630005
1761131557452354800,3.565354736328125,-4.3891682624816895,0.8500454425811768,0.8806602358818054
1761131557462354000,3.57535400390625,-3.808337688446045,0.7180783748626709,0.5564755797386169
1761131557472354000,3.58535400390625,-3.8007540702819824,0.6798841953277588,0.5333955883979797
1761131557482354000,3.59535400390625,-2.7906599044799805,0.5415711402893066,0.022754579782485962
1761131557492354000,3.60535400390625,-2.431306838989258,0.3779761791229248,-0.09937551617622375
1761131557502354000,3.61535400390625,-2.2883195877075195,0.2500605583190918,-0.17603081464767456
1761131557512354000,3.62535400390625,-2.409144878387451,0.2925419807434082,-0.2780594229698181
1761131557522354000,3.63535400390625,-2.5401597023010254,0.5017409324645996,-0.3953525424003601
1761131557532354000,3.64535400390625,-2.60300874710083,0.7298479080200195,-0.5362797975540161
1761131557542354000,3.65535400390625,-2.5006303787231445,0.873394250869751,-0.5556394457817078
1761131557552354000,3.66535400390625,-2.282299041748047,0.9898488521575928,-0.4336772561073303
1761131557562355000,3.67535498046875,-1.925318717956543,0.8534424304962158,-0.15071550011634827
1761131557572354800,3.685354736328125,-1.4066619873046875,0.6324155330657959,0.08636285364627838
1761131557582355000,3.69535498046875,-0.6437253952026367,0.45073962211608887,0.11682674288749695
1761131557592354800,3.705354736328125,0.1305990219116211,0.4404017925262451,-0.09340871870517731
1761131557602355000,3.71535498046875,1.0505704879760742,0.5157358646392822,-0.3593624532222748
1761131557612354800,3.725354736328125,2.160059928894043,0.6209187507629395,-0.4744874835014343
1761131557622354000,3.73535400390625,3.2238025665283203,0.6628944873809814,-0.41718488931655884
1761131557632354000,3.74535400390625,4.369739532470703,0.5451488494873047,-0.13234324753284454
1761131557642354000,3.75535400390625,5.219043731689453,0.44675540924072266,0.2064453661441803
1761131557652354000,3.76535400390625,5.816564559936523,0.5590395927429199,0.4266648292541504
1761131557662353200,3.775353271484375,6.128073692321777,0.7125349044799805,0.48824894428253174
1761131557672353300,3.785353271484375,6.099207878112793,0.8579541444778442,0.5467454791069031
1761131557682353200,3.795353271484375,5.797001838684082,0.9896100759506226,0.5961410403251648
1761131557692353300,3.805353271484375,5.427597999572754,1.1714894771575928,0.5326741933822632
1761131557702353200,3.815353271484375,5.011654853820801,1.316372275352478,0.5136769413948059
1761131557712353000,3.82535302734375,4.662283897399902,1.3690547943115234,0.5122470259666443
1761131557722353200,3.835353271484375,4.455842018127441,1.3842226266860962,0.5500910878181458
1761131557732353000,3.84535302734375,4.449880599975586,1.4134143590927124,0.5662528872489929
1761131557742353200,3.855353271484375,3.1073122024536133,1.4956122636795044,1.3321316242218018
1761131557752353000,3.86535302734375,2.12551212310791,1.5781875848770142,1.9661134481430054
1761131557762354000,3.87535400390625,1.1018657684326172,1.791282057762146,2.340510368347168
1761131557772354000,3.88535400390625,0.06221771240234375,2.10109543800354,2.3614907264709473
1761131557782354000,3.89535400390625,-0.7690000534057617,2.321168899536133,2.1534385681152344
1761131557792354000,3.90535400390625,-1.3733329772949219,2.33656644821167,1.7345916032791138
1761131557802354000,3.91535400390625,-1.8638339042663574,2.2183191776275635,1.1407759189605713
1761131557812354000,3.92535400390625,-2.2526278495788574,1.9913002252578735,0.678577721118927
1761131557822354000,3.93535400390625,-2.716610908508301,1.7631075382232666,0.3235035240650177
1761131557832354000,3.94535400390625,-3.230653762817383,1.6365023851394653,0.025131404399871826
1761131557842354000,3.95535400390625,-3.6668968200683594,1.593727469444275,-0.2795410454273224
1761131557852354000,3.96535400390625,-4.050158500671387,1.6355485916137695,-0.553510308265686
1761131557862353200,3.975353271484375,-4.2627363204956055,1.7426608800888062,-0.895403265953064
1761131557872353300,3.985353271484375,-4.411308765411377,1.885949969291687,-1.0917725563049316
1761131557882353200,3.995353271484375,-4.438348293304443,1.9901759624481201,-1.2450060844421387
1761131557892353300,4.005353271484375,-4.396754741668701,2.0767436027526855,-1.2519711256027222
1761131557902353200,4.015353271484375,-4.265074253082275,2.1950557231903076,-1.156775951385498
1761131557912353300,4.025353271484375,-4.146404266357422,2.323875665664673,-0.9906147718429565
1761131557922354000,4.03535400390625,-4.020933628082275,2.399587631225586,-0.8462085127830505
1761131557932354000,4.04535400390625,-3.8437066078186035,2.463496685028076,-0.7469406723976135
1761131557942354000,4.05535400390625,-3.6389966011047363,2.5495595932006836,-0.7848559617996216
1761131557952354000,4.06535400390625,-3.2945542335510254,2.5951428413391113,-0.8653692007064819
1761131557962355000,4.07535498046875,-2.839435577392578,2.633305072784424,-0.9011699557304382
1761131557972354800,4.085354736328125,-2.384126663208008,2.567697048187256,-0.9724788665771484
1761131557982355000,4.09535498046875,-1.95518159866333,2.435227394104004,-1.029700756072998
1761131557992354800,4.105354736328125,-1.614891529083252,2.228705406188965,-0.9962117075920105
1761131558002355000,4.11535498046875,-1.2053508758544922,2.127903938293457,-1.0741063356399536
1761131558012354800,4.125354736328125,-0.8679513931274414,2.085310220718384,-1.1799763441085815
1761131558022355000,4.13535498046875,-0.8564033508300781,2.0379326343536377,-1.2090158462524414
1761131558032354800,4.145354736328125,-0.5361671447753906,1.9320406913757324,-1.3116098642349243
1761131558042355000,4.15535498046875,-0.4362373352050781,1.9097225666046143,-1.415404200553894
1761131558052355000,4.16535498046875,-0.25984859466552734,1.9806175231933594,-1.6966197490692139
1761131558062354200,4.175354248046875,-0.04568195343017578,2.026972532272339,-2.090451240539551
1761131558072354000,4.18535400390625,0.0913076400756836,1.9658474922180176,-2.301670551300049
1761131558082354200,4.195354248046875,0.13455581665039062,1.799537181854248,-2.3873977661132812
1761131558092354000,4.20535400390625,0.14371109008789062,1.7638823986053467,-2.333799362182617
1761131558102354200,4.215354248046875,0.5154762268066406,1.6173388957977295,-2.3366289138793945
1761131558112354000,4.22535400390625,0.5214366912841797,1.5960314273834229,-2.297822952270508
1761131558122354200,4.235354248046875,1.238368034362793,1.6606321334838867,-2.2203052043914795
1761131558132354000,4.24535400390625,1.6699581146240234,1.6992368698120117,-2.2088983058929443
1761131558142354200,4.255354248046875,2.3119449615478516,1.6348209381103516,-2.2105181217193604
1761131558152354000,4.26535400390625,2.9532032012939453,1.5650160312652588,-2.126193046569824
1761131558162355000,4.27535498046875,2.9462032318115234,1.590470314025879,-2.138821840286255
1761131558172354800,4.285354736328125,3.86490535736084,1.4516735076904297,-1.9487119913101196
1761131558182355000,4.29535498046875,4.154644966125488,1.3657903671264648,-1.6660035848617554
1761131558192354800,4.305354736328125,4.319681167602539,1.2601101398468018,-1.4433320760726929
1761131558202355000,4.31535498046875,4.295941352844238,1.2519147396087646,-1.2503105401992798
1761131558212354800,4.325354736328125,4.098100662231445,1.1770403385162354,-1.1077114343643188
1761131558222355000,4.33535498046875,3.71445369720459,1.0630333423614502,-0.9973163604736328
1761131558232354800,4.345354736328125,3.1949453353881836,1.0763907432556152,-1.027746558189392
1761131558242355000,4.35535498046875,2.637009620666504,1.2202138900756836,-1.1653324365615845
1761131558252354800,4.365354736328125,2.0277366638183594,1.35007643699646,-1.2912923097610474
1761131558262354000,4.37535400390625,1.5696468353271484,1.378981590270996,-1.2400953769683838
1761131558272354000,4.38535400390625,1.579824447631836,1.3428852558135986,-1.215592384338379
1761131558282354000,4.39535400390625,0.7497167587280273,1.3034179210662842,-0.5214909911155701
1761131558292354000,4.40535400390625,0.43575000762939453,1.170511245727539,-0.03370996192097664
1761131558302354000,4.41535400390625,0.21389484405517578,0.8515338897705078,0.2854258418083191
1761131558312354000,4.42535400390625,-0.015783309936523438,0.5240075588226318,0.46312183141708374
1761131558322354000,4.43535400390625,-0.4170875549316406,0.24062371253967285,0.6347904801368713
1761131558332354000,4.44535400390625,-0.935908317565918,0.11365985870361328,0.6940780878067017
1761131558342354000,4.45535400390625,-1.5086588859558105,0.09285354614257812,0.774588942527771
1761131558352354000,4.46535400390625,-2.0523600578308105,0.11755776405334473,0.8915029764175415
1761131558362354700,4.475354736328125,-2.5350985527038574,0.12767577171325684,0.9390944242477417
1761131558372354800,4.485354736328125,-2.9741334915161133,0.16841578483581543,0.8839331865310669
1761131558382354700,4.495354736328125,-3.5130691528320312,0.25445556640625,0.6867974996566772
1761131558392354800,4.505354736328125,-3.796529769897461,0.251967191696167,0.5567823648452759
1761131558402354700,4.515354736328125,-4.118513584136963,0.17130064964294434,0.5848766565322876
1761131558412354800,4.525354736328125,-4.460195541381836,0.11161041259765625,0.6256950497627258
1761131558422354700,4.535354736328125,-4.79400110244751,0.1114494800567627,0.6552168130874634
1761131558432354800,4.545354736328125,-5.033702850341797,0.09386086463928223,0.6437416076660156
1761131558442354700,4.555354736328125,-5.213512897491455,0.11320066452026367,0.7456146478652954
1761131558452354800,4.565354736328125,-5.302859783172607,0.17845654487609863,0.7207308411598206
1761131558462354000,4.57535400390625,-5.24275016784668,0.23936176300048828,0.6950230002403259
1761131558472354000,4.58535400390625,-5.2305498123168945,0.20483684539794922,0.7131421566009521
1761131558482354000,4.59535400390625,-4.553595066070557,0.41844820976257324,0.6929935216903687
1761131558492354000,4.60535400390625,-3.95888090133667,0.5019292831420898,0.6841788291931152
1761131558502354000,4.61535400390625,-3.4034128189086914,0.43709349632263184,0.6890197992324829
1761131558512354000,4.62535400390625,-2.8617749214172363,0.23569679260253906,0.6528317928314209
1761131558522354000,4.63535400390625,-2.490509033203125,0.03083348274230957,0.6380724906921387
1761131558532354000,4.64535400390625,-2.317051410675049,-0.07539916038513184,0.4973454475402832
1761131558542354000,4.65535400390625,-2.144489288330078,-0.005484104156494141,0.34708625078201294
1761131558552354000,4.66535400390625,-2.0133166313171387,0.22078800201416016,0.1433430314064026
1761131558562355000,4.67535498046875,-1.897538185119629,0.4150047302246094,-0.1044461652636528
1761131558572354800,4.685354736328125,-1.663896083831787,0.5504961013793945,-0.29044270515441895
1761131558582355000,4.69535498046875,-1.3400921821594238,0.638068675994873,-0.16072525084018707
1761131558592354800,4.705354736328125,-0.8648996353149414,0.6325464248657227,0.2584395706653595
1761131558602355000,4.71535498046875,-0.2060108184814453,0.5685350894927979,0.7025651335716248
1761131558612354800,4.725354736328125,0.6620473861694336,0.4508061408996582,1.028512954711914
1761131558622355000,4.73535498046875,0.6521339416503906,0.47991466522216797,0.9681156873703003
1761131558632354800,4.745354736328125,2.46602725982666,0.32298994064331055,1.0020185708999634
1761131558652354800,4.765354736328125,3.634939193725586,0.17513680458068848,0.7293064594268799
1761131558662354000,4.77535400390625,3.998366355895996,0.12425756454467773,0.6890368461608887
1761131558672354000,4.78535400390625,4.283170700073242,0.3622865676879883,0.6253069639205933
1761131558682354000,4.79535400390625,4.583216667175293,0.7177700996398926,0.6940016746520996
1761131558692354000,4.80535400390625,4.963433265686035,1.1018316745758057,0.8161540031433105
1761131558702354000,4.81535400390625,5.239596366882324,1.261575698852539,1.0110087394714355
1761131558722354000,4.83535400390625,5.188764572143555,0.8171365261077881,1.7268767356872559
1761131558732354000,4.84535400390625,4.69688606262207,0.6204321384429932,2.0598292350769043
1761131558742354000,4.85535400390625,3.8809986114501953,0.5326380729675293,2.2545928955078125
1761131558752354000,4.86535400390625,2.870159149169922,0.6161351203918457,2.3924992084503174
1761131558762355000,4.87535498046875,1.8650522232055664,0.854374885559082,2.317824363708496
1761131558782355000,4.89535498046875,-0.08326339721679688,1.5024168491363525,1.9036990404129028
1761131558792354800,4.905354736328125,-0.758997917175293,1.5431225299835205,1.7549587488174438
1761131558802355000,4.91535498046875,-1.2587099075317383,1.461531162261963,1.5720094442367554
1761131558812354800,4.925354736328125,-1.2651786804199219,1.4798979759216309,1.6106903553009033
1761131558822354000,4.93535400390625,-1.9237031936645508,1.1891343593597412,1.026039958000183
1761131558832354000,4.94535400390625,-2.0614213943481445,1.0900816917419434,0.7880626320838928
1761131558842354000,4.95535400390625,-2.1892528533935547,1.1055030822753906,0.5438475012779236
1761131558852354000,4.96535400390625,-2.3902430534362793,1.1243648529052734,0.32755255699157715
1761131558862353200,4.975353271484375,-2.5737881660461426,1.1247954368591309,0.09752112627029419
1761131558872353000,4.98535302734375,-2.8116116523742676,1.1351573467254639,-0.14276428520679474
1761131558882353200,4.995353271484375,-3.025977611541748,1.1922781467437744,-0.3785088360309601
1761131558892353000,5.00535302734375,-3.1777076721191406,1.3142766952514648,-0.5984165072441101
1761131558902353200,5.015353271484375,-3.2920589447021484,1.4697256088256836,-0.7234931588172913
1761131558912353000,5.02535302734375,-3.4526615142822266,1.611361026763916,-0.7399892807006836
1761131558922353200,5.035353271484375,-3.575852394104004,1.6812841892242432,-0.7660186290740967
1761131558932353000,5.04535302734375,-3.731210231781006,1.7012436389923096,-0.6882664561271667
1761131558942353200,5.055353271484375,-3.7227206230163574,1.6655051708221436,-0.6740856170654297
1761131558952353000,5.06535302734375,-3.8861374855041504,1.7661683559417725,-0.7177867293357849
1761131558962354000,5.07535400390625,-3.886941432952881,1.8392906188964844,-0.7635701894760132
1761131558972353800,5.085353759765625,-3.8982248306274414,1.9579179286956787,-0.9882863163948059
1761131558982354000,5.09535400390625,-3.868086814880371,2.0633556842803955,-1.1471482515335083
1761131558992354000,5.10535400390625,-3.6918368339538574,2.155932903289795,-1.3758738040924072
1761131559002354000,5.11535400390625,-3.4446663856506348,2.2174177169799805,-1.560045838356018
1761131559012354000,5.12535400390625,-3.053299903869629,2.2458553314208984,-1.6243581771850586
1761131559022354000,5.13535400390625,-2.49208402633667,2.241093873977661,-1.5663493871688843
1761131559032354000,5.14535400390625,-1.9075207710266113,2.1582283973693848,-1.4392938613891602
1761131559042354000,5.15535400390625,-1.4288291931152344,2.0052554607391357,-1.39211106300354
1761131559052354000,5.16535400390625,-1.0698089599609375,1.808814287185669,-1.4361058473587036
1761131559062353200,5.175353271484375,-0.6719207763671875,1.6696252822875977,-1.6911060810089111
1761131559072353300,5.185353271484375,-0.17749881744384766,1.607642412185669,-2.2984378337860107
1761131559082353200,5.195353271484375,0.22383403778076172,1.628148078918457,-2.8920300006866455
1761131559092353000,5.20535302734375,0.45053577423095703,1.6881294250488281,-3.3600382804870605
1761131559102353200,5.215353271484375,0.4485492706298828,1.6941213607788086,-3.3034861087799072
1761131559112353000,5.22535302734375,0.5080585479736328,1.8154253959655762,-3.4732372760772705
1761131559122354000,5.23535400390625,0.6897010803222656,2.191822052001953,-3.096565008163452
1761131559132354000,5.24535400390625,1.3081979751586914,2.41752290725708,-2.8492093086242676
1761131559142354000,5.25535400390625,1.9190645217895508,2.4479408264160156,-2.5254061222076416
1761131559152354000,5.26535400390625,2.3739490509033203,2.2540483474731445,-2.1910948753356934
1761131559162355000,5.27535498046875,2.5188283920288086,2.0287046432495117,-1.7718693017959595
1761131559172354800,5.285354736328125,2.5490570068359375,1.9184365272521973,-1.3233697414398193
1761131559182355000,5.29535498046875,2.541584014892578,1.9458379745483398,-1.3391780853271484
1761131559192354800,5.305354736328125,2.842837333679199,2.074904203414917,-1.2523536682128906
1761131559202355000,5.31535498046875,3.2344722747802734,2.1542201042175293,-1.620292067527771
1761131559212354800,5.325354736328125,3.498847007751465,2.120835304260254,-1.8981807231903076
1761131559222355000,5.33535498046875,3.5028820037841797,1.8342859745025635,-1.9002562761306763
1761131559232354800,5.345354736328125,3.1929407119750977,1.4969353675842285,-1.765109896659851
1761131559242355000,5.35535498046875,2.783247947692871,1.338597297668457,-1.5943629741668701
1761131559252354800,5.365354736328125,2.3079872131347656,1.5195143222808838,-1.5696008205413818
1761131559262354000,5.37535400390625,1.9561767578125,1.9301586151123047,-1.5904515981674194
1761131559272354000,5.38535400390625,1.7267875671386719,2.3564324378967285,-1.4658297300338745
1761131559282354000,5.39535400390625,1.591874122619629,2.6366379261016846,-1.1580406427383423
1761131559292354000,5.40535400390625,1.4588432312011719,2.6897804737091064,-0.49918749928474426
1761131559302354200,5.415354248046875,1.4651985168457031,2.6629507541656494,-0.5441462993621826
1761131559312354000,5.42535400390625,1.2180328369140625,2.500033140182495,0.3799018859863281
1761131559322354200,5.435354248046875,0.4717559814453125,1.8179512023925781,2.122126817703247
1761131559332354000,5.44535400390625,0.12139606475830078,1.4017281532287598,2.6457901000976562
1761131559342354000,5.45535400390625,-0.18062782287597656,0.9552998542785645,2.7983243465423584
1761131559352354000,5.46535400390625,-0.13481807708740234,0.4897792339324951,2.6452057361602783
1761131559362354700,5.475354736328125,0.25948238372802734,0.024805545806884766,1.9452128410339355
1761131559372354800,5.485354736328125,0.5224895477294922,-0.2548654079437256,1.157684087753296
1761131559382354700,5.495354736328125,0.5988473892211914,-0.46235132217407227,0.5609840750694275
1761131559392354800,5.505354736328125,0.36614036560058594,-0.7292279005050659,0.11462821066379547
1761131559402354700,5.515354736328125,-0.15465354919433594,-0.8932043313980103,-0.07245510816574097
1761131559412354800,5.525354736328125,-0.8832607269287109,-0.8836055994033813,-0.06506536155939102
1761131559422355000,5.53535498046875,-1.7757806777954102,-0.6959869861602783,0.15838958323001862
1761131559432354800,5.545354736328125,-2.683281421661377,-0.43212878704071045,0.44640031456947327
1761131559442355000,5.55535498046875,-3.4862256050109863,-0.04975318908691406,0.6019955277442932
1761131559452354800,5.565354736328125,-4.204161167144775,0.3366518020629883,0.7467764019966125
1761131559462354000,5.57535400390625,-4.783071994781494,0.6008729934692383,0.8726739883422852
1761131559472354000,5.58535400390625,-5.259915351867676,0.7098071575164795,0.9461783170700073
1761131559482354000,5.59535400390625,-5.6465654373168945,0.6684904098510742,1.0030367374420166
1761131559492354000,5.60535400390625,-5.849230766296387,0.514336109161377,1.0025733709335327
1761131559502354000,5.61535400390625,-5.87940788269043,0.43733930587768555,0.8563000559806824
1761131559512354000,5.62535400390625,-5.683771133422852,0.4159660339355469,0.5387524366378784
1761131559522354000,5.63535400390625,-5.405155181884766,0.4855790138244629,0.1106773167848587
1761131559532354000,5.64535400390625,-4.747332572937012,0.5999288558959961,-0.15219023823738098
1761131559542354000,5.65535400390625,-3.7244315147399902,0.6044812202453613,-0.14279668033123016
1761131559552354000,5.66535400390625,-2.7666707038879395,0.5468711853027344,-0.04521086812019348
1761131559562355000,5.67535498046875,-1.939371109008789,0.4853661060333252,-0.012679047882556915
1761131559572354800,5.685354736328125,-1.2279539108276367,0.37151026725769043,0.052590202540159225
1761131559582321700,5.69532177734375,-0.6418466567993164,0.3019373416900635,0.06914211064577103
1761131559592288300,5.705288330078125,-0.19394683837890625,0.45017075538635254,-0.042220234870910645
1761131559602254800,5.7152548828125,-0.03209686279296875,0.7175488471984863,-0.27720439434051514
1761131559612221400,5.725221435546875,0.05451202392578125,0.916609525680542,-0.3909907341003418
1761131559622188300,5.735188232421875,0.0031023025512695312,0.9583263397216797,-0.3080843687057495
1761131559632155000,5.74515478515625,-0.14220333099365234,0.8621785640716553,-0.2564696669578552
1761131559642121500,5.75512158203125,-0.2441244125366211,0.700875997543335,-0.11647520214319229
1761131559652088300,5.76508837890625,-0.16727066040039062,0.621983528137207,-0.03086508810520172
1761131559662054100,5.77505419921875,-0.16227149963378906,0.6075708866119385,-0.06695719063282013
1761131559672020700,5.785020751953125,0.7847824096679688,1.160581350326538,-0.4693342447280884
1761131559681987300,5.7949873046875,1.3999462127685547,1.298449993133545,-0.4655537009239197
1761131559691954200,5.8049541015625,1.8984260559082031,1.19858717918396,-0.28290486335754395
1761131559701920800,5.814920654296875,2.353506088256836,0.9087889194488525,0.0041866302490234375
1761131559711887400,5.824887451171875,2.7203216552734375,0.8356547355651855,0.1571003794670105
1761131559721854000,5.83485400390625,3.1290884017944336,0.9599683284759521,0.19273436069488525
1761131559731820800,5.84482080078125,3.598142623901367,1.1735622882843018,-0.0828142762184143
1761131559741787400,5.854787353515625,4.159930229187012,1.3042256832122803,-0.4017298221588135
1761131559751754000,5.86475390625,4.401711463928223,1.414365291595459,-0.5603931546211243
1761131559761721600,5.8747216796875,4.595727920532227,1.3207273483276367,-0.6599863767623901
1761131559771688200,5.884688232421875,4.795495986938477,1.1058719158172607,-0.532731294631958
1761131559781655000,5.894655029296875,4.5108795166015625,0.9353406429290771,-0.39396101236343384
1761131559791621600,5.90462158203125,4.503537178039551,0.9648323059082031,-0.379014790058136
1761131559801588200,5.914588134765625,3.436944007873535,0.5977499485015869,-0.12011590600013733
1761131559811555000,5.92455517578125,2.3832502365112305,0.3385908603668213,-0.04774782061576843
1761131559821521700,5.934521728515625,1.4576644897460938,0.19551372528076172,0.12578067183494568
1761131559831488300,5.94448828125,0.5695962905883789,0.1476752758026123,0.14945188164710999
1761131559841454800,5.954454833984375,-0.17935943603515625,0.1293950080871582,-0.053205281496047974
1761131559851421700,5.964421630859375,-0.4316720962524414,0.1263597011566162,-0.1953795850276947
1761131559861387500,5.974387451171875,-0.42824649810791016,0.32912468910217285,-0.20386840403079987
1761131559871354000,5.98435400390625,-0.594029426574707,0.6695907115936279,-0.009721875190734863
1761131559881354000,5.99435400390625,-0.7829160690307617,0.8431625366210938,0.30686452984809875
1761131559891354000,6.00435400390625,-0.8483266830444336,0.8235745429992676,0.5583435297012329
1761131559901354000,6.01435400390625,-1.2136812210083008,0.5980386734008789,0.5329198837280273
1761131559911354000,6.02435400390625,-1.4931230545043945,0.38597536087036133,0.14840298891067505
1761131559921354000,6.03435400390625,-1.4466924667358398,0.4340900182723999,-0.36239367723464966
1761131559931353900,6.044353759765625,-1.3941020965576172,0.7725577354431152,-1.1685943603515625
1761131559941354000,6.05435400390625,-1.208953857421875,1.160409688949585,-1.7315146923065186
1761131559951353900,6.064353759765625,-1.0138015747070312,1.337347149848938,-1.918699026107788
1761131559961354800,6.074354736328125,-0.9341459274291992,1.2955795526504517,-1.7096149921417236
1761131559971355000,6.08435498046875,-1.053236961364746,1.1245261430740356,-1.2469314336776733
1761131559981354800,6.094354736328125,-1.2252492904663086,0.9681938886642456,-0.6632882952690125
1761131559991355000,6.10435498046875,-1.4434700012207031,1.0108052492141724,0.030246704816818237
1761131560001354800,6.114354736328125,-1.6246213912963867,1.2187681198120117,0.35320499539375305
1761131560011355000,6.12435498046875,-1.855456829071045,1.330538034439087,0.4209861159324646
1761131560021354800,6.134354736328125,-2.1293206214904785,1.3483089208602905,0.4539779722690582
1761131560031355000,6.14435498046875,-2.3677945137023926,1.3152003288269043,0.395982950925827
1761131560041354800,6.154354736328125,-2.564535617828369,1.2175722122192383,0.2844458222389221
1761131560051355000,6.16435498046875,-2.869767665863037,0.9977552890777588,0.26790720224380493
1761131560061354000,6.17435400390625,-2.886596202850342,0.842005729675293,0.24206268787384033
1761131560071353900,6.184353759765625,-2.7142744064331055,0.8121501207351685,0.15973401069641113
1761131560081354000,6.19435400390625,-2.348878860473633,0.8345787525177002,-0.05007704719901085
1761131560091353900,6.204353759765625,-1.89601469039917,0.775702953338623,-0.30856359004974365
1761131560101354000,6.21435400390625,-1.4389877319335938,0.6257767677307129,-0.44770127534866333
1761131560111353900,6.224353759765625,-1.096583366394043,0.4859449863433838,-0.5669497847557068
1761131560121354000,6.23435400390625,-0.966059684753418,0.3473491668701172,-0.7032800912857056
1761131560131353900,6.244353759765625,-0.9364938735961914,0.29720842838287354,-0.872623860836029
1761131560141354000,6.25435400390625,-0.8850584030151367,0.33656203746795654,-1.0928385257720947
1761131560151353900,6.264353759765625,-0.7443122863769531,0.52073073387146,-1.4748620986938477
1761131560161354800,6.274354736328125,-0.7460403442382812,0.5293656587600708,-1.4441791772842407
1761131560171355000,6.28435498046875,-0.73638916015625,1.0756913423538208,-1.9686081409454346
1761131560181354800,6.294354736328125,-0.9396839141845703,1.3688290119171143,-1.8042538166046143
1761131560191355000,6.30435498046875,-1.1568946838378906,1.6540415287017822,-1.5724505186080933
1761131560201354800,6.314354736328125,-1.3428516387939453,1.9544641971588135,-1.4260882139205933
1761131560211355000,6.32435498046875,-1.557912826538086,2.2797489166259766,-1.276249647140503
1761131560221354000,6.33435400390625,-1.8432469367980957,2.538841724395752,-1.1401252746582031
1761131560231354000,6.34435400390625,-1.8884520530700684,2.845853090286255,-1.1106538772583008
1761131560241354000,6.35435400390625,-1.5295820236206055,3.2600581645965576,-0.9622899293899536
1761131560251354000,6.36435400390625,-1.1268415451049805,3.6490731239318848,-0.8279035091400146
1761131560261353200,6.374353271484375,-1.1189804077148438,3.6130340099334717,-0.8509571552276611
1761131560271353000,6.38435302734375,-0.31115150451660156,3.164431095123291,-0.6573642492294312
1761131560281353200,6.394353271484375,0.14215469360351562,2.528930187225342,-0.7942959070205688
1761131560291353000,6.40435302734375,0.4167499542236328,2.214993476867676,-1.3763163089752197
1761131560301353200,6.414353271484375,0.7093219757080078,2.216484785079956,-2.339400053024292
1761131560311353000,6.42435302734375,0.9060344696044922,2.259915828704834,-3.1982202529907227
1761131560321353200,6.434353271484375,1.0611209869384766,2.0274808406829834,-3.603933811187744
1761131560331353000,6.44435302734375,1.215601921081543,1.8060953617095947,-3.8611278533935547
1761131560341353200,6.454353271484375,1.241628646850586,1.5559167861938477,-3.6737914085388184
1761131560351353000,6.46435302734375,1.4874076843261719,1.0480883121490479,-2.6888785362243652
1761131560361354000,6.47435400390625,2.3552255630493164,0.5928137302398682,-1.8327348232269287
1761131560371354000,6.48435400390625,3.588820457458496,0.6087265014648438,-1.4519790410995483
1761131560381354000,6.49435400390625,4.502536773681641,0.5211517810821533,-0.8984572887420654
1761131560391354000,6.50435400390625,4.777473449707031,-0.1839761734008789,-0.09213012456893921
1761131560401354000,6.51435400390625,4.49471378326416,-0.9027509689331055,0.5587629079818726
1761131560411354000,6.52435400390625,4.116227149963379,-1.2352960109710693,0.49155640602111816
1761131560421353200,6.534353271484375,3.8328866958618164,-0.8077126741409302,-0.17879322171211243
1761131560431353000,6.54435302734375,3.3632774353027344,0.11054563522338867,-0.8104267120361328
1761131560441353200,6.554353271484375,2.89007568359375,0.9090251922607422,-0.9967585802078247
1761131560451353000,6.56435302734375,2.308450698852539,1.0959064960479736,-0.35389503836631775
1761131560461352200,6.574352294921875,1.5732507705688477,0.6243245601654053,0.7701446413993835
1761131560471352300,6.584352294921875,1.017897605895996,-0.09469771385192871,1.8880141973495483
1761131560481352200,6.594352294921875,1.0245780944824219,-0.1216731071472168,1.8751158714294434
1761131560491352300,6.604352294921875,0.5946741104125977,-0.8587545156478882,2.3213071823120117
1761131560501352400,6.6143525390625,0.5785121917724609,-0.9763977527618408,1.8147157430648804
1761131560511352300,6.624352294921875,0.5034103393554688,-1.0185917615890503,1.0402026176452637
1761131560521353000,6.63435302734375,0.1657857894897461,-1.0469149351119995,0.4298519790172577
1761131560531353000,6.64435302734375,-0.4685249328613281,-1.1087499856948853,0.082665354013443
1761131560541353000,6.65435302734375,-1.2881050109863281,-1.1579664945602417,-0.07350680232048035
1761131560551353000,6.66435302734375,-2.093985080718994,-1.1271437406539917,0.017221614718437195
1761131560561354000,6.67435400390625,-2.785515785217285,-0.9912015199661255,0.08505472540855408
1761131560571353900,6.684353759765625,-3.5433483123779297,-0.7033674716949463,0.1203407496213913
1761131560581354000,6.69435400390625,-3.991943836212158,-0.4934253692626953,0.21638785302639008
1761131560591353900,6.704353759765625,-4.262951374053955,-0.3626980781555176,0.33521389961242676
1761131560601354000,6.71435400390625,-4.281984806060791,-0.22620058059692383,0.3163309395313263
1761131560611353900,6.724353759765625,-4.159261226654053,-0.1960906982421875,0.2305501103401184
1761131560621354000,6.73435400390625,-3.896085739135742,-0.41208839416503906,0.26055794954299927
1761131560631354000,6.74435400390625,-3.8759260177612305,-0.47243666648864746,0.26832038164138794
1761131560641354000,6.75435400390625,-3.5958852767944336,-0.9473979473114014,0.6969823837280273
1761131560651354000,6.76435400390625,-3.4165544509887695,-1.059328317642212,0.8085427284240723
1761131560661353200,6.774353271484375,-3.40419864654541,-1.1005277633666992,0.783588171005249
1761131560671353000,6.78435302734375,-3.132511615753174,-1.032254934310913,0.6445488333702087
1761131560681353200,6.794353271484375,-2.7860970497131348,-1.0093765258789062,0.4412843585014343
1761131560691353000,6.80435302734375,-2.4803028106689453,-1.0506880283355713,0.18991181254386902
1761131560701353200,6.814353271484375,-2.1578378677368164,-1.1114614009857178,0.028232097625732422
1761131560711353000,6.82435302734375,-1.916588306427002,-1.162231206893921,-0.022058069705963135
1761131560721354000,6.83435400390625,-1.657698154449463,-1.0757243633270264,-0.07406234741210938
1761131560731353900,6.844353759765625,-1.511983871459961,-0.9230375289916992,-0.1716974377632141
1761131560741354000,6.85435400390625,-1.2946414947509766,-0.8051371574401855,-0.3122512102127075
1761131560751353900,6.864353759765625,-0.7444467544555664,-0.543879508972168,-0.45536571741104126
1761131560761354800,6.874354736328125,-0.09201908111572266,-0.2556579113006592,-0.6685569882392883
1761131560771355000,6.88435498046875,0.4250059127807617,-0.10744619369506836,-0.9109578728675842
1761131560781355000,6.89435498046875,0.6254472732543945,-0.17809081077575684,-0.7473148107528687
1761131560791355000,6.90435498046875,0.5084056854248047,-0.38469696044921875,-0.3082157373428345
1761131560801355000,6.91435498046875,0.29886531829833984,-0.3648567199707031,0.09458404779434204
1761131560811355000,6.92435498046875,0.5334281921386719,0.0667886734008789,0.22754186391830444
1761131560821354800,6.934354736328125,0.527130126953125,0.08819246292114258,0.24832797050476074
1761131560831355000,6.94435498046875,2.3835325241088867,1.2480340003967285,0.1803843379020691
1761131560841354800,6.954354736328125,3.6647214889526367,1.6656033992767334,-0.01914989948272705
1761131560851355000,6.96435498046875,4.798789024353027,1.5494484901428223,0.049304068088531494
1761131560861354000,6.97435400390625,6.125017166137695,0.7953987121582031,0.5127885341644287
1761131560871354000,6.98435400390625,6.081894874572754,0.9239730834960938,0.3730925917625427
1761131560881354000,6.99435400390625,7.005387306213379,-0.6105172634124756,0.6887944340705872
1761131560891353900,7.004353759765625,7.133694648742676,-0.8810688257217407,0.4006836414337158
1761131560901354000,7.01435400390625,7.026131629943848,-0.780798077583313,0.022540107369422913
1761131560911353900,7.024353759765625,6.657276153564453,-0.21089911460876465,-0.26394379138946533
1761131560921354000,7.03435400390625,5.731074333190918,0.41291236877441406,0.0131174735724926
1761131560931353900,7.044353759765625,4.57334041595459,0.6843595504760742,0.6310614347457886
1761131560941354000,7.05435400390625,4.572622299194336,0.6960530281066895,0.7307054996490479
1761131560951353900,7.064353759765625,2.1670122146606445,1.261612892150879,1.8772029876708984
1761131560961354800,7.074354736328125,1.1972599029541016,1.6192312240600586,2.191284656524658
1761131560971355000,7.08435498046875,0.1818981170654297,1.9338600635528564,2.4938175678253174
1761131560981354800,7.094354736328125,-0.6485013961791992,2.0696399211883545,2.733433961868286
1761131560991355000,7.10435498046875,-1.4149045944213867,2.0547690391540527,2.8868298530578613
1761131561001354800,7.114354736328125,-2.0940890312194824,1.9885354042053223,2.953886032104492
1761131561011355000,7.12435498046875,-2.6988139152526855,1.879471778869629,2.821289539337158
1761131561021355000,7.13435498046875,-3.09786319732666,1.7634477615356445,2.4797959327697754
1761131561031355100,7.144355224609375,-3.252720355987549,1.679685115814209,1.9821290969848633
1761131561041355000,7.15435498046875,-3.1843314170837402,1.5940117835998535,1.5867934226989746
1761131561051355100,7.164355224609375,-3.203948497772217,1.4588732719421387,1.375983476638794
1761131561061354200,7.174354248046875,-3.217705726623535,1.3439183235168457,1.303128719329834
1761131561071354000,7.18435400390625,-3.2701945304870605,1.2571117877960205,1.3405414819717407
1761131561081354200,7.194354248046875,-3.336277961730957,1.2337300777435303,1.419891119003296
1761131561091354000,7.20435400390625,-3.2741079330444336,1.3332746028900146,1.4979002475738525
1761131561101354200,7.214354248046875,-3.3515686988830566,1.4370739459991455,1.5745720863342285
1761131561111354000,7.22435400390625,-3.3796310424804688,1.5374400615692139,1.533189296722412
1761131561121354200,7.234354248046875,-3.3368024826049805,1.5752792358398438,1.4686599969863892
1761131561131354000,7.24435400390625,-3.2114028930664062,1.5134718418121338,1.3331053256988525
1761131561141354200,7.254354248046875,-3.2048721313476562,1.4916996955871582,1.3431732654571533
1761131561151354000,7.26435400390625,-2.8888940811157227,1.337592363357544,0.9505833387374878
1761131561161355000,7.27435498046875,-2.7399849891662598,1.2378692626953125,0.7336518168449402
1761131561171355100,7.284355224609375,-2.7794947624206543,1.1304550170898438,0.5478668212890625
1761131561181355000,7.29435498046875,-2.8826074600219727,1.0251257419586182,0.5035423040390015
1761131561191355100,7.304355224609375,-2.8481311798095703,0.983154296875,0.38625001907348633
1761131561201355000,7.31435498046875,-2.5859146118164062,1.104065179824829,0.2859973907470703
1761131561211355100,7.324355224609375,-2.2780213356018066,1.177501916885376,0.10806024074554443
1761131561221355000,7.33435498046875,-1.996229648590088,1.1241180896759033,0.005931735038757324
1761131561231355100,7.344355224609375,-1.5796318054199219,0.883573055267334,-0.052018582820892334
1761131561241355000,7.35435498046875,-1.1475849151611328,0.6537690162658691,-0.10454851388931274
1761131561251355100,7.364355224609375,-0.769195556640625,0.5103120803833008,-0.2584317922592163
1761131561261354500,7.3743544921875,-0.34101390838623047,0.4516904354095459,-0.47180676460266113
1761131561271354400,7.384354248046875,0.33857154846191406,0.3995835781097412,-0.8712365627288818
1761131561281354500,7.3943544921875,0.9987783432006836,0.3193211555480957,-1.1230279207229614
1761131561291354400,7.404354248046875,1.6689462661743164,0.09380555152893066,-1.0823838710784912
1761131561301354500,7.4143544921875,2.3180437088012695,-0.1209566593170166,-0.7824057340621948
1761131561311354400,7.424354248046875,2.839588165283203,-0.2532076835632324,-0.4539939761161804
1761131561321354200,7.434354248046875,3.2832822799682617,-0.33136606216430664,-0.06687259674072266
1761131561331354000,7.44435400390625,3.4264230728149414,-0.47801709175109863,0.17604964971542358
1761131561341354200,7.454354248046875,3.1561717987060547,-0.7407312393188477,0.19633367657661438
1761131561351354000,7.46435400390625,2.713287353515625,-1.006183385848999,0.021888673305511475
1761131561361355000,7.47435498046875,2.3570690155029297,-1.002779483795166,-0.582955002784729
1761131561371355000,7.48435498046875,2.3767518997192383,-1.059384822845459,-0.5490614771842957
1761131561381355000,7.49435498046875,1.315171241760254,-0.22386884689331055,-1.9669675827026367
1761131561391355000,7.50435498046875,1.0309514999389648,0.004593849182128906,-2.1580095291137695
1761131561401355000,7.51435498046875,0.9422779083251953,0.17000818252563477,-2.2098493576049805
1761131561411355000,7.52435498046875,1.010122299194336,0.28679490089416504,-2.1254825592041016
1761131561421355300,7.534355224609375,1.2369403839111328,0.3234751224517822,-1.807528018951416
1761131561431355400,7.54435546875,1.4736337661743164,0.1934070587158203,-1.3547253608703613
1761131561441355300,7.554355224609375,1.577834129333496,-0.10509991645812988,-0.926855742931366
1761131561451355400,7.56435546875,1.464151382446289,-0.21447324752807617,-0.7797137498855591
1761131561461354500,7.5743544921875,1.242147445678711,-0.071990966796875,-0.9284917116165161
1761131561471354400,7.584354248046875,1.0725278854370117,0.29176759719848633,-1.2724478244781494
1761131561481354500,7.5943544921875,1.1310691833496094,0.6167407035827637,-1.5986640453338623
1761131561491354400,7.604354248046875,1.5516395568847656,0.7569401264190674,-1.7689945697784424
1761131561501354500,7.6143544921875,2.3481664657592773,0.6806697845458984,-1.8286359310150146
1761131561511354400,7.624354248046875,3.0372495651245117,0.33219194412231445,-1.4992625713348389
1761131561521354500,7.6343544921875,3.567249298095703,-0.2919580936431885,-0.7711992263793945
1761131561531354400,7.644354248046875,3.87823486328125,-0.979131817817688,-0.029323935508728027
1761131561541354500,7.6543544921875,3.92678165435791,-1.4638872146606445,0.3784106373786926
1761131561551354400,7.664354248046875,3.527782440185547,-1.6734447479248047,0.5896652936935425
1761131561561355000,7.67435498046875,2.7898120880126953,-1.6578385829925537,0.6608978509902954
1761131561571355100,7.684355224609375,1.8035774230957031,-1.5153422355651855,0.5911186933517456
1761131561581355000,7.69435498046875,0.7301454544067383,-1.186607837677002,0.3741990327835083
1761131561591355100,7.704355224609375,-0.3404512405395508,-0.8926979303359985,0.1949712634086609
1761131561601355000,7.71435498046875,-1.3664836883544922,-0.6710976362228394,0.1366085410118103
1761131561611355100,7.724355224609375,-2.385558605194092,-0.5061931610107422,0.24086296558380127
1761131561621355000,7.73435498046875,-3.173346996307373,-0.491086483001709,0.3666839599609375
1761131561631355100,7.744355224609375,-3.856360912322998,-0.5169446468353271,0.5694385766983032
1761131561641355000,7.75435498046875,-4.375600814819336,-0.522014856338501,0.7365317940711975
1761131561651355100,7.764355224609375,-4.695167541503906,-0.4312124252319336,0.7696750164031982
1761131561661354200,7.774354248046875,-4.821907997131348,-0.2790999412536621,0.765703022480011
1761131561671354400,7.784354248046875,-4.762614727020264,-0.08388447761535645,0.7609992623329163
1761131561681354200,7.794354248046875,-4.611998081207275,-0.032662391662597656,0.7775891423225403
1761131561691354400,7.804354248046875,-4.415927410125732,-0.04070734977722168,0.897888720035553
1761131561701354200,7.814354248046875,-4.233592987060547,-0.09837532043457031,1.0502175092697144
1761131561711354400,7.824354248046875,-3.6143674850463867,-0.07947516441345215,1.1916346549987793
1761131561721354000,7.83435400390625,-2.9855780601501465,0.02303028106689453,1.262431263923645
1761131561731353900,7.844353759765625,-2.554957389831543,0.045163631439208984,1.2751175165176392
1761131561741354000,7.85435400390625,-2.3079395294189453,-0.07176637649536133,1.3746232986450195
1761131561751353900,7.864353759765625,-1.909553050994873,-0.15108680725097656,1.3969600200653076
1761131561761354800,7.874354736328125,-1.5227570533752441,-0.09180974960327148,1.12026047706604
1761131561771355000,7.88435498046875,-1.153557300567627,0.03046441078186035,0.6464006304740906
1761131561781355000,7.89435498046875,-0.7324819564819336,0.03773164749145508,0.27742934226989746
1761131561791355000,7.90435498046875,-0.10384559631347656,-0.08732438087463379,0.019089579582214355
1761131561801354800,7.914354736328125,0.4960746765136719,-0.2063462734222412,-0.0698310136795044
1761131561811355000,7.92435498046875,1.1227807998657227,-0.28785252571105957,0.02798283100128174
1761131561821354800,7.934354736328125,1.7102556228637695,-0.268909215927124,0.20048761367797852
1761131561831355000,7.94435498046875,2.56130313873291,-0.2120988368988037,0.4340861141681671
1761131561841354800,7.954354736328125,3.7964773178100586,-0.17357230186462402,0.8006129264831543
1761131561851355000,7.96435498046875,4.600870132446289,-0.3747420310974121,1.2611303329467773
1761131561861354000,7.97435400390625,4.892293930053711,-0.7701876163482666,1.7622630596160889
1761131561871353900,7.984353759765625,4.8877973556518555,-0.7686481475830078,1.6798876523971558
1761131561881354000,7.99435400390625,4.199026107788086,-1.1172542572021484,2.4536547660827637
1761131561891353900,8.004353759765625,3.817647933959961,-0.6033370494842529,2.062998056411743
1761131561901354000,8.01435400390625,3.742295265197754,0.28203463554382324,1.1957688331604004
1761131561911353900,8.024353759765624,3.9760799407958984,0.7965676784515381,0.5282158851623535
1761131561921354000,8.03435400390625,4.69648551940918,0.9140360355377197,0.07922768592834473
1761131561931353900,8.044353759765626,5.599063873291016,0.6070787906646729,-0.11690938472747803
1761131561941354000,8.05435400390625,6.196839332580566,-0.1333632469177246,0.20471912622451782
1761131561951353900,8.064353759765625,6.51901912689209,-1.0919411182403564,0.9599360823631287
1761131561961354800,8.074354736328125,6.427562713623047,-2.027442455291748,1.6365159749984741
1761131561971355000,8.08435498046875,6.08748722076416,-2.4821014404296875,2.0412166118621826
1761131561981354800,8.094354736328125,5.5233869552612305,-2.5323984622955322,2.1777560710906982
1761131561991355000,8.10435498046875,4.766188621520996,-2.3408820629119873,2.1803138256073
1761131562001354800,8.114354736328124,3.8797836303710938,-2.1488518714904785,2.1914830207824707
1761131562011355000,8.12435498046875,2.9700441360473633,-1.9780681133270264,2.321016788482666
1761131562021354800,8.134354736328126,1.8938713073730469,-1.8244292736053467,2.547260046005249
1761131562031355000,8.14435498046875,1.071162223815918,-1.6341367959976196,2.7564408779144287
1761131562041354800,8.154354736328125,0.25176239013671875,-1.4710148572921753,2.976349353790283
1761131562051355000,8.16435498046875,-0.5652799606323242,-1.3244264125823975,3.20808482170105
1761131562061354000,8.17435400390625,-1.4092679023742676,-1.207463264465332,3.438109874725342
1761131562071354000,8.18435400390625,-2.2708020210266113,-1.0631372928619385,3.5307517051696777
1761131562081354000,8.19435400390625,-2.8190836906433105,-0.9468386173248291,3.411184310913086
1761131562091353900,8.204353759765626,-3.24874210357666,-0.8085999488830566,3.168628215789795
1761131562101354000,8.21435400390625,-3.498721122741699,-0.7084567546844482,2.8136322498321533
1761131562111353900,8.224353759765625,-3.629706859588623,-0.6620123386383057,2.51019549369812
1761131562121354000,8.23435400390625,-3.740077018737793,-0.5822069644927979,2.3373427391052246
1761131562131353900,8.244353759765625,-3.70066499710083,-0.45905113220214844,2.314631223678589
1761131562141354000,8.25435400390625,-3.62971830368042,-0.3188800811767578,2.326904535293579
1761131562151354000,8.26435400390625,-3.579988956451416,-0.14644384384155273,2.404285192489624
1761131562161355000,8.27435498046875,-3.3663997650146484,0.050325632095336914,2.414398670196533
1761131562171355000,8.28435498046875,-2.9122071266174316,0.26914238929748535,2.3556160926818848
1761131562181356300,8.294356201171874,-2.489351272583008,0.480724573135376,2.211371421813965
1761131562191357000,8.30435693359375,-2.076601028442383,0.5968008041381836,2.177077531814575
1761131562201356800,8.314356689453126,-1.9135851860046387,0.5733027458190918,2.3028054237365723
1761131562211357000,8.32435693359375,-1.9406585693359375,0.4850592613220215,2.386446237564087
1761131562221356800,8.334356689453125,-2.108246326446533,0.512446403503418,2.4071438312530518
1761131562231357000,8.34435693359375,-2.1041269302368164,0.5985119342803955,2.2489609718322754
1761131562251357000,8.36435693359375,-1.6395483016967773,0.8589310646057129,1.677171230316162
1761131562261356000,8.37435595703125,-1.6158943176269531,0.8016705513000488,1.6678011417388916
1761131562271356200,8.384356201171874,-0.8136272430419922,0.9773459434509277,1.3356149196624756
1761131562281356000,8.39435595703125,-0.3708343505859375,0.9190077781677246,1.3662333488464355
1761131562291356000,8.40435595703125,-0.06448936462402344,0.7729082107543945,1.454323172569275
1761131562301356000,8.41435595703125,0.28159618377685547,0.6775689125061035,1.455773115158081
1761131562321356500,8.4343564453125,0.9330177307128906,0.6753525733947754,0.9288291931152344
1761131562331356200,8.444356201171875,0.9396305084228516,0.6518850326538086,0.912377119064331
1761131562341356000,8.45435595703125,1.334310531616211,0.7246565818786621,0.24861764907836914
1761131562351356000,8.46435595703125,1.628727912902832,0.7749552726745605,-0.010963916778564453
1761131562361356800,8.474356689453124,1.8943815231323242,0.8499188423156738,-0.15923786163330078
1761131562371357000,8.48435693359375,2.201536178588867,0.7570600509643555,-0.07583117485046387
1761131562381356800,8.494356689453125,2.4240055084228516,0.6163153648376465,0.061948537826538086
1761131562391357000,8.50435693359375,2.657589912414551,0.569767951965332,0.15954303741455078
1761131562401355800,8.514355712890625,3.0068769454956055,0.5965747833251953,0.1822516918182373
1761131562411356000,8.52435595703125,3.2666139602661133,0.5421366691589355,0.21996760368347168
1761131562421355800,8.534355712890624,3.268442153930664,0.5264139175415039,0.19919919967651367
1761131562431356000,8.54435595703125,3.255338668823242,0.14298772811889648,0.17667841911315918
1761131562441355800,8.554355712890626,3.0148916244506836,0.11165475845336914,0.037700653076171875
1761131562451355600,8.564355712890626,2.670513153076172,0.19685935974121094,-0.11419296264648438
1761131562461354800,8.574354736328125,2.3428878784179688,0.26975536346435547,-0.18742990493774414
1761131562471355000,8.58435498046875,2.11763858795166,0.2976689338684082,-0.247758150100708
1761131562481353500,8.594353515625,2.052976608276367,0.3249931335449219,-0.3389263153076172
1761131562491352800,8.604352783203124,2.1204395294189453,0.3300318717956543,-0.3595314025878906
1761131562501353000,8.61435302734375,2.1819381713867188,0.3493318557739258,-0.27196526527404785
1761131562511352800,8.624352783203125,2.116532325744629,0.38852930068969727,-0.03751087188720703
1761131562521353000,8.63435302734375,1.9091377258300781,0.45741844177246094,0.19365620613098145
1761131562531352300,8.644352294921875,1.572117805480957,0.5437202453613281,0.3331446647644043
1761131562541352400,8.6543525390625,1.2084064483642578,0.6277694702148438,0.373898983001709
1761131562551352300,8.664352294921875,1.0666942596435547,0.588660717010498,0.361370325088501
1761131562561353200,8.674353271484375,1.1803569793701172,0.5097541809082031,0.38420748710632324
1761131562571353300,8.684353271484374,1.5491180419921875,0.3411717414855957,0.5552783012390137
1761131562581353200,8.694353271484376,1.9299564361572266,0.0851583480834961,0.9111499786376953
1761131562591353300,8.704353271484376,2.3213043212890625,-0.2820615768432617,1.3877710103988647
1761131562601353200,8.714353271484375,2.6398801803588867,-0.6841349601745605,1.865702509880066
1761131562611352800,8.724352783203125,2.6904659271240234,-0.9685854911804199,2.1664443016052246
1761131562621352700,8.734352783203125,2.629441261291504,-1.1572926044464111,2.502171277999878
1761131562631353300,8.744353271484375,2.409237861633301,-1.320871114730835,2.8373937606811523
1761131562641353200,8.754353271484375,1.993417739868164,-1.4784355163574219,3.1938719749450684
1761131562651353000,8.76435302734375,1.396815299987793,-1.6541008949279785,3.461513042449951
1761131562661352200,8.774352294921876,0.7721185684204102,-1.825317144393921,3.6779165267944336
1761131562671352000,8.78435205078125,0.3398456573486328,-1.913499116897583,3.700779438018799
1761131562681351700,8.7943515625,0.06995916366577148,-2.0268609523773193,3.484081268310547
1761131562691351800,8.804351806640625,-0.08983802795410156,-2.1711721420288086,3.173057794570923
1761131562701352700,8.814352783203125,-0.36216020584106445,-2.3030433654785156,2.962674140930176
1761131562711352600,8.8243525390625,-0.9271769523620605,-2.5694468021392822,2.7648353576660156
1761131562721352700,8.834352783203125,-1.422959327697754,-2.800234794616699,2.711967706680298
1761131562731352600,8.8443525390625,-1.9262099266052246,-2.8168015480041504,2.6521735191345215
1761131562741352700,8.854352783203124,-2.4687561988830566,-2.8090898990631104,2.503098726272583
1761131562751352800,8.864352783203126,-2.959768772125244,-2.804455518722534,2.3475077152252197
1761131562761353700,8.874353759765626,-3.3559608459472656,-2.747286081314087,2.195808172225952
1761131562771353600,8.884353515625,-3.62473464012146,-2.514767646789551,1.9557511806488037
1761131562781353700,8.894353759765625,-3.6276304721832275,-2.347872018814087,1.6464232206344604
1761131562791353600,8.904353515625,-3.4814698696136475,-2.2470016479492188,1.3996400833129883
1761131562801354200,8.914354248046875,-3.216702938079834,-2.168595552444458,1.1130180358886719
1761131562811354400,8.924354248046875,-3.002678394317627,-2.086524724960327,0.8243770599365234
1761131562821354200,8.934354248046875,-2.9400734901428223,-2.084864377975464,0.65590500831604
1761131562831355000,8.94435498046875,-2.9034485816955566,-2.069432497024536,0.6160733699798584
1761131562841354500,8.9543544921875,-2.738654613494873,-1.983668327331543,0.47533559799194336
1761131562851354600,8.964354736328126,-2.404247283935547,-1.7839984893798828,0.309542179107666
1761131562861353700,8.974353759765625,-1.9948697090148926,-1.5271244049072266,-0.008132457733154297
1761131562871353600,8.984353515625,-1.48048734664917,-1.3077893257141113,-0.27320075035095215
1761131562881353700,8.994353759765625,-0.9009160995483398,-1.239558219909668,-0.4049046039581299
1761131562891353600,9.004353515625,-0.28507041931152344,-1.3289127349853516,-0.39730262756347656
1761131562901353700,9.014353759765624,0.19518566131591797,-1.4883813858032227,-0.3715217113494873
1761131562911353600,9.024353515625,0.44966936111450195,-1.6377744674682617,-0.3716721534729004
1761131562921353700,9.034353759765626,0.6310319900512695,-1.7383098602294922,-0.43132686614990234
1761131562931353600,9.044353515625,0.9122939109802246,-1.737778663635254,-0.53143310546875
1761131562941353700,9.054353759765625,1.28385591506958,-1.5642790794372559,-0.772996187210083
1761131562951354000,9.06435400390625,1.7006659507751465,-1.3271722793579102,-1.1162161827087402
1761131562961354800,9.074354736328125,2.231314182281494,-1.0006909370422363,-1.4277524948120117
1761131562971355000,9.08435498046875,2.806973934173584,-0.6762380599975586,-1.6544432640075684
1761131562981355300,9.094355224609375,3.281461238861084,-0.4980182647705078,-1.789691686630249
1761131562991355100,9.104355224609375,3.7313618659973145,-0.406984806060791,-1.8191277980804443
1761131563001355300,9.114355224609374,4.146908760070801,-0.3311495780944824,-1.7579717636108398
1761131563011355400,9.12435546875,4.258704662322998,-0.2747330665588379,-1.5507290363311768
1761131563021355000,9.13435498046875,4.112738609313965,-0.20363569259643555,-1.1781153678894043
1761131563031355000,9.14435498046875,3.8550310134887695,0.010324954986572266,-0.8308889865875244
1761131563041355000,9.15435498046875,3.490840435028076,0.3108963966369629,-0.5706942081451416
1761131563051355000,9.16435498046875,3.0764927864074707,0.5779299736022949,-0.4326202869415283
1761131563061354200,9.174354248046875,2.63822603225708,0.611912727355957,-0.2990760803222656
1761131563071354400,9.184354248046875,2.3762073516845703,0.4160952568054199,0.010118722915649414
1761131563081354200,9.194354248046874,2.397921085357666,0.37657594680786133,0.0014760494232177734
1761131563091354000,9.20435400390625,1.919848918914795,-0.07981538772583008,0.6091454029083252
1761131563101353500,9.214353515625,1.6569890975952148,-0.3169894218444824,0.9924654960632324
1761131563111353600,9.224353515625,1.2659058570861816,-0.5467033386230469,1.3271501064300537
1761131563121353500,9.234353515625,0.7941675186157227,-0.7739415168762207,1.7473737001419067
1761131563131353600,9.244353515625,0.4317774772644043,-0.872434139251709,2.0355844497680664
1761131563141353700,9.254353759765625,0.24112319946289062,-0.9355902671813965,2.251708507537842
1761131563151353900,9.264353759765624,0.08369731903076172,-0.9863243103027344,2.441110610961914
1761131563161354500,9.2743544921875,0.03035879135131836,-0.9614448547363281,2.525700330734253
1761131563171354600,9.284354736328124,0.07972145080566406,-0.898442268371582,2.5112252235412598
1761131563181354500,9.2943544921875,0.3947911262512207,-0.7789101600646973,2.3226418495178223
1761131563191354600,9.304354736328126,0.7913289070129395,-0.5648040771484375,2.078136444091797
1761131563201354500,9.3143544921875,1.0646495819091797,-0.30692291259765625,1.8082839250564575
1761131563211354600,9.324354736328125,1.0819568634033203,-0.06397247314453125,1.643796443939209
1761131563221354500,9.3343544921875,1.0263748168945312,0.1517009735107422,1.5988314151763916
1761131563231354600,9.344354736328125,0.8470263481140137,0.5888867378234863,1.5230863094329834
1761131563241354500,9.3543544921875,0.6685338020324707,1.0351166725158691,1.3318697214126587
1761131563251354600,9.364354736328124,0.48184919357299805,1.3964180946350098,1.1698944568634033
1761131563261353700,9.374353759765626,0.2606487274169922,1.5576233863830566,1.09468674659729
1761131563271353900,9.384353759765625,0.006561756134033203,1.523031234741211,1.1516754627227783
1761131563281353700,9.394353759765625,0.01914215087890625,1.5133347511291504,1.1663286685943604
1761131563291353900,9.404353759765625,-0.5562300682067871,1.25416898727417,1.2183341979980469
1761131563301353700,9.414353759765625,-0.8028841018676758,1.0216598510742188,1.0982675552368164
1761131563311353600,9.424353515625,-0.775998592376709,0.9893231391906738,1.1096515655517578
1761131563321354000,9.43435400390625,-1.2418413162231445,0.5754785537719727,0.8092348575592041
1761131563331354000,9.44435400390625,-1.5426688194274902,0.3968491554260254,0.6237094402313232
1761131563341354000,9.45435400390625,-1.748732566833496,0.18828392028808594,0.43853092193603516
1761131563351354000,9.46435400390625,-1.8660531044006348,-0.04766988754272461,0.08980703353881836
1761131563361354800,9.474354736328126,-1.89644193649292,-0.2652621269226074,-0.3216209411621094
1761131563371354600,9.484354736328125,-1.89829683303833,-0.46347713470458984,-0.6691367626190186
1761131563381354800,9.494354736328125,-1.9190731048583984,-0.7004265785217285,-1.0431079864501953
1761131563391354600,9.504354736328125,-1.8696393966674805,-0.9377985000610352,-1.56559157371521
1761131563401354800,9.514354736328125,-1.785505771636963,-1.1451835632324219,-2.113602638244629
1761131563411354600,9.524354736328124,-1.7496685981750488,-1.175689697265625,-2.4535653591156006
1761131563421354500,9.5343544921875,-1.6822261810302734,-1.458052635192871,-2.910980701446533
1761131563431354400,9.544354248046876,-1.6564126014709473,-1.4789257049560547,-2.889890432357788
1761131563441354500,9.5543544921875,-1.5585098266601562,-1.9331724643707275,-3.7225966453552246
1761131563451354400,9.564354248046875,-1.2169651985168457,-1.8383822441101074,-3.9897513389587402
1761131563461353700,9.574353759765625,-0.9451866149902344,-1.627326488494873,-3.966784954071045
1761131563471353600,9.584353515625,-0.8851323127746582,-1.57517671585083,-3.740265369415283
1761131563481353700,9.594353759765625,-0.8609566688537598,-1.6120576858520508,-3.4718503952026367
1761131563491353600,9.604353515625,-0.8239960670471191,-1.6023921966552734,-3.131517171859741
1761131563501353700,9.614353759765624,-0.6931848526000977,-1.5032567977905273,-2.8914122581481934
1761131563511353600,9.624353515625,-0.5229902267456055,-1.388139247894287,-2.7478325366973877
1761131563521353700,9.634353759765625,-0.19478130340576172,-1.4965081214904785,-2.5673811435699463
1761131563531353600,9.644353515625,0.014622211456298828,-1.77586030960083,-2.507241725921631
1761131563541353700,9.654353759765625,0.20475006103515625,-2.068967342376709,-2.561721086502075
1761131563551353600,9.664353515625,0.3657698631286621,-2.396390199661255,-2.6431477069854736
1761131563561354500,9.6743544921875,0.4665536880493164,-2.7639875411987305,-2.778064489364624
1761131563571354600,9.684354736328125,0.6254534721374512,-3.085458755493164,-2.9078376293182373
1761131563581354500,9.6943544921875,1.010965347290039,-3.4192216396331787,-2.9520206451416016
1761131563591354600,9.704354736328124,1.3944401741027832,-3.6586546897888184,-2.7839643955230713
1761131563601354500,9.7143544921875,1.952622890472412,-3.7695775032043457,-2.5064940452575684
1761131563611354600,9.724354736328126,2.4499683380126953,-3.7603952884674072,-2.030921459197998
1761131563621353700,9.734353759765625,2.747037887573242,-3.8464324474334717,-1.2565741539001465
1761131563631353600,9.744353515625,2.839399814605713,-4.003144264221191,-0.279346227645874
1761131563641353700,9.754353759765625,2.785538673400879,-4.103643894195557,0.7060389518737793
1761131563651353600,9.764353515625,2.8518309593200684,-4.078300476074219,1.201271891593933
1761131563661353700,9.774353759765624,3.166508674621582,-3.9609856605529785,1.247066855430603
1761131563671353600,9.784353515625,3.476243495941162,-3.8168530464172363,1.0088187456130981
1761131563681353700,9.794353759765626,3.6550002098083496,-3.711792469024658,0.8133622407913208
1761131563691353600,9.804353515625,3.657501220703125,-3.5067946910858154,0.8538451194763184
1761131563701353700,9.814353759765625,3.585921287536621,-3.452253580093384,0.6998989582061768
1761131563711353600,9.824353515625,2.9782419204711914,-3.025402784347534,1.4140965938568115
1761131563721354000,9.83435400390625,2.5241994857788086,-2.711149215698242,1.4995105266571045
1761131563731353900,9.844353759765625,2.0327377319335938,-2.341479539871216,1.388537049293518
1761131563741354000,9.85435400390625,1.5627365112304688,-1.9486827850341797,1.210299015045166
1761131563751353900,9.864353759765624,0.9842147827148438,-1.5228080749511719,1.0622040033340454
1761131563761354800,9.874354736328126,0.4073219299316406,-1.3204865455627441,1.011531114578247
1761131563771355000,9.88435498046875,0.0738525390625,-1.2715468406677246,1.4274678230285645
1761131563781354800,9.894354736328125,6.216628074645996,-1.4885399341583252,7.0368475914001465
1761131563791355000,9.90435498046875,6.163885116577148,-1.3956658840179443,7.0805511474609375
1761131563801354800,9.914354736328125,6.230971336364746,1.0711560249328613,6.532144546508789
1761131563811355000,9.92435498046875,4.604465484619141,1.6035313606262207,5.386225700378418
1761131563821354800,9.934354736328125,1.6371850967407227,0.7528314590454102,3.0737171173095703
1761131563831355000,9.94435498046875,1.621072769165039,0.8090925216674805,3.1640963554382324
1761131563841354800,9.954354736328124,-0.09264087677001953,-2.095346212387085,0.276824951171875
1761131563851355000,9.96435498046875,-1.0280656814575195,-2.4814789295196533,-0.8509560823440552
1761131563861354800,9.974354736328126,-1.0412406921386719,-2.4666049480438232,-0.87482750415802
1761131563871354600,9.984354736328125,-1.836318016052246,-2.48998761177063,-1.8697564601898193
1761131563881354800,9.994354736328125,-1.9856395721435547,-2.278165340423584,-1.5159966945648193
1761131563891354600,10.004354736328125,-2.0258331298828125,-1.9874451160430908,-0.574280858039856
1761131563901354800,10.014354736328125,-2.072535514831543,-1.6435132026672363,0.5989333391189575
1761131563911354600,10.024354736328124,-1.825047492980957,-1.2829246520996094,1.5026121139526367
1761131563921355500,10.03435546875,-2.0940723419189453,-0.9895548820495605,1.625800609588623
1761131563931355600,10.044355712890624,-1.87288236618042,-0.842153787612915,2.3032419681549072
1761131563941355500,10.05435546875,-1.7929372787475586,-0.7224991321563721,2.5485196113586426
1761131563951355600,10.064355712890626,-1.8683385848999023,-0.5758154392242432,2.485887050628662
1761131563961355500,10.07435546875,-1.0672402381896973,-0.9173765182495117,2.051527738571167
1761131563971355600,10.084355712890625,0.05663013458251953,-0.9375579357147217,0.9237414598464966
1761131563981355500,10.09435546875,1.4823627471923828,-0.6785855293273926,-0.7777581810951233
1761131563991355600,10.104355712890625,2.953793525695801,-0.31615710258483887,-1.436103343963623
1761131564001355500,10.11435546875,3.1491384506225586,-0.43076539039611816,-0.7153334021568298
1761131564011355600,10.124355712890624,2.4076404571533203,-0.7277812957763672,0.31668516993522644
1761131564021354800,10.134354736328126,1.964066505432129,-0.8388807773590088,0.41987907886505127
1761131564031354600,10.144354736328125,1.7135963439941406,-0.8262510299682617,0.013678252696990967
1761131564041354800,10.154354736328125,1.0702552795410156,-0.5735313892364502,-0.24770060181617737
1761131564051354600,10.164354736328125,0.13472747802734375,-0.21414613723754883,-0.4169216454029083
1761131564061353700,10.174353759765625,-0.11811161041259766,1.1313395500183105,-1.909652829170227
1761131564071353900,10.184353759765624,-0.2018108367919922,0.7979488372802734,-2.2359073162078857
1761131564081353700,10.194353759765624,-0.409423828125,0.4296102523803711,-2.1267476081848145
1761131564091353900,10.204353759765626,-0.47773075103759766,-0.33030033111572266,-2.2246713638305664
1761131564101353700,10.214353759765626,0.29131317138671875,-0.7673256397247314,-1.7013936042785645
1761131564111353900,10.224353759765625,1.733006477355957,-0.3926525115966797,-0.7912325859069824
1761131564121353700,10.234353759765625,3.473682403564453,-0.003861665725708008,-0.21279844641685486
1761131564131353900,10.244353759765625,3.4448423385620117,0.3401038646697998,-0.14694803953170776
1761131564141353700,10.254353759765625,3.1539506912231445,0.57279372215271,-0.4858820140361786
1761131564151353900,10.264353759765624,3.3237199783325195,0.15886783599853516,-0.7326043248176575
1761131564161353700,10.274353759765624,3.826265335083008,-1.0563949346542358,-1.711310625076294
1761131564171353900,10.284353759765626,4.239444732666016,-2.418355703353882,-2.1350715160369873
1761131564181353700,10.294353759765626,2.3723220825195312,-2.294802188873291,-0.9641914367675781
1761131564191353900,10.304353759765625,1.9867267608642578,-1.9664088487625122,1.5909422636032104
1761131564201353700,10.314353759765625,2.077347755432129,-2.158707618713379,1.4417424201965332
1761131564211353900,10.324353759765625,2.374650001525879,-3.146263837814331,0.8093376159667969
1761131564221354000,10.33435400390625,2.8681936264038086,-3.382307529449463,0.4331897497177124
1761131564231353900,10.344353759765625,2.926382064819336,-3.5299577713012695,0.4501492977142334
1761131564241354000,10.35435400390625,2.933675765991211,-2.5449047088623047,0.5670977830886841
1761131564251353900,10.364353759765624,2.982236862182617,-2.6576318740844727,0.5786710977554321
1761131564261353200,10.374353271484376,1.8975067138671875,-2.5036745071411133,0.3353215456008911
1761131564271353000,10.38435302734375,2.0060958862304688,-2.4534175395965576,-0.053164005279541016
1761131564281353200,10.394353271484375,1.1157722473144531,-2.0660669803619385,-1.7861472368240356
1761131564291353000,10.40435302734375,1.9462671279907227,-1.7059962749481201,-2.4580578804016113
1761131564301353200,10.414353271484375,2.5041351318359375,-1.4543442726135254,-3.0738301277160645
1761131564311353000,10.42435302734375,3.13832950592041,-1.4904627799987793,-3.2249603271484375
1761131564321354000,10.43435400390625,3.043002128601074,-1.8007304668426514,-3.2498178482055664
1761131564331353900,10.444353759765624,2.4450559616088867,-2.0386199951171875,-2.5013904571533203
1761131564341354000,10.45435400390625,1.7606706619262695,-1.9004786014556885,-1.9750173091888428
1761131564351353900,10.464353759765626,1.0133628845214844,-1.898242473602295,-1.8310081958770752
1761131564361354800,10.474354736328126,0.1407938003540039,-1.9513897895812988,-1.7400295734405518
1761131564371355000,10.48435498046875,-0.8235721588134766,-2.001321315765381,-1.5823521614074707
1761131564381354800,10.494354736328125,-1.612473487854004,-1.9551770687103271,-1.5398000478744507
1761131564391355000,10.50435498046875,-2.1439523696899414,-1.8638055324554443,-1.6050677299499512
1761131564401354800,10.514354736328125,-2.0843305587768555,-1.9588487148284912,-1.6002388000488281
1761131564411355000,10.52435498046875,-2.2238869667053223,-1.447493076324463,-1.7696332931518555
1761131564421354800,10.534354736328124,-1.950589656829834,-1.2480149269104004,-2.1748743057250977
1761131564431355000,10.54435498046875,-1.8938860893249512,-1.3397397994995117,-2.1437582969665527
1761131564441354800,10.554354736328126,-1.2451171875,-0.9013228416442871,-2.4359982013702393
1761131564451355000,10.56435498046875,-1.1699838638305664,-1.3790016174316406,-2.5983901023864746
1761131564461354000,10.57435400390625,-1.138988971710205,-1.7643256187438965,-2.2349870204925537
1761131564471354000,10.58435400390625,-1.0903420448303223,-1.693781852722168,-1.567857265472412
1761131564481354000,10.59435400390625,-1.0914711952209473,-1.3473796844482422,-0.4781522750854492
1761131564491354000,10.60435400390625,-1.217930793762207,-1.4496793746948242,0.5938658714294434
1761131564501354000,10.61435400390625,-1.8205337524414062,-1.70408296585083,2.314054012298584
1761131564511354000,10.62435400390625,-2.188060760498047,-1.3934235572814941,4.3314008712768555
1761131564521354000,10.63435400390625,-0.7668132781982422,-1.0461983680725098,4.379279613494873
1761131564531354000,10.64435400390625,1.179631233215332,-1.223487377166748,4.591371059417725
1761131564541354000,10.65435400390625,3.0217795372009277,-1.7482819557189941,5.014523029327393
1761131564551354000,10.66435400390625,4.7529473304748535,-1.8012008666992188,4.946765899658203
1761131564561354800,10.674354736328125,4.743885040283203,-1.803483486175537,5.023892402648926
1761131564571354600,10.684354736328125,6.907749176025391,-0.8576102256774902,4.404151916503906
1761131564581354800,10.694354736328124,6.268468856811523,-0.5169315338134766,4.174310207366943
1761131564591355000,10.70435498046875,5.028759002685547,-0.026857376098632812,3.6632437705993652
1761131564601354800,10.714354736328126,3.612494945526123,0.6752800941467285,2.8923680782318115
1761131564611355000,10.72435498046875,1.9863357543945312,1.2909579277038574,1.28407883644104
1761131564621354800,10.734354736328125,0.008050918579101562,1.9869837760925293,-0.6081256866455078
1761131564631355000,10.74435498046875,-0.44609642028808594,2.007194995880127,-2.256814956665039
1761131564641354800,10.754354736328125,1.134650707244873,0.5089302062988281,-2.376615047454834
1761131564651355000,10.76435498046875,4.103367328643799,-1.4079904556274414,-1.226483702659607
1761131564661354000,10.77435400390625,6.243492126464844,-2.86000919342041,0.01782858371734619
1761131564671353900,10.784353759765626,6.855101108551025,-3.3946938514709473,0.3946329355239868
1761131564681354000,10.79435400390625,5.306552886962891,-3.0439612865448,0.47514843940734863
1761131564691353900,10.804353759765625,2.6302404403686523,-2.3151092529296875,0.05253875255584717
1761131564701354000,10.81435400390625,1.463019847869873,-1.5597071647644043,-0.8330484628677368
1761131564711353900,10.824353759765625,0.5727977752685547,-0.9307346343994141,-0.8401347398757935
1761131564721354000,10.83435400390625,-0.19319725036621094,-1.079350471496582,-0.7733756303787231
1761131564731353900,10.844353759765625,-0.8767781257629395,-1.2918572425842285,-0.4397237300872803
1761131564741354000,10.85435400390625,-1.8341803550720215,-1.3888602256774902,0.6421674489974976
1761131564751353900,10.864353759765624,-2.3906126022338867,-1.3529396057128906,1.3277913331985474
1761131564761354800,10.874354736328126,-2.1407980918884277,-1.5012078285217285,1.35658597946167
1761131564771355000,10.88435498046875,-1.2752037048339844,-1.9304323196411133,1.0995254516601562
1761131564781354800,10.894354736328125,-0.3617105484008789,-2.139251232147217,0.9508349895477295
1761131564791355000,10.90435498046875,0.1658334732055664,-2.0718564987182617,0.5107214450836182
1761131564801354800,10.914354736328125,0.18005132675170898,-1.69976806640625,-0.1703195571899414
1761131564811355000,10.92435498046875,-0.5215034484863281,-1.2695446014404297,-0.6585819721221924
1761131564821354000,10.93435400390625,-1.5263147354125977,-1.0242772102355957,-1.275245189666748
1761131564831353900,10.944353759765624,-2.577320098876953,-0.5862088203430176,-1.1207759380340576
1761131564841354000,10.95435400390625,-3.125088930130005,-0.41133928298950195,-1.3419430255889893
1761131564851353900,10.964353759765626,-3.0686323642730713,-0.2728080749511719,-1.5695037841796875
1761131564861353000,10.97435302734375,-2.254575252532959,-0.2309408187866211,-1.802739143371582
1761131564871353000,10.98435302734375,-1.41986083984375,-0.10674047470092773,-1.9992055892944336
1761131564881353000,10.99435302734375,-0.9376420974731445,0.027109622955322266,-2.221644878387451
1761131564891353000,11.00435302734375,-1.0384540557861328,0.05039644241333008,-2.264230251312256
1761131564901353000,11.01435302734375,-1.2610406875610352,0.09163665771484375,-2.2922818660736084
1761131564911353000,11.02435302734375,-1.177656650543213,0.12260675430297852,-2.1949784755706787
1761131564921353000,11.03435302734375,-0.8062844276428223,-0.0068511962890625,-1.9140983819961548
1761131564931353000,11.04435302734375,-0.505516529083252,-0.13518190383911133,-1.5632022619247437
1761131564941353000,11.05435302734375,-0.4560708999633789,-0.1060643196105957,-1.4335105419158936
1761131564951353000,11.06435302734375,-0.7255167961120605,-0.06959199905395508,-1.3978049755096436
1761131564961354000,11.07435400390625,-1.0082149505615234,-0.06012868881225586,-1.4689288139343262
1761131564971353900,11.084353759765625,-0.7790169715881348,-0.21210670471191406,-1.2196534872055054
1761131564981354000,11.09435400390625,-0.39586925506591797,-0.3828458786010742,-0.8016498684883118
1761131564991353900,11.104353759765624,-0.014007568359375,-0.48174524307250977,-0.45250368118286133
1761131565001354000,11.11435400390625,0.1123499870300293,-0.43414878845214844,-0.15247225761413574
1761131565011353900,11.124353759765626,0.028369426727294922,-0.42864465713500977,0.06451606750488281
1761131565021354000,11.13435400390625,0.03619527816772461,-0.4370875358581543,0.07224416732788086
1761131565031353900,11.144353759765625,0.01464223861694336,-0.549410343170166,0.10421383380889893
1761131565041354000,11.15435400390625,0.09885978698730469,-0.4297194480895996,0.026254892349243164
1761131565051353900,11.164353759765625,0.37410974502563477,-0.38614368438720703,-0.2856200933456421
1761131565061354000,11.17435400390625,0.5430865287780762,-0.25559377670288086,-0.6610679626464844
1761131565071353900,11.184353759765624,0.5980401039123535,-0.020630836486816406,-0.6110441088676453
1761131565081354000,11.19435400390625,0.5491199493408203,-0.08137655258178711,-0.4297448396682739
1761131565091353900,11.204353759765626,0.6579060554504395,-0.27796077728271484,-0.23444557189941406
1761131565101354000,11.21435400390625,0.6379342079162598,-0.3765535354614258,-0.009538412094116211
1761131565111353900,11.224353759765625,0.6341423988342285,-0.4452686309814453,0.015758991241455078
1761131565121354800,11.234354736328125,0.590057373046875,-0.6216940879821777,0.356173038482666
1761131565131355000,11.24435498046875,0.5955367088317871,-0.706233024597168,0.404255747795105
1761131565141354800,11.254354736328125,0.8871932029724121,-0.6751751899719238,0.2229297161102295
1761131565151355000,11.26435498046875,0.8756117820739746,-0.6633825302124023,0.2155545949935913
1761131565171355600,11.284355712890624,-0.20242023468017578,-0.6584310531616211,-0.4436018466949463
1761131565181355500,11.29435546875,-0.14995288848876953,-0.7164926528930664,-0.37652719020843506
1761131565191355600,11.304355712890626,-0.6210904121398926,-0.2954530715942383,-0.044658541679382324
1761131565201355500,11.31435546875,-0.8356313705444336,-0.3422985076904297,-0.30945807695388794
1761131565211355600,11.324355712890625,-0.5410661697387695,0.09417915344238281,-0.5286653637886047
1761131565221355500,11.33435546875,-0.4166755676269531,0.25593996047973633,-0.5902970433235168
1761131565231355600,11.344355712890625,-0.3519883155822754,-0.003098011016845703,-0.5472838878631592
