time,seconds_elapsed,z,y,x
1761131553979316500,0.09231640625,-0.5202280879020691,-0.3899610936641693,0.49090659618377686
1761131553989314600,0.102314453125,-0.5202280879020691,-0.3899610936641693,0.49090659618377686
1761131554019316200,0.132316162109375,-0.5202280879020691,-0.3899610936641693,0.49090659618377686
1761131554029316600,0.142316650390625,-0.23251058161258698,-0.000839939690195024,-0.2537381649017334
1761131554039317000,0.15231689453125,-0.1757001131772995,0.09262244403362274,-0.2745075821876526
1761131554049317000,0.162317138671875,-0.13904820382595062,0.0749073475599289,-0.26656633615493774
1761131554059313700,0.172313720703125,-0.09567677229642868,-0.016111571341753006,-0.23480132222175598
1761131554069313800,0.182313720703125,-0.033368512988090515,-0.13523028790950775,-0.18409951031208038
1761131554079314000,0.19231396484375,0.024663684889674187,-0.23052527010440826,-0.11507174372673035
1761131554089314000,0.20231396484375,0.04421137273311615,-0.22258402407169342,-0.03321579843759537
1761131554099314200,0.212314208984375,0.012446379289031029,-0.16638441383838654,0.038866300135850906
1761131554109314300,0.222314208984375,-0.06207918003201485,-0.14928019046783447,0.0742964819073677
1761131554119314400,0.232314453125,-0.14332425594329834,-0.14683672785758972,0.07796167582273483
1761131554129314300,0.242314208984375,-0.21723894774913788,-0.09308059513568878,0.08773551881313324
1761131554139314400,0.252314453125,-0.30031663179397583,0.015653422102332115,0.09934195876121521
1761131554149314600,0.262314453125,-0.40110939741134644,0.05535966157913208,0.09323330968618393
1761131554159314700,0.272314697265625,-0.4902957081794739,0.009544769302010536,0.0749073475599289
1761131554169314600,0.282314453125,-0.5428301095962524,-0.08330674469470978,0.05597052723169327
1761131554179314700,0.292314697265625,-0.5593234896659851,-0.27572929859161377,0.04069889709353447
1761131554189314800,0.302314697265625,-0.5776494741439819,-0.5280166268348694,0.015653422102332115
1761131554199314700,0.312314697265625,-0.6259077787399292,-0.6281985640525818,0.03153591975569725
1761131554209314800,0.322314697265625,-0.6411794424057007,-0.5200753808021545,0.10117455571889877
1761131554219315000,0.33231494140625,-0.5794820189476013,-0.45959973335266113,0.22212587296962738
1761131554229314800,0.342314697265625,-0.4395939111709595,-0.4919756054878235,0.3681226670742035
1761131554239315000,0.35231494140625,-0.2416735589504242,-0.5322927236557007,0.5190063714981079
1761131554249315000,0.362315185546875,-0.051083605736494064,-0.4913647174835205,0.6674466133117676
1761131554259314000,0.37231396484375,0.04115704447031021,-0.5005277395248413,0.7352526783943176
1761131554269314000,0.38231396484375,0.011835514567792416,-0.5121341347694397,0.6918812394142151
1761131554279314200,0.392314208984375,-0.1201113760471344,-0.37224599719047546,0.5587126016616821
1761131554289314000,0.40231396484375,-0.31375566124916077,-0.11873693019151688,0.35040757060050964
1761131554299314200,0.412314208984375,-0.4896848499774933,0.17203491926193237,0.09262244403362274
1761131554309314000,0.42231396484375,-0.6167448163032532,0.5715407729148865,-0.16149750351905823
1761131554319314200,0.432314208984375,-0.6949355602264404,0.9270643591880798,-0.36735907196998596
1761131554329314000,0.44231396484375,-0.6937138438224792,1.0846675634384155,-0.5103015303611755
1761131554339314200,0.452314208984375,-0.5874232649803162,1.0278571844100952,-0.5585598945617676
1761131554349314000,0.46231396484375,-0.353461891412735,0.738917887210846,-0.515188455581665
1761131554359315000,0.47231494140625,-0.03825543448328972,0.3986659348011017,-0.38201984763145447
1761131554369315000,0.482315185546875,0.23480132222175598,0.16775886714458466,-0.1584431678056717
1761131554379315000,0.49231494140625,0.3588069677352905,-0.000839939690195024,0.11217013001441956
1761131554389315000,0.502315185546875,0.2940552532672882,-0.1682170182466507,0.39133554697036743
1761131554399315000,0.51231494140625,0.045433104038238525,-0.23113614320755005,0.6619488596916199
1761131554409315000,0.522315185546875,-0.3583488166332245,-0.08391761034727097,0.8940776586532593
1761131554419315000,0.53231494140625,-0.8775842785835266,0.24350616335868835,1.0712286233901978
1761131554429315000,0.542315185546875,-1.5177710056304932,1.6228399276733398,1.2935835123062134
1761131554439315000,0.55231494140625,-1.6478853225708008,2.7804296016693115,1.4805083274841309
1761131554449315000,0.562315185546875,-1.6949219703674316,3.2440762519836426,1.6576591730117798
1761131554459314200,0.572314208984375,-1.6289485692977905,2.39619517326355,1.7370716333389282
1761131554469314000,0.58231396484375,-1.4145348072052002,0.6393468379974365,1.6869807243347168
1761131554479314200,0.592314208984375,-1.1005500555038452,-0.6892850995063782,1.6796503067016602
1761131554489314000,0.60231396484375,-0.7560220956802368,-1.1608730554580688,1.7144696712493896
1761131554499314200,0.612314208984375,-0.4084397852420807,-0.7821365594863892,1.7065284252166748
1761131554509314000,0.62231396484375,-0.027259862050414085,-0.04054617881774902,1.5440382957458496
1761131554519314200,0.632314208984375,0.34842225909233093,-0.08575020730495453,1.183627724647522
1761131554529314000,0.64231396484375,0.6110942959785461,-0.6049856543540955,0.6888269186019897
1761131554539314200,0.652314208984375,0.8175667524337769,-0.9061422348022461,0.20196732878684998
1761131554549314300,0.662314208984375,1.0460304021835327,-0.8743772506713867,-0.16149750351905823
1761131554559315000,0.67231494140625,1.181031584739685,-0.5652794241905212,-0.406454473733902
1761131554569315000,0.682315185546875,1.0997865200042725,-0.2836705446243286,-0.5616142153739929
1761131554579315200,0.692315185546875,0.8163450360298157,-0.024663684889674187,-0.6428593397140503
1761131554589315000,0.702315185546875,0.3404810130596161,0.13355042040348053,-0.6556875109672546
1761131554599315000,0.71231494140625,-0.282601535320282,0.10117455571889877,-0.6110942959785461
1761131554609315000,0.722315185546875,-0.9411142468452454,0.0022143865935504436,-0.554894745349884
1761131554619315000,0.73231494140625,-1.5409839153289795,-0.08941540122032166,-0.5396230816841125
1761131554629315000,0.742315185546875,-1.9588158130645752,-0.06620252132415771,-0.6013205051422119
1761131554639315000,0.75231494140625,-2.1042017936706543,0.11705705523490906,-0.7546476721763611
1761131554649315000,0.762315185546875,-2.0180697441101074,0.24045182764530182,-0.981278657913208
1761131554659314200,0.772314208984375,-1.7224109172821045,0.048029281198978424,-1.200579285621643
1761131554669314300,0.782314208984375,-0.9557750225067139,-0.4657084047794342,-1.3734540939331055
1761131554679314200,0.792314208984375,-0.28443413972854614,-0.7186065912246704,-1.352684736251831
1761131554689314300,0.802314208984375,0.4247804284095764,-0.7546476721763611,-1.228068232536316
1761131554699314200,0.812314208984375,1.0435869693756104,-0.5811619162559509,-1.0124328136444092
1761131554709314300,0.822314208984375,1.4430928230285645,-0.46387580037117004,-0.7693084478378296
1761131554719314200,0.832314208984375,1.6110807657241821,-0.5964335799217224,-0.5652794241905212
1761131554729314000,0.84231396484375,1.550605058670044,-0.848720908164978,-0.43883031606674194
1761131554739314200,0.852314208984375,1.3062589168548584,-1.0918452739715576,-0.3862959146499634
1761131554749314000,0.86231396484375,0.9598983526229858,-1.2726613283157349,-0.38873937726020813
1761131554759315000,0.87231494140625,0.6202573180198669,-1.4412602186203003,-0.42416954040527344
1761131554769315000,0.882315185546875,0.40217840671539307,-1.5127314329147339,-0.46448665857315063
1761131554779315000,0.89231494140625,0.334983229637146,-1.4125494956970215,-0.5096907019615173
1761131554789315000,0.902315185546875,0.353920042514801,-1.1999684572219849,-0.5933791995048523
1761131554799315200,0.912315185546875,0.3948480188846588,-0.9886090159416199,-0.7296021580696106
1761131554809315000,0.922315185546875,0.46326494216918945,-0.6911176443099976,-0.8542186617851257
1761131554819315000,0.93231494140625,0.544510006904602,-0.3649156391620636,-0.9342420101165771
1761131554829315000,0.942315185546875,0.6013205051422119,-0.15661057829856873,-0.970893919467926
1761131554839315000,0.95231494140625,0.6324746012687683,-0.05398521572351456,-0.9446267485618591
1761131554849315000,0.962315185546875,0.6514114141464233,-0.005115996580570936,-0.8762098550796509
1761131554859314200,0.972314208984375,0.6508005857467651,-0.021609358489513397,-0.8053494691848755
1761131554869314000,0.98231396484375,0.6275876760482788,-0.06742425262928009,-0.7479281425476074
1761131554879314200,0.992314208984375,0.5744423866271973,-0.07780896127223969,-0.7204391956329346
1761131554889314000,1.00231396484375,0.4308890700340271,-0.12423472106456757,-0.7705301642417908
1761131554899314200,1.012314208984375,0.3355940878391266,-0.17982345819473267,-0.8499426245689392
1761131554909314000,1.02231396484375,0.28061622381210327,-0.21464277803897858,-0.9348528981208801
1761131554919314200,1.032314208984375,0.27084237337112427,-0.2244166135787964,-1.0014371871948242
1761131554929314000,1.04231396484375,0.3032182455062866,-0.19998200237751007,-1.0234283208847046
1761131554939314200,1.052314208984375,0.3704134225845337,-0.12606731057167053,-0.9794460535049438
1761131554949314000,1.06231396484375,0.4626540541648865,0.006490443367511034,-0.8566621541976929
1761131554959315000,1.07231494140625,0.5671120285987854,0.19952386617660522,-0.6630178689956665
1761131554969315000,1.082315185546875,0.6630178689956665,0.3925572633743286,-0.4095087945461273
1761131554979315000,1.09231494140625,0.7412086129188538,0.5318345427513123,-0.12667818367481232
1761131554989315000,1.102315185546875,0.7827474474906921,0.6002514362335205,0.15309810638427734
1761131554999315000,1.11231494140625,0.8022951483726501,0.5526039600372314,0.41088324785232544
1761131555009315000,1.122315185546875,0.8077929019927979,0.36445748805999756,0.6277403831481934
1761131555019315000,1.13231494140625,0.8261188864707947,0.10606148093938828,0.8213846683502197
1761131555029315300,1.1423154296875,0.8841511011123657,-0.08269587904214859,1.005255103111267
1761131555039315500,1.1523154296875,0.9605092406272888,-0.15355625748634338,1.157360553741455
1761131555049315300,1.1623154296875,1.009378433227539,-0.15172365307807922,1.2550990581512451
1761131555059314400,1.172314453125,1.0215957164764404,-0.0924697294831276,1.2905291318893433
1761131555069314600,1.182314453125,0.9996046423912048,0.0016035212902352214,1.261818528175354
1761131555079314400,1.192314453125,0.9556223154067993,0.03703370690345764,1.158582329750061
1761131555089314600,1.202314453125,0.9299659729003906,-0.011224648915231228,0.9960921406745911
1761131555099314400,1.212314453125,0.9446267485618591,-0.09980010986328125,0.8006152510643005
1761131555109314600,1.222314453125,0.9867764711380005,-0.14989106357097626,0.5904776453971863
1761131555119314400,1.232314453125,1.0411434173583984,-0.1272890418767929,0.382783442735672
1761131555129314600,1.242314453125,1.085736632347107,0.04375322163105011,0.09506590664386749
1761131555139314400,1.252314453125,1.0820714235305786,0.25938865542411804,-0.04421137273311615
1761131555149314600,1.262314453125,1.0710757970809937,0.5092325210571289,-0.10346530377864838
1761131555159315500,1.2723154296875,1.0521390438079834,0.7700719833374023,-0.06925684958696365
1761131555169315300,1.2823154296875,1.0448086261749268,0.9918161034584045,0.041920628398656845
1761131555179315500,1.2923154296875,1.0790170431137085,1.1995102167129517,0.20379991829395294
1761131555189315300,1.3023154296875,1.1309406757354736,1.384602427482605,0.37117698788642883
1761131555199315500,1.3123154296875,1.1816424131393433,1.453019380569458,0.48235446214675903
1761131555209315300,1.3223154296875,1.2335660457611084,1.2893074750900269,0.5067890882492065
1761131555219315500,1.3323154296875,1.2909873723983765,0.9362273216247559,0.46036332845687866
1761131555229315300,1.3423154296875,1.3368022441864014,0.4994587004184723,0.36934441328048706
1761131555239315500,1.3523154296875,1.3649020195007324,0.1353830099105835,0.2819906771183014
1761131555249315300,1.3623154296875,1.361236810684204,-0.024663684889674187,0.21846067905426025
1761131555259314400,1.372314453125,1.314811110496521,-0.030161472037434578,0.1457677185535431
1761131555269314600,1.382314453125,1.237842082977295,-0.016111571341753006,0.03275764733552933
1761131555279314400,1.392314453125,1.1755337715148926,-0.030161472037434578,-0.11873693019151688
1761131555289314600,1.402314453125,1.1297188997268677,-0.05642867833375931,-0.2848922908306122
1761131555299314400,1.412314453125,1.0802388191223145,-0.05887213721871376,-0.43944117426872253
1761131555309314600,1.422314453125,1.0026589632034302,-0.014278975315392017,-0.5665011405944824
1761131555319314700,1.432314697265625,0.8823184967041016,0.06391177326440811,-0.65874183177948
1761131555329314000,1.44231396484375,0.7326564788818359,0.09201157838106155,-0.7192174792289734
1761131555339314200,1.452314208984375,0.5927683711051941,0.1146135926246643,-0.7448738217353821
1761131555349314000,1.46231396484375,0.4919756054878235,0.19463694095611572,-0.7314347624778748
1761131555359315000,1.47231494140625,0.43821945786476135,0.39500072598457336,-0.6453027725219727
1761131555369315000,1.482315185546875,0.4809800088405609,0.566653847694397,-0.515799343585968
1761131555379315000,1.49231494140625,0.5787184834480286,0.7841218709945679,-0.31299206614494324
1761131555389315000,1.502315185546875,0.6923394203186035,1.021748423576355,-0.06314819306135178
1761131555399315000,1.51231494140625,0.7870234847068787,1.2178362607955933,0.18669569492340088
1761131555409315000,1.522315185546875,0.8572730422019958,1.3015247583389282,0.40599632263183594
1761131555419315000,1.53231494140625,0.9195812940597534,1.2428816556930542,0.5874232649803162
1761131555429315000,1.542315185546875,0.9922742247581482,1.03579843044281,0.7315874695777893
1761131555439315000,1.55231494140625,1.0900126695632935,0.7505242824554443,0.8415432572364807
1761131555449315000,1.562315185546875,1.1859185695648193,0.4676937162876129,0.9081275463104248
1761131555462354000,1.57535400390625,1.267163634300232,0.22456933557987213,0.9209557175636292
1761131555472354000,1.58535400390625,1.3368022441864014,0.06696610152721405,0.889801561832428
1761131555482354000,1.59535400390625,1.4003322124481201,-0.0038942659739404917,0.8329911231994629
1761131555492354000,1.60535400390625,1.4546992778778076,-0.04115704447031021,0.776791512966156
1761131555502354000,1.61535400390625,1.4870750904083252,-0.08880453556776047,0.7205919027328491
1761131555512354000,1.62535400390625,1.5011249780654907,-0.17676913738250732,0.673555314540863
1761131555522354000,1.63535400390625,1.5157856941223145,-0.2384665161371231,0.6656140685081482
1761131555532354000,1.64535400390625,1.521283507347107,-0.24457517266273499,0.6986007690429688
1761131555542354000,1.65535400390625,1.4913511276245117,-0.21586450934410095,0.757854700088501
1761131555552354000,1.66535400390625,1.4302645921707153,-0.16027577221393585,0.8293259143829346
1761131555562355000,1.67535498046875,1.3471869230270386,-0.14133894443511963,0.8916341662406921
1761131555572354800,1.685354736328125,1.2628874778747559,-0.18165604770183563,0.9124035835266113
1761131555582355000,1.69535498046875,1.2042444944381714,-0.26717719435691833,0.8983536958694458
1761131555592354800,1.705354736328125,1.2189052104949951,-0.30749428272247314,0.8470410108566284
1761131555602355000,1.71535498046875,1.2793809175491333,-0.24701863527297974,0.7902305722236633
1761131555612354800,1.725354736328125,1.3270283937454224,-0.22197316586971283,0.6808856725692749
1761131555622354400,1.7353544921875,1.3655128479003906,-0.24152085185050964,0.5318345427513123
1761131555632354600,1.7453544921875,1.3771193027496338,-0.2500729560852051,0.3583488166332245
1761131555642354400,1.7553544921875,1.3740650415420532,-0.3661373555660248,0.15798501670360565
1761131555652354600,1.7653544921875,1.389947533607483,-0.6220899224281311,-0.025274548679590225
1761131555662353700,1.775353759765625,1.4369841814041138,-0.8804858922958374,-0.14561499655246735
1761131555672353500,1.785353515625,1.484020709991455,-0.9128617644309998,-0.19204075634479523
1761131555682353700,1.795353759765625,1.4889076948165894,-0.7057784199714661,-0.17921258509159088
1761131555692353500,1.805353515625,1.436373233795166,-0.2903900742530823,-0.12423472106456757
1761131555702353700,1.815353759765625,1.323363184928894,0.2832123935222626,-0.052152618765830994
1761131555712353500,1.825353515625,1.1682034730911255,0.8623126745223999,0.01992947794497013
1761131555722353700,1.835353759765625,1.0319805145263672,1.33573317527771,0.08345946669578552
1761131555732353500,1.845353515625,0.9641744494438171,1.6729308366775513,0.1146135926246643
1761131555742353700,1.855353759765625,0.9757808446884155,1.7663931846618652,0.10239628702402115
1761131555752353500,1.865353515625,1.0625237226486206,1.5922966003417969,-0.0032834007870405912
1761131555762354400,1.8753544921875,1.2237921953201294,1.2599859237670898,-0.21708624064922333
1761131555772354600,1.8853544921875,1.4663056135177612,0.9545533061027527,-0.47303876280784607
1761131555782354400,1.8953544921875,1.7399733066558838,0.758465588092804,-0.7027240991592407
1761131555792354600,1.9053544921875,1.9568305015563965,0.6240752339363098,-0.8945357799530029
1761131555802354400,1.9153544921875,2.0551798343658447,0.5745950937271118,-1.0350347757339478
1761131555812354600,1.9253544921875,2.02830171585083,0.6283512711524963,-1.1101711988449097
1761131555822354400,1.9353544921875,1.8529833555221558,0.8824712038040161,-1.1284971237182617
1761131555832354600,1.9453544921875,1.7100409269332886,1.0748937129974365,-1.0887908935546875
1761131555842354400,1.9553544921875,1.5774831771850586,1.2001211643218994,-1.0069350004196167
1761131555852354600,1.9653544921875,1.4834098815917969,1.2251665592193604,-0.8914814591407776
1761131555862353700,1.975353759765625,1.4437036514282227,1.2178362607955933,-0.7363216876983643
1761131555872353800,1.985353759765625,1.4400384426116943,1.2502120733261108,-0.5530621409416199
1761131555882353700,1.995353759765625,1.4308754205703735,1.3235158920288086,-0.36674821376800537
1761131555892353500,2.005353515625,1.3911691904067993,1.3766611814498901,-0.20547980070114136
1761131555902353700,2.015353759765625,1.3368022441864014,1.3882676362991333,-0.08269587904214859
1761131555912353500,2.025353515625,1.3019828796386719,1.3528374433517456,0.011377365328371525
1761131555922354000,2.03535400390625,1.2897655963897705,1.2807554006576538,0.0797942727804184
1761131555932354000,2.04535400390625,1.2879329919815063,1.1720213890075684,0.12316570430994034
1761131555942354000,2.05535400390625,1.2726613283157349,1.062065601348877,0.13721559941768646
1761131555952354000,2.06535400390625,1.2213486433029175,0.957607626914978,0.11155926436185837
1761131555962355000,2.07535498046875,1.1382709741592407,0.8024478554725647,0.06085744872689247
1761131555972354800,2.085354736328125,1.066188931465149,0.6045275330543518,0.02848159149289131
1761131555982355000,2.09535498046875,1.0197631120681763,0.4426482319831848,0.03275764733552933
1761131555992354800,2.105354736328125,0.9892199039459229,0.3467423915863037,0.0694095641374588
1761131556002355000,2.11535498046875,0.9550114274024963,0.3284164369106293,0.12622003257274628
1761131556012354800,2.125354736328125,0.9055313467979431,0.3888920843601227,0.190360888838768
1761131556022355000,2.13535498046875,0.8340601325035095,0.5080108046531677,0.23923009634017944
1761131556032354800,2.145354736328125,0.7479281425476074,0.6692792177200317,0.2612212598323822
1761131556042355000,2.15535498046875,0.6611852645874023,0.8494845032691956,0.2618321180343628
1761131556052355000,2.16535498046875,0.5475643277168274,1.0290788412094116,0.23189972341060638
1761131556062354200,2.175354248046875,0.5072472095489502,1.0272462368011475,0.21235203742980957
1761131556072354000,2.18535400390625,0.5072472095489502,0.9985355734825134,0.20257818698883057
1761131556082354200,2.195354248046875,0.5261840224266052,0.929507851600647,0.1909717470407486
1761131556092354000,2.20535400390625,0.554894745349884,0.7902305722236633,0.1757001131772995
1761131556102354200,2.215354248046875,0.5860488414764404,0.605749249458313,0.14637859165668488
1761131556112354000,2.22535400390625,0.6373615264892578,0.45669811964035034,0.11705705523490906
1761131556122354200,2.235354248046875,0.706389307975769,0.4090506434440613,0.09384417533874512
1761131556132354000,2.24535400390625,0.809625506401062,0.5128977298736572,0.10300715267658234
1761131556142354200,2.255354248046875,0.9324094653129578,0.7413613200187683,0.15187637507915497
1761131556152354000,2.26535400390625,1.0576368570327759,0.9985355734825134,0.22029328346252441
1761131556162355000,2.27535498046875,1.1779773235321045,1.20622980594635,0.2862667143344879
1761131556172354800,2.285354736328125,1.2989286184310913,1.3375657796859741,0.3369685411453247
1761131556182355000,2.29535498046875,1.409495234489441,1.383380651473999,0.37117698788642883
1761131556192354800,2.305354736328125,1.493794560432434,1.3418418169021606,0.3778965175151825
1761131556202355000,2.31535498046875,1.5414420366287231,1.2367730140686035,0.363235741853714
1761131556212354800,2.325354736328125,1.563433289527893,1.07061767578125,0.3320816159248352
1761131556222355000,2.33535498046875,1.5554920434951782,0.8910233378410339,0.2771037518978119
1761131556232354800,2.345354736328125,1.524337887763977,0.6625596880912781,0.18730655312538147
1761131556242355000,2.35535498046875,1.4736360311508179,0.3723987340927124,0.05047274008393288
1761131556252354800,2.365354736328125,1.4039974212646484,0.024205535650253296,-0.13584116101264954
1761131556262354000,2.37535400390625,1.3313044309616089,-0.34170275926589966,-0.334983229637146
1761131556272354000,2.38535400390625,1.2677744626998901,-0.5860488414764404,-0.4864778220653534
1761131556282354000,2.39535400390625,1.199357509613037,-0.6611852645874023,-0.5701663494110107
1761131556292354000,2.40535400390625,1.0643563270568848,-0.6092617511749268,-0.5927683711051941
1761131556302354000,2.41535400390625,0.9977720379829407,-0.4657084047794342,-0.544510006904602
1761131556312354000,2.42535400390625,0.9598983526229858,-0.23174700140953064,-0.4602105915546417
1761131556322354000,2.43535400390625,0.9513462781906128,0.07612907886505127,-0.3514765799045563
1761131556332354000,2.44535400390625,0.9537897109985352,0.4023311138153076,-0.23235787451267242
1761131556342354000,2.45535400390625,0.9476810693740845,0.7083746194839478,-0.11140654981136322
1761131556352354000,2.46535400390625,0.9195812940597534,0.96799236536026,0.005879578180611134
1761131556362355000,2.47535498046875,0.8762098550796509,1.176908254623413,0.11033753305673599
1761131556372354800,2.485354736328125,0.8224536776542664,1.2929726839065552,0.18852828443050385
1761131556382355000,2.49535498046875,0.771751880645752,1.2972487211227417,0.2471713423728943
1761131556392354800,2.505354736328125,0.7241044044494629,1.1689670085906982,0.2771037518978119
1761131556402355000,2.51535498046875,0.686841607093811,0.919123113155365,0.27527114748954773
1761131556412354800,2.525354736328125,0.6746243238449097,0.6173557043075562,0.2471713423728943
1761131556422355000,2.53535498046875,0.6953937411308289,0.31864258646965027,0.20685423910617828
1761131556432354800,2.545354736328125,0.7558693885803223,0.05474879592657089,0.16959145665168762
1761131556442355000,2.55535498046875,0.8377253413200378,-0.14683672785758972,0.1457677185535431
1761131556452354800,2.565354736328125,0.9159160852432251,-0.2549598813056946,0.1396590620279312
1761131556462354000,2.57535400390625,0.9611201286315918,-0.25190556049346924,0.13660474121570587
1761131556472354000,2.58535400390625,0.9666178822517395,-0.1779908537864685,0.13721559941768646
1761131556482354000,2.59535400390625,0.9360746145248413,-0.060093868523836136,0.13843733072280884
1761131556492354000,2.60535400390625,0.8810967803001404,0.035811975598335266,0.13721559941768646
1761131556502354000,2.61535400390625,0.8157341480255127,0.07307475805282593,0.1347721517086029
1761131556512354000,2.62535400390625,0.7473172545433044,0.03764457255601883,0.1451568603515625
1761131556522354000,2.63535400390625,0.6245333552360535,-0.06314819306135178,0.18975001573562622
1761131556532354000,2.64535400390625,0.5121341347694397,-0.0918588638305664,0.21723894774913788
1761131556542354000,2.65535400390625,0.3789655268192291,-0.09002626687288284,0.22762365639209747
1761131556552354000,2.66535400390625,0.2335795909166336,-0.07170030474662781,0.21296289563179016
1761131556562355000,2.67535498046875,0.09918924421072006,-0.07414376735687256,0.17203491926193237
1761131556572354800,2.685354736328125,-0.005879578180611134,-0.11446087807416916,0.11705705523490906
1761131556582355000,2.69535498046875,-0.07063129544258118,-0.152334526181221,0.06085744872689247
1761131556592354800,2.705354736328125,-0.09384417533874512,-0.14439326524734497,0.010766499675810337
1761131556602355000,2.71535498046875,-0.10606148093938828,-0.09796751290559769,-0.04787656292319298
1761131556612354800,2.725354736328125,-0.130496084690094,-0.06925684958696365,-0.14378240704536438
1761131556622355000,2.73535498046875,-0.1604284793138504,-0.12056952714920044,-0.27695104479789734
1761131556632354800,2.745354736328125,-0.17936530709266663,-0.23724478483200073,-0.43760859966278076
1761131556642355000,2.75535498046875,-0.18364135921001434,-0.4162282943725586,-0.6104834675788879
1761131556652354800,2.765354736328125,-0.19280433654785156,-0.5976552963256836,-0.7766388058662415
1761131556662354200,2.775354248046875,-0.20013472437858582,-0.7039458155632019,-0.9104182720184326
1761131556672354300,2.785354248046875,-0.20990857481956482,-0.7033349871635437,-0.9941068291664124
1761131556682354200,2.795354248046875,-0.22701279819011688,-0.5078580975532532,-0.9928851127624512
1761131556692354300,2.805354248046875,-0.25389087200164795,-0.1682170182466507,-0.9061422348022461
1761131556702354200,2.815354248046875,-0.2960405647754669,0.24045182764530182,-0.7540367841720581
1761131556712354300,2.825354248046875,-0.34552064538002014,0.6454554796218872,-0.5579490661621094
1761131556722354200,2.835354248046875,-0.382783442735672,0.9637162685394287,-0.3355940878391266
1761131556732354000,2.84535400390625,-0.39988765120506287,1.1616365909576416,-0.12362385541200638
1761131556742354200,2.855354248046875,-0.40660718083381653,1.2184470891952515,0.047418415546417236
1761131556752354000,2.86535400390625,-0.39622247219085693,1.1170434951782227,0.18791742622852325
1761131556762355000,2.87535498046875,-0.38461601734161377,0.9728792905807495,0.18852828443050385
1761131556772355000,2.88535498046875,-0.373009592294693,0.777402400970459,0.11705705523490906
1761131556782355000,2.89535498046875,-0.353461891412735,0.5727625489234924,-0.019165897741913795
1761131556792355000,2.90535498046875,-0.3125339448451996,0.40660718083381653,-0.1938733607530594
1761131556802355200,2.915355224609375,-0.2520582675933838,0.30031663179397583,-0.3807981312274933
1761131556812355000,2.92535498046875,-0.1702023297548294,0.2526691257953644,-0.5438991189002991
1761131556822355200,2.935355224609375,-0.08101600408554077,0.2703842222690582,-0.6593526601791382
1761131556832355000,2.94535498046875,-0.006490443367511034,0.3314707577228546,-0.7106653451919556
1761131556842355000,2.95535498046875,0.04726569727063179,0.39072468876838684,-0.6990588903427124
1761131556852355000,2.96535498046875,0.08880453556776047,0.4231005311012268,-0.6324746012687683
1761131556862354200,2.975354248046875,0.12606731057167053,0.44081562757492065,-0.5090798139572144
1761131556872354300,2.985354248046875,0.1584431678056717,0.4585307240486145,-0.34231361746788025
1761131556882354200,2.995354248046875,0.17432567477226257,0.47624582052230835,-0.14866933226585388
1761131556892354300,3.005354248046875,0.16699528694152832,0.4640285074710846,0.04680754989385605
1761131556902354200,3.015354248046875,0.1382846236228943,0.41149410605430603,0.22884538769721985
1761131556912354300,3.025354248046875,0.09613491594791412,0.330859899520874,0.3882812261581421
1761131556922354200,3.035354248046875,0.042989641427993774,0.2355649173259735,0.5055673718452454
1761131556932354300,3.045354248046875,-0.0071013085544109344,0.13110695779323578,0.577038586139679
1761131556942354200,3.055354248046875,-0.05230533704161644,0.036422841250896454,0.6020840406417847
1761131556952354300,3.065354248046875,-0.08529205620288849,-0.016722436994314194,0.5941427946090698
1761131556962355000,3.07535498046875,-0.10667234659194946,-0.03199406713247299,0.566653847694397
1761131556972354800,3.085354736328125,-0.13171781599521637,-0.06436992436647415,0.5208389759063721
1761131556982355000,3.09535498046875,-0.16348281502723694,-0.1474476009607315,0.4328743815422058
1761131556992355000,3.10535498046875,-0.16959145665168762,-0.14683672785758972,0.3888920843601227
1761131557002355000,3.11535498046875,-0.16898059844970703,-0.06620252132415771,0.37056612968444824
1761131557012355000,3.12535498046875,-0.17631098628044128,0.07673994451761246,0.36934441328048706
1761131557022355000,3.13535498046875,-0.20013472437858582,0.23861923813819885,0.3778965175151825
1761131557032355000,3.14535498046875,-0.23495404422283173,0.37056612968444824,0.3785073757171631
1761131557042355000,3.15535498046875,-0.2716059684753418,0.45669811964035034,0.3638466000556946
1761131557052355000,3.16535498046875,-0.301538348197937,0.5037347674369812,0.3284164369106293
1761131557062354200,3.175354248046875,-0.30337095260620117,0.5043455958366394,0.27832546830177307
1761131557072354000,3.18535400390625,-0.2679407596588135,0.45608726143836975,0.2160172164440155
1761131557082354200,3.195354248046875,-0.1909717470407486,0.38644862174987793,0.14637859165668488
1761131557092354000,3.20535400390625,-0.0846811980009079,0.32963815331459045,0.07673994451761246
1761131557102354200,3.215354248046875,0.042989641427993774,0.3461315333843231,0.008323038928210735
1761131557112354000,3.22535400390625,0.17921258509159088,0.4334852397441864,-0.05093089118599892
1761131557122354200,3.235354248046875,0.30627256631851196,0.5251150131225586,-0.11018481850624084
1761131557132354000,3.24535400390625,0.42844560742378235,0.5183955430984497,-0.1731039434671402
1761131557142354200,3.255354248046875,0.5573381781578064,0.3723987340927124,-0.24701863527297974
1761131557152354000,3.26535400390625,0.677678644657135,0.15920674800872803,-0.3307071626186371
1761131557162355000,3.27535498046875,0.7735844850540161,0.0071013085544109344,-0.3911828398704529
1761131557172354800,3.285354736328125,0.8322275280952454,-0.03871358558535576,-0.3991240859031677
1761131557182355000,3.29535498046875,0.8511643409729004,0.01992947794497013,-0.353920042514801
1761131557192354800,3.305354736328125,0.8511643409729004,0.14698944985866547,-0.27206411957740784
1761131557202355000,3.31535498046875,0.857883870601654,0.2624429762363434,-0.18043431639671326
1761131557212354800,3.325354736328125,0.8884271383285522,0.2868776023387909,-0.07292203605175018
1761131557222355000,3.33535498046875,0.923246443271637,0.20807597041130066,-0.05032002553343773
1761131557232354800,3.345354736328125,0.9605092406272888,0.0694095641374588,-0.057039543986320496
1761131557242355000,3.35535498046875,0.9892199039459229,-0.1370628923177719,-0.09369145333766937
1761131557252354800,3.365354736328125,1.0081567764282227,-0.3710242807865143,-0.1431715488433838
1761131557262354200,3.375354248046875,1.0179306268692017,-0.5274057984352112,-0.18959729373455048
1761131557272354000,3.38535400390625,1.0051023960113525,-0.5426774024963379,-0.22197316586971283
1761131557282354000,3.39535400390625,0.951957106590271,-0.4363868534564972,-0.23724478483200073
1761131557292354000,3.40535400390625,0.8517752289772034,-0.24579690396785736,-0.24457517266273499
1761131557302354200,3.415354248046875,0.7247152328491211,-0.021609358489513397,-0.2390773892402649
1761131557312354000,3.42535400390625,0.600098729133606,0.1915826052427292,-0.20425806939601898
1761131557322354200,3.435354248046875,0.48892128467559814,0.3815616965293884,-0.12362385541200638
1761131557332354000,3.44535400390625,0.41317397356033325,0.5208389759063721,-0.0032834007870405912
1761131557342354000,3.45535400390625,0.37346774339675903,0.6283512711524963,0.14760030806064606
1761131557352354000,3.46535400390625,0.353920042514801,0.6906595230102539,0.3058144152164459
1761131557362355000,3.47535498046875,0.33803755044937134,0.6674466133117676,0.4481460154056549
1761131557372354800,3.485354736328125,0.33131805062294006,0.5611560940742493,0.5648213028907776
1761131557382355000,3.49535498046875,0.33315062522888184,0.4127158224582672,0.6527858972549438
1761131557392354800,3.505354736328125,0.33803755044937134,0.25328001379966736,0.7138723731040955
1761131557402355000,3.51535498046875,0.33131805062294006,0.10911580175161362,0.7401396036148071
1761131557412354800,3.525354736328125,0.31115949153900146,-0.011835514567792416,0.7297548651695251
1761131557422355000,3.53535498046875,0.273285835981369,-0.10346530377864838,0.6827182769775391
1761131557432354800,3.545354736328125,0.2238057553768158,-0.16149750351905823,0.6136904954910278
1761131557442355000,3.55535498046875,0.14683672785758972,-0.1938733607530594,0.5061782002449036
1761131557452354800,3.565354736328125,0.10529789328575134,-0.18715384602546692,0.4487568736076355
1761131557462354000,3.57535400390625,0.07292203605175018,-0.22502748668193817,0.39622247219085693
1761131557472354000,3.58535400390625,0.06559165567159653,-0.292833536863327,0.3675118088722229
1761131557482354000,3.59535400390625,0.08086328953504562,-0.30749428272247314,0.3815616965293884
1761131557492354000,3.60535400390625,0.102243572473526,-0.27756190299987793,0.4340961277484894
1761131557502354000,3.61535400390625,0.11507174372673035,-0.264122873544693,0.5055673718452454
1761131557512354000,3.62535400390625,0.11140654981136322,-0.2488512247800827,0.5660430192947388
1761131557522354000,3.63535400390625,0.09308059513568878,-0.22502748668193817,0.595364511013031
1761131557532354000,3.64535400390625,0.0771980956196785,-0.20914499461650848,0.5794820189476013
1761131557542354000,3.65535400390625,0.06803511828184128,-0.23602305352687836,0.5128977298736572
1761131557552354000,3.66535400390625,0.05887213721871376,-0.3081051707267761,0.4029420018196106
1761131557562355000,3.67535498046875,0.03260493278503418,-0.3954588770866394,0.2606103718280792
1761131557572354800,3.685354736328125,-0.014431691728532314,-0.4919756054878235,0.07307475805282593
1761131557582355000,3.69535498046875,-0.08651378750801086,-0.6263659596443176,-0.14378240704536438
1761131557592354800,3.705354736328125,-0.15737415850162506,-0.8035168647766113,-0.36674821376800537
1761131557602355000,3.71535498046875,-0.20685423910617828,-0.9666178822517395,-0.5823836326599121
1761131557612354800,3.725354736328125,-0.21968241035938263,-1.0887908935546875,-0.7870234847068787
1761131557622354000,3.73535400390625,-0.1964695304632187,-1.116890788078308,-0.96173095703125
1761131557632354000,3.74535400390625,-0.1610393524169922,-1.0240392684936523,-1.0790170431137085
1761131557642354000,3.75535400390625,-0.1408807933330536,-0.9104182720184326,-1.133384108543396
1761131557652354000,3.76535400390625,-0.15248723328113556,-0.8157341480255127,-1.1382709741592407
1761131557662353200,3.775353271484375,-0.18669569492340088,-0.677067756652832,-1.0802388191223145
1761131557672353300,3.785353271484375,-0.22273674607276917,-0.4516584873199463,-0.9635635614395142
1761131557682353200,3.795353271484375,-0.30398181080818176,-0.09430231899023056,-0.7442629337310791
1761131557692353300,3.805353271484375,-0.3687335252761841,0.059635721147060394,-0.6123160719871521
1761131557702353200,3.815353271484375,-0.4072180390357971,0.13782647252082825,-0.5017494559288025
1761131557712353000,3.82535302734375,-0.4182136058807373,0.14760030806064606,-0.4101196527481079
1761131557722353200,3.835353271484375,-0.4023311138153076,0.10056369006633759,-0.3300963044166565
1761131557732353000,3.84535302734375,-0.3516293168067932,0.08834638446569443,-0.22991441190242767
1761131557742353200,3.855353271484375,-0.30459266901016235,0.14393512904644012,-0.10651962459087372
1761131557752353000,3.86535302734375,-0.32047519087791443,0.23006711900234222,0.004657847341150045
1761131557762354000,3.87535400390625,-0.4127158224582672,0.27404943108558655,0.0645226389169693
1761131557772354000,3.88535400390625,-0.5446627140045166,0.28504499793052673,0.07063129544258118
1761131557782354000,3.89535400390625,-0.6839399933815002,0.2856558561325073,0.027870727702975273
1761131557792354000,3.90535400390625,-0.8067238926887512,0.263053834438324,-0.05398521572351456
1761131557802354000,3.91535400390625,-0.8946884870529175,0.24839307367801666,-0.1431715488433838
1761131557812354000,3.92535400390625,-0.9343947768211365,0.2862667143344879,-0.2030363380908966
1761131557822354000,3.93535400390625,-0.9417251348495483,0.38033998012542725,-0.223194882273674
1761131557832354000,3.94535400390625,-0.919123113155365,0.5000695586204529,-0.20059287548065186
1761131557842354000,3.95535400390625,-0.880638599395752,0.6234643459320068,-0.1419498175382614
1761131557852354000,3.96535400390625,-0.8232172727584839,0.6937138438224792,-0.06314819306135178
1761131557862353200,3.975353271484375,-0.7511351704597473,0.6717227101325989,0.02298380434513092
1761131557872353300,3.985353271484375,-0.6650031805038452,0.5617669224739075,0.11033753305673599
1761131557882353200,3.995353271484375,-0.5697082281112671,0.40538543462753296,0.19708040356636047
1761131557892353300,4.005353271484375,-0.47258061170578003,0.21418462693691254,0.2911536395549774
1761131557902353200,4.015353271484375,-0.382172554731369,0.02054034359753132,0.38033998012542725
1761131557912353300,4.025353271484375,-0.2868776023387909,-0.21464277803897858,0.5080108046531677
1761131557922354000,4.03535400390625,-0.2575560510158539,-0.28183794021606445,0.5800929069519043
1761131557932354000,4.04535400390625,-0.25877779722213745,-0.31604641675949097,0.6234643459320068
1761131557942354000,4.05535400390625,-0.2813797891139984,-0.34231361746788025,0.6460663676261902
1761131557952354000,4.06535400390625,-0.3174208402633667,-0.3594178259372711,0.6485098004341125
1761131557962355000,4.07535498046875,-0.3620140254497528,-0.39179369807243347,0.6320164799690247
1761131557972354800,4.085354736328125,-0.40049853920936584,-0.4302782118320465,0.6045275330543518
1761131557982355000,4.09535498046875,-0.4273765981197357,-0.4418846368789673,0.577038586139679
1761131557992354800,4.105354736328125,-0.4426482319831848,-0.4363868534564972,0.5471062064170837
1761131558002355000,4.11535498046875,-0.4493677318096161,-0.43272167444229126,0.5135086178779602
1761131558012354800,4.125354736328125,-0.45669811964035034,-0.4101196527481079,0.48724138736724854
1761131558022355000,4.13535498046875,-0.4579198658466339,-0.3307071626186371,0.47258061170578003
1761131558032354800,4.145354736328125,-0.4628067910671234,-0.17615826427936554,0.46525025367736816
1761131558042355000,4.15535498046875,-0.4793001413345337,0.004657847341150045,0.4469242990016937
1761131558052355000,4.16535498046875,-0.4988478422164917,0.15920674800872803,0.4090506434440613
1761131558062354200,4.175354248046875,-0.4988478422164917,0.27343854308128357,0.363235741853714
1761131558072354000,4.18535400390625,-0.46525025367736816,0.3479641079902649,0.3223077654838562
1761131558082354200,4.195354248046875,-0.4072180390357971,0.382172554731369,0.2832123935222626
1761131558092354000,4.20535400390625,-0.34552064538002014,0.3669009506702423,0.2361757755279541
1761131558102354200,4.215354248046875,-0.2856558561325073,0.2771037518978119,0.17203491926193237
1761131558112354000,4.22535400390625,-0.21846067905426025,0.13782647252082825,0.09262244403362274
1761131558122354200,4.235354248046875,-0.14882203936576843,0.008933904580771923,0.006490443367511034
1761131558132354000,4.24535400390625,-0.08040513843297958,-0.039324451237916946,-0.07780896127223969
1761131558142354200,4.255354248046875,0.01366810966283083,-0.04115704447031021,-0.1987602859735489
1761131558152354000,4.26535400390625,0.08391761034727097,-0.11079568415880203,-0.2696206569671631
1761131558162355000,4.27535498046875,0.17188221216201782,-0.19631682336330414,-0.3050508201122284
1761131558172354800,4.285354736328125,0.28183794021606445,-0.20120373368263245,-0.28183794021606445
1761131558182355000,4.29535498046875,0.3856850564479828,-0.15111279487609863,-0.1987602859735489
1761131558192354800,4.305354736328125,0.444938987493515,-0.12056952714920044,-0.08941540122032166
1761131558202355000,4.31535498046875,0.4620431959629059,-0.0924697294831276,0.0339793786406517
1761131558212354800,4.325354736328125,0.45410194993019104,-0.004505131393671036,0.16959145665168762
1761131558222355000,4.33535498046875,0.4363868534564972,0.12255483865737915,0.2911536395549774
1761131558232354800,4.345354736328125,0.4143957197666168,0.2508365511894226,0.37972912192344666
1761131558242355000,4.35535498046875,0.39729148149490356,0.34552064538002014,0.42554399371147156
1761131558252354800,4.365354736328125,0.396680623292923,0.3980550765991211,0.4292092025279999
1761131558262354000,4.37535400390625,0.41256311535835266,0.37545305490493774,0.3815616965293884
1761131558272354000,4.38535400390625,0.4412737786769867,0.25022566318511963,0.28993192315101624
1761131558282354000,4.39535400390625,0.47975829243659973,0.10545061528682709,0.16348281502723694
1761131558292354000,4.40535400390625,0.5084689855575562,0.0016035212902352214,0.029703322798013687
1761131558302354000,4.41535400390625,0.5084689855575562,-0.025885414332151413,-0.082085020840168
1761131558312354000,4.42535400390625,0.4858669340610504,0.004657847341150045,-0.1431715488433838
1761131558322354000,4.43535400390625,0.4559345543384552,0.07307475805282593,-0.15111279487609863
1761131558332354000,4.44535400390625,0.4247804284095764,0.16165021061897278,-0.10957395285367966
1761131558342354000,4.45535400390625,0.40340012311935425,0.25938865542411804,-0.030161472037434578
1761131558352354000,4.46535400390625,0.38201984763145447,0.3681226670742035,0.07368562370538712
1761131558362354700,4.475354736328125,0.35208746790885925,0.4524220824241638,0.17753271758556366
1761131558372354800,4.485354736328125,0.3142138123512268,0.5055673718452454,0.30398181080818176
1761131558382354700,4.495354736328125,0.3142138123512268,0.5165629386901855,0.3785073757171631
1761131558392354800,4.505354736328125,0.3300963044166565,0.4988478422164917,0.44509169459342957
1761131558402354700,4.515354736328125,0.3490331172943115,0.4383721649646759,0.5012912750244141
1761131558412354800,4.525354736328125,0.353920042514801,0.3473532497882843,0.5300019383430481
1761131558422354700,4.535354736328125,0.35758525133132935,0.2966514229774475,0.5373323559761047
1761131558432354800,4.545354736328125,0.36796995997428894,0.311312198638916,0.5263367891311646
1761131558442354700,4.555354736328125,0.38201984763145447,0.34552064538002014,0.49579349160194397
1761131558452354800,4.565354736328125,0.38873937726020813,0.3669009506702423,0.4395939111709595
1761131558462354000,4.57535400390625,0.3844633102416992,0.32414036989212036,0.3583488166332245
1761131558472354000,4.58535400390625,0.3704134225845337,0.19219347834587097,0.26488643884658813
1761131558482354000,4.59535400390625,0.34353533387184143,-0.0032834007870405912,0.17203491926193237
1761131558492354000,4.60535400390625,0.30627256631851196,-0.20425806939601898,0.09506590664386749
1761131558502354000,4.61535400390625,0.25251641869544983,-0.3551417887210846,0.047418415546417236
1761131558512354000,4.62535400390625,0.18593211472034454,-0.4308890700340271,0.035811975598335266
1761131558522354000,4.63535400390625,0.11446087807416916,-0.4455498456954956,0.05902485549449921
1761131558532354000,4.64535400390625,0.03749185428023338,-0.3942371606826782,0.09750936180353165
1761131558542354000,4.65535400390625,-0.024816401302814484,-0.2696206569671631,0.14210252463817596
1761131558552354000,4.66535400390625,-0.07551821321249008,-0.142560675740242,0.17875444889068604
1761131558562355000,4.67535498046875,-0.12316570430994034,-0.0869719386100769,0.19280433654785156
1761131558572354800,4.685354736328125,-0.15920674800872803,-0.12912164628505707,0.16775886714458466
1761131558582355000,4.69535498046875,-0.1799761801958084,-0.2433534413576126,0.11278099566698074
1761131558592354800,4.705354736328125,-0.19769126176834106,-0.3942371606826782,0.01992947794497013
1761131558602355000,4.71535498046875,-0.230677992105484,-0.6220899224281311,-0.17676913738250732
1761131558612354800,4.725354736328125,-0.2612212598323822,-0.7448738217353821,-0.31604641675949097
1761131558622355000,4.73535498046875,-0.29909488558769226,-0.8157341480255127,-0.4455498456954956
1761131558632354800,4.745354736328125,-0.32414036989212036,-0.8114581108093262,-0.5463426113128662
1761131558652354800,4.765354736328125,-0.2856558561325073,-0.5964335799217224,-0.6257550716400146
1761131558662354000,4.77535400390625,-0.22823452949523926,-0.44921502470970154,-0.609872579574585
1761131558672354000,4.78535400390625,-0.16165021061897278,-0.3410918712615967,-0.5823836326599121
1761131558682354000,4.79535400390625,-0.0895681157708168,-0.3087160289287567,-0.5518403649330139
1761131558692354000,4.80535400390625,-0.03214678168296814,-0.38324159383773804,-0.5310709476470947
1761131558702354000,4.81535400390625,0.002672535367310047,-0.49808424711227417,-0.5103015303611755
1761131558722354000,4.83535400390625,0.010002918541431427,-0.47914743423461914,-0.40278926491737366
1761131558732354000,4.84535400390625,-0.006490443367511034,-0.2983313202857971,-0.3142138123512268
1761131558742354000,4.85535400390625,-0.025427265092730522,-0.017333300784230232,-0.20181460678577423
1761131558752354000,4.86535400390625,-0.04864014685153961,0.3119230568408966,-0.0924697294831276
1761131558762355000,4.87535498046875,-0.10178542137145996,0.5642104148864746,-0.01794416643679142
1761131558772354800,4.885354736328125,-0.17753271758556366,0.653396725654602,0.010766499675810337
1761131558782355000,4.89535498046875,-0.2563343346118927,0.6100252866744995,-0.011835514567792416
1761131558792354800,4.905354736328125,-0.3369685411453247,0.4786892831325531,-0.08758280426263809
1761131558802355000,4.91535498046875,-0.4188244938850403,0.2929862439632416,-0.20914499461650848
1761131558812354800,4.925354736328125,-0.48724138736724854,0.11400272697210312,-0.3588069677352905
1761131558822354000,4.93535400390625,-0.5196172595024109,0.02603813074529171,-0.5121341347694397
1761131558832354000,4.94535400390625,-0.511676013469696,0.053527068346738815,-0.6355289220809937
1761131558842354000,4.95535400390625,-0.46586111187934875,0.1915826052427292,-0.7283804416656494
1761131558852354000,4.96535400390625,-0.4322635233402252,0.3161991238594055,-0.7265478372573853
1761131558862353200,4.975353271484375,-0.40049853920936584,0.4383721649646759,-0.6758460402488708
1761131558872353000,4.98535302734375,-0.3571271002292633,0.5226715803146362,-0.5811619162559509
1761131558882353200,4.995353271484375,-0.29970577359199524,0.5605452060699463,-0.4522693455219269
1761131558892353000,5.00535302734375,-0.230677992105484,0.5422192811965942,-0.2989421784877777
1761131558902353200,5.015353271484375,-0.15187637507915497,0.4689154326915741,-0.12851077318191528
1761131558912353000,5.02535302734375,-0.07918340712785721,0.36079227924346924,0.04558581858873367
1761131558922353200,5.035353271484375,-0.016264287754893303,0.25877779722213745,0.21723894774913788
1761131558932353000,5.04535302734375,0.02344195358455181,0.15370896458625793,0.3736204504966736
1761131558942353200,5.055353271484375,0.04054617881774902,0.053527068346738815,0.5000695586204529
1761131558952353000,5.06535302734375,0.039935316890478134,-0.018555032089352608,0.5886450409889221
1761131558962354000,5.07535400390625,0.03260493278503418,-0.06375905871391296,0.6399577260017395
1761131558972353800,5.085353759765625,0.018555032089352608,-0.07964155822992325,0.654007613658905
1761131558982354000,5.09535400390625,0.0032834007870405912,-0.06314819306135178,0.6393468379974365
1761131558992354000,5.10535400390625,-0.019318614155054092,-0.07903069257736206,0.5898667573928833
1761131559002354000,5.11535400390625,-0.03825543448328972,-0.15905404090881348,0.5098434090614319
1761131559012354000,5.12535400390625,-0.04864014685153961,-0.28672486543655396,0.4090506434440613
1761131559022354000,5.13535400390625,-0.04619668424129486,-0.41745004057884216,0.2917645275592804
1761131559032354000,5.14535400390625,-0.04069889709353447,-0.5267949104309082,0.1750892549753189
1761131559042354000,5.15535400390625,-0.04558581858873367,-0.5561164617538452,0.07735081017017365
1761131559052354000,5.16535400390625,-0.0742964819073677,-0.4663192629814148,0.002825251780450344
1761131559062353200,5.175353271484375,-0.11583532392978668,-0.2787836194038391,-0.05520694702863693
1761131559072353300,5.185353271484375,-0.1408807933330536,0.08284860104322433,-0.12545645236968994
1761131559082353200,5.195353271484375,-0.08651378750801086,0.3381902575492859,-0.14072808623313904
1761131559092353000,5.20535302734375,0.025274548679590225,0.5446627140045166,-0.12606731057167053
1761131559102353200,5.215353271484375,0.16699528694152832,0.6680575013160706,-0.09918924421072006
1761131559112353000,5.22535302734375,0.30749428272247314,0.6601162552833557,-0.09063713252544403
1761131559122354000,5.23535400390625,0.4296673536300659,0.4896848499774933,-0.12179125845432281
1761131559132354000,5.24535400390625,0.5408447980880737,0.19402606785297394,-0.19081902503967285
1761131559142354000,5.25535400390625,0.6453027725219727,-0.1077413558959961,-0.26656633615493774
1761131559152354000,5.26535400390625,0.7436521053314209,-0.24762949347496033,-0.3093268871307373
1761131559162355000,5.27535498046875,0.8212319612503052,-0.17188221216201782,-0.3081051707267761
1761131559172354800,5.285354736328125,0.8493317365646362,0.06269004940986633,-0.292833536863327
1761131559182355000,5.29535498046875,0.838947057723999,0.2813797891139984,-0.3038291037082672
1761131559192354800,5.305354736328125,0.828562319278717,0.4285983145236969,-0.3355940878391266
1761131559202355000,5.31535498046875,0.8474991917610168,0.49640437960624695,-0.3606395721435547
1761131559212354800,5.325354736328125,0.9091965556144714,0.4884631335735321,-0.344757080078125
1761131559222355000,5.33535498046875,1.0057132244110107,0.4676937162876129,-0.26656633615493774
1761131559232354800,5.345354736328125,1.1083385944366455,0.4628067910671234,-0.1382846236228943
1761131559242355000,5.35535498046875,1.1926380395889282,0.5092325210571289,0.01687515154480934
1761131559252354800,5.365354736328125,1.2567788362503052,0.5507713556289673,0.1653154045343399
1761131559262354000,5.37535400390625,1.2964850664138794,0.5080108046531677,0.27466028928756714
1761131559272354000,5.38535400390625,1.3361914157867432,0.3589596748352051,0.3265838325023651
1761131559282354000,5.39535400390625,1.3728432655334473,0.13721559941768646,0.32047519087791443
1761131559292354000,5.40535400390625,1.3911691904067993,-0.10529789328575134,0.25938865542411804
1761131559302354200,5.415354248046875,1.3349696397781372,-0.37713292241096497,0.08773551881313324
1761131559312354000,5.42535400390625,1.2231812477111816,-0.43883031606674194,-0.060704734176397324
1761131559322354200,5.435354248046875,1.0460304021835327,-0.3856850564479828,-0.22747094929218292
1761131559332354000,5.44535400390625,0.8212319612503052,-0.29649871587753296,-0.4095087945461273
1761131559342354000,5.45535400390625,0.5872705578804016,-0.20059287548065186,-0.5860488414764404
1761131559352354000,5.46535400390625,0.36796995997428894,-0.11873693019151688,-0.7436521053314209
1761131559362354700,5.475354736328125,0.18593211472034454,-0.10407616943120956,-0.8554404377937317
1761131559372354800,5.485354736328125,0.08941540122032166,-0.11018481850624084,-0.8841511011123657
1761131559382354700,5.495354736328125,0.09552405029535294,-0.06436992436647415,-0.8120689988136292
1761131559392354800,5.505354736328125,0.18043431639671326,0.07063129544258118,-0.6440810561180115
1761131559402354700,5.515354736328125,0.32765284180641174,0.292375385761261,-0.38690677285194397
1761131559412354800,5.525354736328125,0.49869510531425476,0.5721516609191895,-0.07353290170431137
1761131559422355000,5.53535498046875,0.6526331305503845,0.8519279360771179,0.2526691257953644
1761131559432354800,5.545354736328125,0.7638106346130371,1.0254136323928833,0.5495496392250061
1761131559442355000,5.55535498046875,0.8175667524337769,1.0742828845977783,0.7847327589988708
1761131559452354800,5.565354736328125,0.8352818489074707,1.0333548784255981,0.956996738910675
1761131559462354000,5.57535400390625,0.8132907152175903,0.9166796803474426,1.0504591464996338
1761131559472354000,5.58535400390625,0.7528150677680969,0.7376961708068848,1.0687850713729858
1761131559482354000,5.59535400390625,0.6617961525917053,0.5232824683189392,1.024191975593567
1761131559492354000,5.60535400390625,0.5500078201293945,0.30031663179397583,0.9221774339675903
1761131559502354000,5.61535400390625,0.43394339084625244,0.08162686973810196,0.7700719833374023
1761131559512354000,5.62535400390625,0.33803755044937134,-0.12545645236968994,0.5715407729148865
1761131559522354000,5.63535400390625,0.29772046208381653,-0.2885574698448181,0.353461891412735
1761131559532354000,5.64535400390625,0.3410918712615967,-0.3844633102416992,0.0443640872836113
1761131559542354000,5.65535400390625,0.3789655268192291,-0.47914743423461914,-0.13400855660438538
1761131559552354000,5.66535400390625,0.3991240859031677,-0.5799401998519897,-0.2683989107608795
1761131559562355000,5.67535498046875,0.40278926491737366,-0.5878814458847046,-0.3197115957736969
1761131559572354800,5.685354736328125,0.3905719518661499,-0.47364965081214905,-0.2787836194038391
1761131559582321700,5.69532177734375,0.34781140089035034,-0.3197115957736969,-0.17432567477226257
1761131559592288300,5.705288330078125,0.28611400723457336,-0.20120373368263245,-0.04054617881774902
1761131559602254800,5.7152548828125,0.22502748668193817,-0.12667818367481232,0.0999528244137764
1761131559612221400,5.725221435546875,0.16577355563640594,-0.08880453556776047,0.21968241035938263
1761131559622188300,5.735188232421875,0.10163270682096481,-0.10896308720111847,0.28504499793052673
1761131559632155000,5.74515478515625,0.04054617881774902,-0.15416711568832397,0.28993192315101624
1761131559642121500,5.75512158203125,-0.023594669997692108,-0.24579690396785736,0.23861923813819885
1761131559652088300,5.76508837890625,-0.08284860104322433,-0.415617436170578,0.12622003257274628
1761131559662054100,5.77505419921875,-0.14149166643619537,-0.6440810561180115,-0.04421137273311615
1761131559672020700,5.785020751953125,-0.17631098628044128,-0.8322275280952454,-0.23785565793514252
1761131559681987300,5.7949873046875,-0.17936530709266663,-0.8554404377937317,-0.42783474922180176
1761131559691954200,5.8049541015625,-0.17875444889068604,-0.7473172545433044,-0.5933791995048523
1761131559701920800,5.814920654296875,-0.1860848218202591,-0.5774967074394226,-0.7283804416656494
1761131559711887400,5.824887451171875,-0.22029328346252441,-0.44432809948921204,-0.8474991917610168
1761131559721854000,5.83485400390625,-0.25877779722213745,-0.3245985209941864,-0.9317985773086548
1761131559731820800,5.84482080078125,-0.2832123935222626,-0.20425806939601898,-0.9660070538520813
1761131559741787400,5.854787353515625,-0.28382325172424316,-0.1272890418767929,-0.9495136737823486
1761131559751754000,5.86475390625,-0.2612212598323822,-0.102243572473526,-0.868268609046936
1761131559761721600,5.8747216796875,-0.22456933557987213,-0.022831087931990623,-0.7228826880455017
1761131559771688200,5.884688232421875,-0.1915826052427292,0.056581392884254456,-0.5322927236557007
1761131559781655000,5.894655029296875,-0.17936530709266663,0.11705705523490906,-0.3191007375717163
1761131559791621600,5.90462158203125,-0.18730655312538147,0.263053834438324,-0.10285443812608719
1761131559801588200,5.914588134765625,-0.19952386617660522,0.4377613067626953,0.09567677229642868
1761131559811555000,5.92455517578125,-0.20502164959907532,0.6924921274185181,0.30947959423065186
1761131559821521700,5.934521728515625,-0.19219347834587097,0.7554112076759338,0.3675118088722229
1761131559831488300,5.94448828125,-0.15370896458625793,0.6753878593444824,0.3363576829433441
1761131559841454800,5.954454833984375,-0.06391177326440811,0.47685667872428894,0.230677992105484
1761131559851421700,5.964421630859375,0.08452847599983215,0.13110695779323578,0.059635721147060394
1761131559861387500,5.974387451171875,0.2494620978832245,-0.3661373555660248,-0.17432567477226257
1761131559871354000,5.98435400390625,0.41867175698280334,-0.7760279178619385,-0.425391286611557
1761131559881354000,5.99435400390625,0.5591707825660706,-0.878042459487915,-0.6532440185546875
1761131559891354000,6.00435400390625,0.6434701681137085,-0.6825655698776245,-0.8346710205078125
1761131559901354000,6.01435400390625,0.6746243238449097,-0.28061622381210327,-0.9440158605575562
1761131559911354000,6.02435400390625,0.658130943775177,0.21784982085227966,-0.9898307919502258
1761131559921354000,6.03435400390625,0.6227007508277893,0.6430120468139648,-0.980667769908905
1761131559931353900,6.044353759765625,0.6269767880439758,0.9179013967514038,-0.9146943688392639
1761131559941354000,6.05435400390625,0.697226345539093,1.0858893394470215,-0.7851909399032593
1761131559951353900,6.064353759765625,0.8126798272132874,1.1054370403289795,-0.5988770127296448
1761131559961354800,6.074354736328125,0.9354637861251831,0.9661597609519958,-0.37713292241096497
1761131559971355000,6.08435498046875,1.0215957164764404,0.7431939244270325,-0.13339769840240479
1761131559981354800,6.094354736328125,1.055193305015564,0.5281693339347839,0.1146135926246643
1761131559991355000,6.10435498046875,1.0197631120681763,0.36567920446395874,0.3424663245677948
1761131560001354800,6.114354736328125,0.9183595180511475,0.272827684879303,0.5293911099433899
1761131560011355000,6.12435498046875,0.7845800518989563,0.24778221547603607,0.6723335385322571
1761131560021354800,6.134354736328125,0.6538549065589905,0.2575560510158539,0.7633524537086487
1761131560031355000,6.14435498046875,0.534736156463623,0.2569451928138733,0.787176251411438
1761131560041354800,6.154354736328125,0.39240455627441406,0.2013564556837082,0.7144832611083984
1761131560051355000,6.16435498046875,0.32826370000839233,0.16959145665168762,0.6216317415237427
1761131560061354000,6.17435400390625,0.26167941093444824,0.11827878654003143,0.4835762083530426
1761131560071353900,6.184353759765625,0.1981494128704071,0.025427265092730522,0.31375566124916077
1761131560081354000,6.19435400390625,0.15355625748634338,-0.0668133869767189,0.13843733072280884
1761131560091353900,6.204353759765625,0.13400855660438538,-0.14928019046783447,-0.010002918541431427
1761131560101354000,6.21435400390625,0.1431715488433838,-0.18959729373455048,-0.11507174372673035
1761131560111353900,6.224353759765625,0.16577355563640594,-0.1883755773305893,-0.17737999558448792
1761131560121354000,6.23435400390625,0.19631682336330414,-0.1272890418767929,-0.20059287548065186
1761131560131353900,6.244353759765625,0.2433534413576126,0.025427265092730522,-0.18471038341522217
1761131560141354000,6.25435400390625,0.3050508201122284,0.22212587296962738,-0.14683672785758972
1761131560151353900,6.264353759765625,0.39729148149490356,0.3992767930030823,-0.09002626687288284
1761131560161354800,6.274354736328125,0.5206862688064575,0.5269476175308228,-0.0069485921412706375
1761131560171355000,6.28435498046875,0.667293906211853,0.6179665327072144,0.10239628702402115
1761131560181354800,6.294354736328125,0.8114581108093262,0.6454554796218872,0.22212587296962738
1761131560191355000,6.30435498046875,0.9275225400924683,0.6259077787399292,0.3271946907043457
1761131560201354800,6.314354736328125,1.0051023960113525,0.5813146233558655,0.4084397852420807
1761131560211355000,6.32435498046875,1.0521390438079834,0.5287802219390869,0.4676937162876129
1761131560221354000,6.33435400390625,1.0667997598648071,0.45181119441986084,0.49273917078971863
1761131560231354000,6.34435400390625,1.0600802898406982,0.32352951169013977,0.46708282828330994
1761131560241354000,6.35435400390625,1.0417543649673462,0.14943291246891022,0.39500072598457336
1761131560251354000,6.36435400390625,1.007545828819275,-0.030772335827350616,0.2911536395549774
1761131560261353200,6.374353271484375,0.9501245021820068,-0.11201741546392441,0.17936530709266663
1761131560271353000,6.38435302734375,0.8187885284423828,-0.04909829422831535,0.03459024429321289
1761131560281353200,6.394353271484375,0.7234935164451599,0.05780312418937683,-0.04054617881774902
1761131560291353000,6.40435302734375,0.6617961525917053,0.2459496259689331,-0.0869719386100769
1761131560301353200,6.414353271484375,0.6593526601791382,0.5672647356987,-0.10102184116840363
1761131560311353000,6.42435302734375,0.7271587252616882,0.9527207016944885,-0.07414376735687256
1761131560321353200,6.434353271484375,0.8517752289772034,1.2251665592193604,-0.052152618765830994
1761131560331353000,6.44435302734375,1.0142654180526733,1.2349404096603394,-0.06436992436647415
1761131560341353200,6.454353271484375,1.2250138521194458,1.0883327722549438,-0.09552405029535294
1761131560351353000,6.46435302734375,1.436373233795166,0.7926740050315857,-0.16638441383838654
1761131560361354000,6.47435400390625,1.5817592144012451,0.13171781599521637,-0.32337677478790283
1761131560371354000,6.48435400390625,1.6996561288833618,-0.7210500836372375,-0.48953214287757874
1761131560381354000,6.49435400390625,1.817553162574768,-1.2616658210754395,-0.5219079852104187
1761131560391354000,6.50435400390625,1.9000200033187866,-1.2457833290100098,-0.4003458023071289
1761131560401354000,6.51435400390625,1.8963547945022583,-0.7980191111564636,-0.17982345819473267
1761131560411354000,6.52435400390625,1.8126662969589233,-0.13950635492801666,0.07551821321249008
1761131560421353200,6.534353271484375,1.695991039276123,0.4176027476787567,0.3076470196247101
1761131560431353000,6.54435302734375,1.617800235748291,0.6570619344711304,0.45669811964035034
1761131560441353200,6.554353271484375,1.6129133701324463,0.6729444265365601,0.5141194462776184
1761131560451353000,6.56435302734375,1.6532304286956787,0.5654321312904358,0.48601967096328735
1761131560461352200,6.574352294921875,1.655673861503601,0.3840051591396332,0.3937790095806122
1761131560471352300,6.584352294921875,1.579926609992981,0.2624429762363434,0.26916250586509705
1761131560481352200,6.594352294921875,1.4174364805221558,0.19341520965099335,0.13660474121570587
1761131560491352300,6.604352294921875,1.2164617776870728,0.14454598724842072,0.021151209250092506
1761131560501352400,6.6143525390625,1.0448086261749268,0.17875444889068604,-0.039935316890478134
1761131560511352300,6.624352294921875,0.9208030104637146,0.3626248836517334,-0.008781188167631626
1761131560521353000,6.63435302734375,0.9324094653129578,0.5403866767883301,0.0895681157708168
1761131560531353000,6.64435302734375,0.9996046423912048,0.7615199089050293,0.2361757755279541
1761131560541353000,6.65435302734375,1.0869582891464233,0.9924269318580627,0.4023311138153076
1761131560551353000,6.66435302734375,1.171257734298706,1.187903881072998,0.5629886984825134
1761131560561354000,6.67435400390625,1.228068232536316,1.2764792442321777,0.6869943141937256
1761131560571353900,6.684353759765625,1.2653310298919678,1.299692153930664,0.7700719833374023
1761131560581354000,6.69435400390625,1.2818243503570557,1.2777010202407837,0.8085564970970154
1761131560591353900,6.704353759765625,1.2653310298919678,1.1726322174072266,0.7908414006233215
1761131560601354000,6.71435400390625,1.2213486433029175,0.9698249101638794,0.7218136191368103
1761131560611353900,6.724353759765625,1.1682034730911255,0.7175375819206238,0.6393468379974365
1761131560621354000,6.73435400390625,1.1187233924865723,0.44631341099739075,0.5648213028907776
1761131560631354000,6.74435400390625,1.0753519535064697,0.20257818698883057,0.49640437960624695
1761131560641354000,6.75435400390625,1.0356457233428955,0.08040513843297958,0.43470698595046997
1761131560651354000,6.76435400390625,1.0002155303955078,0.07307475805282593,0.37484219670295715
1761131560661353200,6.774353271484375,0.9556223154067993,0.12255483865737915,0.31009048223495483
1761131560671353000,6.78435302734375,0.8945357799530029,0.18669569492340088,0.23739750683307648
1761131560681353200,6.794353271484375,0.8407796621322632,0.21968241035938263,0.15920674800872803
1761131560691353000,6.80435302734375,0.8139016032218933,0.19769126176834106,0.08712465316057205
1761131560701353200,6.814353271484375,0.8077929019927979,0.13232868909835815,0.03214678168296814
1761131560711353000,6.82435302734375,0.8126798272132874,0.06391177326440811,-0.0014508049935102463
1761131560721354000,6.83435400390625,0.809625506401062,0.035811975598335266,-0.016111571341753006
1761131560731353900,6.844353759765625,0.7943539023399353,0.05841398984193802,-0.025274548679590225
1761131560741354000,6.85435400390625,0.7564802765846252,0.19891299307346344,-0.04482223838567734
1761131560751353900,6.864353759765625,0.7314347624778748,0.2606103718280792,-0.07597636431455612
1761131560761354800,6.874354736328125,0.7253261208534241,0.2526691257953644,-0.11507174372673035
1761131560771355000,6.88435498046875,0.7595345973968506,0.25389087200164795,-0.1321759670972824
1761131560781355000,6.89435498046875,0.820010244846344,0.3278055489063263,-0.11507174372673035
1761131560791355000,6.90435498046875,0.8566621541976929,0.43653959035873413,-0.10407616943120956
1761131560801355000,6.91435498046875,0.8340601325035095,0.5086216926574707,-0.15050192177295685
1761131560811355000,6.92435498046875,0.7772496938705444,0.49090659618377686,-0.26656633615493774
1761131560821354800,6.934354736328125,0.6831763982772827,0.2771037518978119,-0.4620431959629059
1761131560831355000,6.94435498046875,0.5683337450027466,-0.17676913738250732,-0.716163158416748
1761131560841354800,6.954354736328125,0.4602105915546417,-0.7601454257965088,-0.99166339635849
1761131560851355000,6.96435498046875,0.40217840671539307,-1.1901946067810059,-1.2237921953201294
1761131560861354000,6.97435400390625,0.38385245203971863,-1.3728432655334473,-1.382006287574768
1761131560871354000,6.98435400390625,0.3746894598007202,-1.3184763193130493,-1.455920934677124
1761131560881354000,6.99435400390625,0.39240455627441406,-0.913472592830658,-1.418047308921814
1761131560891353900,7.004353759765625,0.46387580037117004,-0.20547980070114136,-1.2555571794509888
1761131560901354000,7.01435400390625,0.5884923338890076,0.5324454307556152,-1.0032697916030884
1761131560911353900,7.024353759765625,0.7503715753555298,1.0516809225082397,-0.7167739868164062
1761131560921354000,7.03435400390625,0.9189704060554504,1.270370602607727,-0.4192826449871063
1761131560931353900,7.044353759765625,1.068021535873413,1.289918303489685,-0.14378240704536438
1761131560941354000,7.05435400390625,1.1785881519317627,1.2215014696121216,0.0846811980009079
1761131560951353900,7.064353759765625,1.2305116653442383,1.0944414138793945,0.24411702156066895
1761131560961354800,7.074354736328125,1.2237921953201294,0.9521098136901855,0.33513593673706055
1761131560971355000,7.08435498046875,1.1565970182418823,0.7590764164924622,0.37484219670295715
1761131560981354800,7.094354736328125,1.0765736103057861,0.6692792177200317,0.3473532497882843
1761131560991355000,7.10435498046875,0.9757808446884155,0.6222426295280457,0.2856558561325073
1761131561001354800,7.114354736328125,0.8554404377937317,0.6106361746788025,0.1860848218202591
1761131561011355000,7.12435498046875,0.7363216876983643,0.6265186667442322,0.06207918003201485
1761131561021355000,7.13435498046875,0.638583242893219,0.6595053672790527,-0.06925684958696365
1761131561031355100,7.144355224609375,0.5884923338890076,0.6894378066062927,-0.18593211472034454
1761131561041355000,7.15435498046875,0.5836054086685181,0.6766096353530884,-0.27145323157310486
1761131561051355100,7.164355224609375,0.6172029972076416,0.6362925171852112,-0.31238120794296265
1761131561061354200,7.174354248046875,0.6715700030326843,0.5941427946090698,-0.31299206614494324
1761131561071354000,7.18435400390625,0.7271587252616882,0.5623778104782104,-0.27695104479789734
1761131561081354200,7.194354248046875,0.7729735970497131,0.5330562591552734,-0.21708624064922333
1761131561091354000,7.20435400390625,0.8053494691848755,0.5006804466247559,-0.14133894443511963
1761131561101354200,7.214354248046875,0.8181776404380798,0.44570255279541016,-0.05826127156615257
1761131561111354000,7.22435400390625,0.8059603571891785,0.40110939741134644,0.01992947794497013
1761131561121354200,7.234354248046875,0.7729735970497131,0.3522401750087738,0.08834638446569443
1761131561131354000,7.24435400390625,0.7271587252616882,0.2874884605407715,0.1500437706708908
1761131561141354200,7.254354248046875,0.6764569282531738,0.1964695304632187,0.21296289563179016
1761131561151354000,7.26435400390625,0.6263659596443176,0.09384417533874512,0.2764928936958313
1761131561161355000,7.27435498046875,0.5799401998519897,0.008323038928210735,0.33880114555358887
1761131561171355100,7.284355224609375,0.5414556860923767,-0.04787656292319298,0.3980550765991211
1761131561181355000,7.29435498046875,0.505414605140686,-0.06742425262928009,0.4426482319831848
1761131561191355100,7.304355224609375,0.46448665857315063,-0.07292203605175018,0.4475351572036743
1761131561201355000,7.31435498046875,0.4009566605091095,-0.12545645236968994,0.37484219670295715
1761131561211355100,7.324355224609375,0.36796995997428894,-0.1676061451435089,0.30214923620224
1761131561231355100,7.344355224609375,0.32154420018196106,-0.13523028790950775,0.17325665056705475
1761131561241355000,7.35435498046875,0.29161179065704346,-0.10102184116840363,0.12377656996250153
1761131561251355100,7.364355224609375,0.26717719435691833,-0.05276348441839218,0.09017898142337799
1761131561261354500,7.3743544921875,0.254349023103714,0.0022143865935504436,0.07307475805282593
1761131561271354400,7.384354248046875,0.25740334391593933,-0.005115996580570936,0.06696610152721405
1761131561281354500,7.3943544921875,0.28733575344085693,-0.10407616943120956,0.08101600408554077
1761131561291354400,7.404354248046875,0.344757080078125,-0.2793944776058197,0.12133310735225677
1761131561301354500,7.4143544921875,0.3942371606826782,-0.5432882905006409,0.1653154045343399
1761131561311354400,7.424354248046875,0.42905646562576294,-0.8035168647766113,0.20746511220932007
1761131561321354200,7.434354248046875,0.44432809948921204,-0.933020293712616,0.2606103718280792
1761131561331354000,7.44435400390625,0.43760859966278076,-0.8762098550796509,0.3278055489063263
1761131561341354200,7.454354248046875,0.415617436170578,-0.5836054086685181,0.4133267104625702
1761131561351354000,7.46435400390625,0.3905719518661499,-0.07170030474662781,0.511676013469696
1761131561361355000,7.47435498046875,0.37346774339675903,0.4841870665550232,0.5916993618011475
1761131561371355000,7.48435498046875,0.38751763105392456,0.8684213161468506,0.6259077787399292
1761131561381355000,7.49435498046875,0.4510476291179657,1.0865001678466797,0.6094144582748413
1761131561391355000,7.50435498046875,0.5585598945617676,1.158582329750061,0.5306128263473511
1761131561401355000,7.51435498046875,0.6886742115020752,1.051069974899292,0.39561161398887634
1761131561411355000,7.52435498046875,0.8346710205078125,0.8103891015052795,0.2361757755279541
1761131561421355300,7.534355224609375,0.9831112623214722,0.5367214679718018,0.08162686973810196
1761131561431355400,7.54435546875,1.1480448246002197,0.29970577359199524,-0.10529789328575134
1761131561441355300,7.554355224609375,1.1859185695648193,0.3320816159248352,-0.18532124161720276
1761131561451355400,7.56435546875,1.1620947122573853,0.4884631335735321,-0.24029912054538727
1761131561461354500,7.5743544921875,1.1034517288208008,0.6857725977897644,-0.3001639246940613
1761131561471354400,7.584354248046875,1.0405325889587402,0.8268824815750122,-0.39729148149490356
1761131561481354500,7.5943544921875,1.0142654180526733,0.8421540856361389,-0.5506186485290527
1761131561491354400,7.604354248046875,1.0313695669174194,0.6912704110145569,-0.752204179763794
1761131561501354500,7.6143544921875,1.0686323642730713,0.34490978717803955,-0.9702830910682678
1761131561511354400,7.624354248046875,1.1425471305847168,-0.0668133869767189,-1.1486557722091675
1761131561521354500,7.6343544921875,1.236620306968689,-0.31238120794296265,-1.2402855157852173
1761131561531354400,7.644354248046875,1.294041633605957,-0.37346774339675903,-1.2451725006103516
1761131561541354500,7.6543544921875,1.3062589168548584,-0.23174700140953064,-1.1547644138336182
1761131561551354400,7.664354248046875,1.305037260055542,0.09934195876121521,-0.9690613746643066
1761131561561355000,7.67435498046875,1.3019828796386719,0.5721516609191895,-0.7131088376045227
1761131561571355100,7.684355224609375,1.2879329919815063,1.0565677881240845,-0.43394339084625244
1761131561581355000,7.69435498046875,1.2824351787567139,1.4004849195480347,-0.1779908537864685
1761131561591355100,7.704355224609375,1.3056480884552002,1.5984052419662476,0.03764457255601883
1761131561601355000,7.71435498046875,1.36245858669281,1.6686547994613647,0.20990857481956482
1761131561611355100,7.724355224609375,1.4308754205703735,1.6387224197387695,0.3357468247413635
1761131561621355000,7.73435498046875,1.49196195602417,1.5458709001541138,0.42554399371147156
1761131561631355100,7.744355224609375,1.5389986038208008,1.4194217920303345,0.49151745438575745
1761131561641355000,7.75435498046875,1.568930983543396,1.2740358114242554,0.5306128263473511
1761131561651355100,7.764355224609375,1.5780940055847168,1.099939227104187,0.5300019383430481
1761131561661354200,7.774354248046875,1.5835918188095093,0.9026297330856323,0.49640437960624695
1761131561671354400,7.784354248046875,1.6061937808990479,0.5837581157684326,0.41577014327049255
1761131561681354200,7.794354248046875,1.6202436685562134,0.3742313086986542,0.3565162420272827
1761131561691354400,7.804354248046875,1.6269632577896118,0.18852828443050385,0.3009274899959564
1761131561701354200,7.814354248046875,1.6147459745407104,0.04864014685153961,0.25816693902015686
1761131561711354400,7.824354248046875,1.5768722295761108,-0.04726569727063179,0.22334760427474976
1761131561721354000,7.83435400390625,1.5139532089233398,-0.1474476009607315,0.2056325078010559
1761131561731353900,7.844353759765625,1.4351515769958496,-0.16149750351905823,0.22945626080036163
1761131561741354000,7.85435400390625,1.344132661819458,-0.08880453556776047,0.28504499793052673
1761131561751353900,7.864353759765625,1.2237921953201294,-0.018555032089352608,0.3375793993473053
1761131561761354800,7.874354736328125,1.0936778783798218,-0.016722436994314194,0.3785073757171631
1761131561771355000,7.88435498046875,0.9763917326927185,-0.03321579843759537,0.42554399371147156
1761131561781355000,7.89435498046875,0.8878162503242493,-0.05581781268119812,0.4744132161140442
1761131561791355000,7.90435498046875,0.8181776404380798,-0.1627192348241806,0.5000695586204529
1761131561801354800,7.914354736328125,0.7693084478378296,-0.36186128854751587,0.4933500289916992
1761131561811355000,7.92435498046875,0.7326564788818359,-0.6049856543540955,0.4524220824241638
1761131561821354800,7.934354736328125,0.6923394203186035,-0.8401687741279602,0.3687335252761841
1761131561831355000,7.94435498046875,0.629420280456543,-1.0325913429260254,0.2410627007484436
1761131561841354800,7.954354736328125,0.5506186485290527,-1.134605884552002,0.10361801832914352
1761131561851355000,7.96435498046875,0.4565454125404358,-1.0729084014892578,0.005268712528049946
1761131561861354000,7.97435400390625,0.344757080078125,-0.7674758434295654,-0.03321579843759537
1761131561871353900,7.984353759765625,0.20059287548065186,-0.25618159770965576,-0.018555032089352608
1761131561881354000,7.99435400390625,0.022831087931990623,0.3742313086986542,0.008323038928210735
1761131561891353900,8.004353759765625,-0.19769126176834106,0.9429468512535095,-0.011835514567792416
1761131561901354000,8.01435400390625,-0.5171737670898438,1.2990813255310059,-0.15111279487609863
1761131561911353900,8.024353759765624,-0.6656140685081482,1.1952341794967651,-0.2946661114692688
1761131561921354000,8.03435400390625,-0.7548003792762756,0.861090898513794,-0.4553236961364746
1761131561931353900,8.044353759765626,-0.7926740050315857,0.4084397852420807,-0.6007096171379089
1761131561941354000,8.05435400390625,-0.7700719833374023,0.10911580175161362,-0.6727917194366455
1761131561951353900,8.064353759765625,-0.7273114323616028,0.08223773539066315,-0.6636287569999695
1761131561961354800,8.074354736328125,-0.7163158655166626,0.25999951362609863,-0.5774967074394226
1761131561971355000,8.08435498046875,-0.7102072238922119,0.5794820189476013,-0.43883031606674194
1761131561981354800,8.094354736328125,-0.6949355602264404,0.928286075592041,-0.27695104479789734
1761131561991355000,8.10435498046875,-0.663781464099884,1.1927907466888428,-0.12118039280176163
1761131562001354800,8.114354736328124,-0.6094144582748413,1.3314571380615234,0.007712173741310835
1761131562011355000,8.12435498046875,-0.5269476175308228,1.3742177486419678,0.11217013001441956
1761131562021354800,8.134354736328126,-0.4292092025279999,1.3571134805679321,0.19952386617660522
1761131562031355000,8.14435498046875,-0.3363576829433441,1.3015247583389282,0.2758820056915283
1761131562041354800,8.154354736328125,-0.26977336406707764,1.2221122980117798,0.34429892897605896
1761131562051355000,8.16435498046875,-0.2312888503074646,1.1414780616760254,0.4035528600215912
1761131562061354000,8.17435400390625,-0.22518019378185272,1.0840567350387573,0.4481460154056549
1761131562071354000,8.18435400390625,-0.2514474093914032,1.0400744676589966,0.46647197008132935
1761131562081354000,8.19435400390625,-0.2978731691837311,0.9850965738296509,0.45058947801589966
1761131562091353900,8.204353759765626,-0.33513593673706055,0.919123113155365,0.4121049642562866
1761131562101354000,8.21435400390625,-0.34063372015953064,0.8513170480728149,0.35957056283950806
1761131562111353900,8.224353759765625,-0.3076470196247101,0.7725154757499695,0.301538348197937
1761131562121354000,8.23435400390625,-0.2361757755279541,0.6857725977897644,0.2526691257953644
1761131562131353900,8.244353759765625,-0.08590292185544968,0.5727625489234924,0.20441077649593353
1761131562141354000,8.25435400390625,0.0069485921412706375,0.5067890882492065,0.18975001573562622
1761131562151354000,8.26435400390625,0.08147415518760681,0.4530329406261444,0.18852828443050385
1761131562161355000,8.27435498046875,0.13095423579216003,0.3980550765991211,0.19402606785297394
1761131562171355000,8.28435498046875,0.1676061451435089,0.28443413972854614,0.20990857481956482
1761131562181356300,8.294356201171874,0.20059287548065186,0.130496084690094,0.2514474093914032
1761131562191357000,8.30435693359375,0.2335795909166336,0.0022143865935504436,0.3320816159248352
1761131562201356800,8.314356689453126,0.25129470229148865,-0.08880453556776047,0.4395939111709595
1761131562211357000,8.32435693359375,0.23296873271465302,-0.13156510889530182,0.5501605272293091
1761131562221356800,8.334356689453125,0.18165604770183563,-0.11690433323383331,0.6387359499931335
1761131562231357000,8.34435693359375,0.1126282811164856,-0.06314819306135178,0.6882160305976868
1761131562241356800,8.354356689453125,0.045433104038238525,-0.05642867833375931,0.6955464482307434
1761131562251357000,8.36435693359375,-0.005268712528049946,-0.1126282811164856,0.6753878593444824
1761131562261356000,8.37435595703125,-0.04069889709353447,-0.20975585281848907,0.6277403831481934
1761131562271356200,8.384356201171874,-0.059635721147060394,-0.31787899136543274,0.5678756237030029
1761131562281356000,8.39435595703125,-0.07612907886505127,-0.4113413989543915,0.5073999166488647
1761131562291356000,8.40435595703125,-0.10178542137145996,-0.45837801694869995,0.44997861981391907
1761131562301356000,8.41435595703125,-0.14698944985866547,-0.43821945786476135,0.39622247219085693
1761131562321356500,8.4343564453125,-0.25938865542411804,-0.26351198554039,0.3284164369106293
1761131562331356200,8.444356201171875,-0.2960405647754669,-0.14439326524734497,0.32047519087791443
1761131562341356000,8.45435595703125,-0.30886873602867126,-0.0417679101228714,0.3278055489063263
1761131562351356000,8.46435595703125,-0.30337095260620117,0.016264287754893303,0.3412446081638336
1761131562361356800,8.474356689453124,-0.2777146100997925,0.011377365328371525,0.35407277941703796
1761131562371357000,8.48435693359375,-0.2569451928138733,-0.045433104038238525,0.3589596748352051
1761131562381356800,8.494356689453125,-0.2526691257953644,-0.1682170182466507,0.3516293168067932
1761131562391357000,8.50435693359375,-0.2618321180343628,-0.29649871587753296,0.3363576829433441
1761131562401355800,8.514355712890625,-0.28382325172424316,-0.38751763105392456,0.3125339448451996
1761131562411356000,8.52435595703125,-0.30520355701446533,-0.41195225715637207,0.28504499793052673
1761131562421355800,8.534355712890624,-0.3125339448451996,-0.32276591658592224,0.2709950804710388
1761131562431356000,8.54435595703125,-0.30398181080818176,-0.13584116101264954,0.2703842222690582
1761131562441355800,8.554355712890626,-0.28382325172424316,0.09323330968618393,0.27404943108558655
1761131562451355600,8.564355712890626,-0.24533875286579132,0.282601535320282,0.2673299014568329
1761131562461354800,8.574354736328125,-0.20013472437858582,0.3766747713088989,0.24839307367801666
1761131562471355000,8.58435498046875,-0.1451568603515625,0.3528510332107544,0.20990857481956482
1761131562481353500,8.594353515625,-0.08407033234834671,0.2557234764099121,0.1702023297548294
1761131562491352800,8.604352783203124,-0.018707748502492905,0.15187637507915497,0.15370896458625793
1761131562501353000,8.61435302734375,0.04421137273311615,0.1097266674041748,0.17814357578754425
1761131562511352800,8.624352783203125,0.08452847599983215,0.15126550197601318,0.24045182764530182
1761131562521353000,8.63435302734375,0.08330674469470978,0.25938865542411804,0.321086049079895
1761131562531352300,8.644352294921875,0.04421137273311615,0.3778965175151825,0.3925572633743286
1761131562541352400,8.6543525390625,-0.01992947794497013,0.4530329406261444,0.4292092025279999
1761131562551352300,8.664352294921875,-0.0895681157708168,0.4371504485607147,0.41515928506851196
1761131562561353200,8.674353271484375,-0.14149166643619537,0.3161991238594055,0.36079227924346924
1761131562571353300,8.684353271484374,-0.1555415689945221,0.10545061528682709,0.28932106494903564
1761131562581353200,8.694353271484376,-0.14271339774131775,-0.1126282811164856,0.24289529025554657
1761131562591353300,8.704353271484376,-0.15248723328113556,-0.3410918712615967,0.263053834438324
1761131562601353200,8.714353271484375,-0.20257818698883057,-0.4614323377609253,0.3369685411453247
1761131562611352800,8.724352783203125,-0.27527114748954773,-0.5475643277168274,0.4524220824241638
1761131562621352700,8.734352783203125,-0.35407277941703796,-0.5738315582275391,0.5849798321723938
1761131562631353300,8.744353271484375,-0.4340961277484894,-0.5396230816841125,0.7181484699249268
1761131562641353200,8.754353271484375,-0.5306128263473511,-0.4571562707424164,0.8305476307868958
1761131562651353000,8.76435302734375,-0.6460663676261902,-0.3362049460411072,0.909349262714386
1761131562661352200,8.774352294921876,-0.7749589085578918,-0.19020816683769226,0.9508880972862244
1761131562671352000,8.78435205078125,-0.9111818671226501,-0.06864598393440247,0.9508880972862244
1761131562681351700,8.7943515625,-1.0272462368011475,0.02603813074529171,0.9264535307884216
1761131562691351800,8.804351806640625,-1.0993283987045288,0.08834638446569443,0.9075166583061218
1761131562701352700,8.814352783203125,-1.1176543235778809,0.13721559941768646,0.9172905087471008
1761131562711352600,8.8243525390625,-1.0865001678466797,0.1915826052427292,0.966770589351654
1761131562721352700,8.834352783203125,-1.0309114456176758,0.2563343346118927,1.0553460121154785
1761131562731352600,8.8443525390625,-0.9765444397926331,0.2813797891139984,1.1420888900756836
1761131562741352700,8.854352783203124,-0.9325621724128723,0.25328001379966736,1.2166144847869873
1761131562751352800,8.864352783203126,-0.8983536958694458,0.1964695304632187,1.2557098865509033
1761131562761353700,8.874353759765626,-0.8720865249633789,0.11583532392978668,1.2557098865509033
1761131562771353600,8.884353515625,-0.8519279360771179,0.02848159149289131,1.2123384475708008
1761131562781353700,8.894353759765625,-0.8323802351951599,-0.05826127156615257,1.1384238004684448
1761131562791353600,8.904353515625,-0.8122217059135437,-0.17066048085689545,1.054124355316162
1761131562801354200,8.914354248046875,-0.7951174974441528,-0.32643112540245056,0.9704357981681824
1761131562811354400,8.924354248046875,-0.785954475402832,-0.48892128467559814,0.8910233378410339
1761131562821354200,8.934354248046875,-0.7938957214355469,-0.6123160719871521,0.80550217628479
1761131562831355000,8.94435498046875,-0.825660765171051,-0.6147595047950745,0.7438048124313354
1761131562841354500,8.9543544921875,-0.8800277709960938,-0.6110942959785461,0.6521750092506409
1761131562851354600,8.964354736328126,-0.9472229480743408,-0.6508005857467651,0.521449863910675
1761131562861353700,8.974353759765625,-1.0028116703033447,-0.7320456504821777,0.3687335252761841
1761131562871353600,8.984353515625,-1.024191975593567,-0.79129958152771,0.21235203742980957
1761131562881353700,8.994353759765625,-1.024802803993225,-0.8132907152175903,0.0694095641374588
1761131562891353600,9.004353515625,-1.0254136323928833,-0.7845800518989563,-0.057039543986320496
1761131562901353700,9.014353759765624,-1.0449613332748413,-0.7167739868164062,-0.15416711568832397
1761131562911353600,9.024353515625,-1.071839451789856,-0.5866597294807434,-0.2189188301563263
1761131562921353700,9.034353759765626,-1.1060478687286377,-0.39729148149490356,-0.2702315151691437
1761131562931353600,9.044353515625,-1.1353694200515747,-0.21036672592163086,-0.32276591658592224
1761131562941353700,9.054353759765625,-1.1500301361083984,-0.12118039280176163,-0.3911828398704529
1761131562951354000,9.06435400390625,-1.1237629652023315,-0.13400855660438538,-0.46937358379364014
1761131562961354800,9.074354736328125,-1.0498483180999756,-0.24029912054538727,-0.5463426113128662
1761131562971355000,9.08435498046875,-0.9325621724128723,-0.40706533193588257,-0.6074291467666626
1761131562981355300,9.094355224609375,-0.7853436470031738,-0.5823836326599121,-0.6349180936813354
1761131562991355100,9.104355224609375,-0.6259077787399292,-0.7363216876983643,-0.6263659596443176
1761131563001355300,9.114355224609374,-0.46219590306282043,-0.8065711855888367,-0.5781075954437256
1761131563011355400,9.12435546875,-0.28382325172424316,-0.7405977249145508,-0.4809800088405609
1761131563021355000,9.13435498046875,-0.09567677229642868,-0.5402339696884155,-0.3392592966556549
1761131563031355000,9.14435498046875,0.08025242388248444,-0.2738966941833496,-0.1834886521100998
1761131563041355000,9.15435498046875,0.21525363624095917,-0.028939740732312202,-0.02955060638487339
1761131563051355000,9.16435498046875,0.2983313202857971,0.12316570430994034,0.09750936180353165
1761131563061354200,9.174354248046875,0.3850741684436798,0.22395847737789154,0.24350616335868835
1761131563071354400,9.184354248046875,0.43394339084625244,0.17142406105995178,0.3064252734184265
1761131563081354200,9.194354248046874,0.47364965081214905,0.05535966157913208,0.35529449582099915
1761131563091354000,9.20435400390625,0.515188455581665,-0.031383201479911804,0.41088324785232544
1761131563101353500,9.214353515625,0.5390121936798096,-0.08575020730495453,0.46647197008132935
1761131563111353600,9.224353515625,0.5390121936798096,-0.122402124106884,0.5012912750244141
1761131563121353500,9.234353515625,0.5078580975532532,-0.14500413835048676,0.49579349160194397
1761131563131353600,9.244353515625,0.4504367709159851,-0.15416711568832397,0.4383721649646759
1761131563141353700,9.254353759765625,0.3801872432231903,-0.1529453843832016,0.330859899520874
1761131563151353900,9.264353759765624,0.30566170811653137,-0.16638441383838654,0.17692184448242188
1761131563161354500,9.2743544921875,0.24152085185050964,-0.19081902503967285,-0.0020616701804101467
1761131563171354600,9.284354736328124,0.19631682336330414,-0.22197316586971283,-0.19142989814281464
1761131563181354500,9.2943544921875,0.1786017268896103,-0.25190556049346924,-0.3710242807865143
1761131563191354600,9.304354736328126,0.19448421895503998,-0.2879466116428375,-0.5133558511734009
1761131563201354500,9.3143544921875,0.2482403665781021,-0.30138564109802246,-0.5946009755134583
1761131563211354600,9.324354736328125,0.325209379196167,-0.23602305352687836,-0.6129269003868103
1761131563221354500,9.3343544921875,0.40828704833984375,-0.08819366991519928,-0.5744423866271973
1761131563231354600,9.344354736328125,0.457767128944397,0.08590292185544968,-0.5017494559288025
1761131563241354500,9.3543544921875,0.47303876280784607,0.24778221547603607,-0.4101196527481079
1761131563251354600,9.364354736328124,0.46876272559165955,0.39561161398887634,-0.30749428272247314
1761131563261353700,9.374353759765626,0.4614323377609253,0.5122868418693542,-0.19692768156528473
1761131563271353900,9.384353759765625,0.4412737786769867,0.5678756237030029,-0.08513934165239334
1761131563281353700,9.394353759765625,0.4015675485134125,0.5642104148864746,0.021762074902653694
1761131563291353900,9.404353759765625,0.3136029541492462,0.4884631335735321,0.16836974024772644
1761131563301353700,9.414353759765625,0.2531272768974304,0.4285983145236969,0.2557234764099121
1761131563311353600,9.424353515625,0.2085341215133667,0.3766747713088989,0.33391422033309937
1761131563321354000,9.43435400390625,0.18104518949985504,0.3271946907043457,0.39500072598457336
1761131563331354000,9.44435400390625,0.1633300930261612,0.29420796036720276,0.43043091893196106
1761131563341354000,9.45435400390625,0.1480584591627121,0.27954721450805664,0.4340961277484894
1761131563351354000,9.46435400390625,0.132786825299263,0.2661081850528717,0.4084397852420807
1761131563361354800,9.474354736328126,0.13034337759017944,0.2667190432548523,0.36140313744544983
1761131563371354600,9.484354736328125,0.1480584591627121,0.29970577359199524,0.30459266901016235
1761131563381354800,9.494354736328125,0.18959729373455048,0.3638466000556946,0.2410627007484436
1761131563391354600,9.504354736328125,0.24762949347496033,0.4487568736076355,0.16714800894260406
1761131563401354800,9.514354736328125,0.33315062522888184,0.5446627140045166,0.09934195876121521
1761131563411354600,9.524354736328124,0.4602105915546417,0.6417902708053589,0.04619668424129486
1761131563421354500,9.5343544921875,0.5952118039131165,0.7401396036148071,0.007712173741310835
1761131563431354400,9.544354248046876,0.7485389709472656,0.8012261390686035,-0.030772335827350616
1761131563441354500,9.5543544921875,0.9214138388633728,0.8647561073303223,-0.08758280426263809
1761131563451354400,9.564354248046875,1.1401035785675049,0.9215666055679321,-0.1370628923177719
1761131563461353700,9.574353759765625,1.3813953399658203,0.9240100383758545,-0.1627192348241806
1761131563471353600,9.584353515625,1.6159676313400269,0.9136253595352173,-0.15661057829856873
1761131563481353700,9.594353759765625,1.8028924465179443,0.928896963596344,-0.1474476009607315
1761131563491353600,9.604353515625,1.9440022706985474,0.9551641941070557,-0.14683672785758972
1761131563501353700,9.614353759765624,2.034410238265991,0.9631054401397705,-0.16394096612930298
1761131563511353600,9.624353515625,2.0851120948791504,0.9631054401397705,-0.1938733607530594
1761131563521353700,9.634353759765625,2.1272618770599365,0.9728792905807495,-0.2500729560852051
1761131563531353600,9.644353515625,2.131537914276123,0.96799236536026,-0.31299206614494324
1761131563541353700,9.654353759765625,2.1376466751098633,0.9838748574256897,-0.3893502354621887
1761131563551353600,9.664353515625,2.156583309173584,0.9704357981681824,-0.48953214287757874
1761131563561354500,9.6743544921875,2.195067882537842,0.9179013967514038,-0.6312528848648071
1761131563571354600,9.684354736328125,2.273258686065674,0.8830820918083191,-0.8071820735931396
1761131563581354500,9.6943544921875,2.4113142490386963,0.8952993750572205,-0.9873872995376587
1761131563591354600,9.704354736328124,2.5964064598083496,0.9466120600700378,-1.1541534662246704
1761131563601354500,9.7143544921875,2.7918832302093506,1.0022008419036865,-1.3001502752304077
1761131563611354600,9.724354736328126,2.974531888961792,1.0199159383773804,-1.4003322124481201
1761131563621353700,9.734353759765625,3.117474317550659,1.022970199584961,-1.4479796886444092
1761131563631353600,9.744353515625,3.203606367111206,0.9912052154541016,-1.4601969718933105
1761131563641353700,9.754353759765625,3.2207107543945312,0.8934667706489563,-1.4730252027511597
1761131563651353600,9.764353515625,3.175506591796875,0.748080849647522,-1.49196195602417
1761131563661353700,9.774353759765624,3.0930397510528564,0.5501605272293091,-1.5023467540740967
1761131563671353600,9.784353515625,3.013627290725708,0.34368807077407837,-1.475468635559082
1761131563681353700,9.794353759765626,2.957427740097046,0.20868684351444244,-1.4003322124481201
1761131563691353600,9.804353515625,2.918943166732788,0.15737415850162506,-1.2836569547653198
1761131563701353700,9.814353759765625,2.868241310119629,0.21357376873493195,-1.1456013917922974
1761131563711353600,9.824353515625,2.778444290161133,0.38522690534591675,-1.0148762464523315
1761131563721354000,9.83435400390625,2.6544384956359863,0.6405685544013977,-0.9256899356842041
1761131563731353900,9.844353759765625,2.525546073913574,0.919734001159668,-0.8878162503242493
1761131563741354000,9.85435400390625,2.410092353820801,1.1677452325820923,-0.8939249515533447
1761131563751353900,9.864353759765624,2.265928268432617,1.3986523151397705,-0.9831112623214722
1761131563761354800,9.874354736328126,2.173076868057251,1.4621822834014893,-1.0869582891464233
1761131563771355000,9.88435498046875,2.075338363647461,1.4719561338424683,-1.2195161581039429
1761131563781354800,9.894354736328125,1.980654239654541,1.7773888111114502,-1.3868931531906128
1761131563791355000,9.90435498046875,1.7839555740356445,2.162844657897949,-1.378951907157898
1761131563801354800,9.914354736328125,1.549383282661438,3.0449342727661133,-1.2262356281280518
1761131563811355000,9.92435498046875,1.123610258102417,2.1292471885681152,-1.0722975730895996
1761131563821354800,9.934354736328125,0.7155522704124451,1.4957798719406128,-0.8035168647766113
1761131563831355000,9.94435498046875,0.4363868534564972,1.137812852859497,-0.5701663494110107
1761131563841354800,9.954354736328124,0.30077478289604187,0.45547640323638916,-0.3942371606826782
1761131563851355000,9.96435498046875,0.35819610953330994,-0.08086328953504562,-0.2482403665781021
1761131563861354800,9.974354736328126,0.5145776271820068,-0.5011385679244995,-0.18532124161720276
1761131563871354600,9.984354736328125,0.7460955381393433,-0.8707120418548584,-0.22197316586971283
1761131563881354800,9.994354736328125,0.9849438667297363,-1.0576368570327759,-0.36369389295578003
1761131563891354600,10.004354736328125,1.198746681213379,-1.0240392684936523,-0.5921574831008911
1761131563901354800,10.014354736328125,1.3557389974594116,-0.8181776404380798,-0.8658251166343689
1761131563911354600,10.024354736328124,1.4223233461380005,-0.5665011405944824,-1.1523209810256958
1761131563921355500,10.03435546875,1.4149929285049438,-0.3753003478050232,-1.4027756452560425
1761131563931355600,10.044355712890624,1.370399832725525,-0.12667818367481232,-1.6043611764907837
1761131563941355500,10.05435546875,1.268996238708496,-0.10346530377864838,-1.769905686378479
1761131563951355600,10.064355712890626,1.13216233253479,-0.05948300287127495,-1.8994091749191284
1761131563961355500,10.07435546875,1.028926134109497,0.09873109310865402,-1.9568305015563965
1761131563971355600,10.084355712890625,0.991052508354187,0.3375793993473053,-1.9519435167312622
1761131563981355500,10.09435546875,1.0839040279388428,0.24045182764530182,-1.8169423341751099
1761131563991355600,10.104355712890625,1.2653310298919678,0.18486309051513672,-1.598252534866333
1761131564001355500,10.11435546875,1.4553101062774658,-0.03810271993279457,-1.2720504999160767
1761131564011355600,10.124355712890624,1.5273921489715576,-0.10835222154855728,-0.9641744494438171
1761131564021354800,10.134354736328126,1.5023467540740967,-0.09857837855815887,-0.7088327407836914
1761131564031354600,10.144354736328125,1.4400384426116943,-0.09308059513568878,-0.49930599331855774
1761131564041354800,10.154354736328125,1.3600151538848877,-0.14011721312999725,-0.34781140089035034
1761131564051354600,10.164354736328125,1.2726613283157349,-0.2488512247800827,-0.3300963044166565
1761131564061353700,10.174353759765625,1.2323442697525024,-0.35269832611083984,-0.4510476291179657
1761131564071353900,10.184353759765624,1.39727783203125,-0.45898887515068054,-0.6153703927993774
1761131564081353700,10.194353759765624,1.5628223419189453,-0.609872579574585,-0.801073431968689
1761131564091353900,10.204353759765626,1.6972126960754395,-0.7680866718292236,-0.9580658078193665
1761131564101353700,10.214353759765626,1.7662404775619507,-1.1834750175476074,-1.0539716482162476
1761131564111353900,10.224353759765625,1.7528014183044434,-1.7747925519943237,-0.9855546951293945
1761131564121353700,10.234353759765625,1.7051539421081543,-1.848096489906311,-0.6214790344238281
1761131564131353900,10.244353759765625,1.6404023170471191,-1.030147910118103,0.024816401302814484
1761131564141353700,10.254353759765625,1.496238112449646,-0.6227007508277893,0.6417902708053589
1761131564151353900,10.264353759765624,1.3826171159744263,-0.6624069809913635,1.1481975317001343
1761131564161353700,10.274353759765624,1.3575716018676758,-0.609872579574585,1.6057356595993042
1761131564171353900,10.284353759765626,1.4272103309631348,-0.7748062014579773,1.9869155883789062
1761131564181353700,10.294353759765626,1.6208546161651611,-1.2042444944381714,2.2697460651397705
1761131564191353900,10.304353759765625,1.8590919971466064,-0.9825003743171692,2.3955843448638916
1761131564201353700,10.314353759765625,1.845042109489441,-0.4260021448135376,2.3668737411499023
1761131564211353900,10.324353759765625,1.6623934507369995,0.4139375686645508,2.156736135482788
1761131564221354000,10.33435400390625,1.5848134756088257,0.8482627272605896,1.945987582206726
1761131564231353900,10.344353759765625,1.4809664487838745,0.9612728357315063,1.7163022756576538
1761131564241354000,10.35435400390625,1.3032046556472778,0.7169266939163208,1.5141059160232544
1761131564251353900,10.364353759765624,1.0686323642730713,0.4786892831325531,1.3595569133758545
1761131564261353200,10.374353271484376,0.857883870601654,0.37545305490493774,1.2544881105422974
1761131564271353000,10.38435302734375,0.6318637132644653,-0.18165604770183563,1.006476879119873
1761131564281353200,10.394353271484375,0.5744423866271973,-0.0069485921412706375,0.8751408457756042
1761131564291353000,10.40435302734375,0.6611852645874023,0.220904141664505,0.7932848930358887
1761131564301353200,10.414353271484375,0.8743772506713867,0.5336671471595764,0.787176251411438
1761131564311353000,10.42435302734375,1.1486557722091675,0.7059311270713806,0.8568148612976074
1761131564321354000,10.43435400390625,1.4039974212646484,0.795728325843811,0.9863182902336121
1761131564331353900,10.444353759765624,1.553659439086914,0.8989645838737488,1.158582329750061
1761131564341354000,10.45435400390625,1.5945873260498047,0.9209557175636292,1.3351223468780518
1761131564351353900,10.464353759765626,1.5640441179275513,0.8940776586532593,1.4835625886917114
1761131564361354800,10.474354736328126,1.5176182985305786,0.825049877166748,1.5696946382522583
1761131564371355000,10.48435498046875,1.4510340690612793,0.7468591332435608,1.5813010931015015
1761131564381354800,10.494354736328125,1.3374130725860596,0.7224245071411133,1.5318210124969482
1761131564391355000,10.50435498046875,1.1901946067810059,0.7816784381866455,1.4572954177856445
1761131564401354800,10.514354736328125,1.058247685432434,0.8421540856361389,1.3901002407073975
1761131564411355000,10.52435498046875,0.9672287702560425,0.909349262714386,1.3510048389434814
1761131564421354800,10.534354736328124,0.8688794374465942,0.986929178237915,1.3265702724456787
1761131564431355000,10.54435498046875,0.8151233196258545,1.0858893394470215,1.33878755569458
1761131564441354800,10.554354736328126,0.8621599078178406,1.1756864786148071,1.4340825080871582
1761131564451355000,10.56435498046875,0.9776134490966797,1.178130030632019,1.5079972743988037
1761131564461354000,10.57435400390625,1.0588585138320923,1.1353694200515747,1.5208253860473633
1761131564471354000,10.58435400390625,1.0820714235305786,1.1310933828353882,1.4982234239578247
1761131564481354000,10.59435400390625,1.0722975730895996,1.167134404182434,1.4255304336547852
1761131564491354000,10.60435400390625,1.0826822519302368,1.1897363662719727,1.2941943407058716
1761131564501354000,10.61435400390625,1.0722975730895996,1.2648727893829346,1.1054370403289795
1761131564511354000,10.62435400390625,0.9739482998847961,1.4401911497116089,0.825049877166748
1761131564521354000,10.63435400390625,0.8456665873527527,1.585577130317688,0.47258061170578003
1761131564531354000,10.64435400390625,0.7992408275604248,1.7144696712493896,0.230677992105484
1761131564541354000,10.65435400390625,0.7179957628250122,1.7370716333389282,0.1457677185535431
1761131564551354000,10.66435400390625,0.5774967074394226,1.639944076538086,0.17264579236507416
1761131564561354800,10.674354736328125,0.4760931134223938,1.4475215673446655,0.2911536395549774
1761131564571354600,10.684354736328125,0.4406629204750061,1.1567497253417969,0.46586111187934875
1761131564581354800,10.694354736328124,0.4412737786769867,0.8604800701141357,0.6466771960258484
1761131564591355000,10.70435498046875,0.4699844419956207,0.643622875213623,0.7309766411781311
1761131564601354800,10.714354736328126,0.5414556860923767,0.49151745438575745,0.6808856725692749
1761131564611355000,10.72435498046875,0.6153703927993774,0.3467423915863037,0.5098434090614319
1761131564621354800,10.734354736328125,0.79129958152771,0.16775886714458466,0.17936530709266663
1761131564631355000,10.74435498046875,1.1364384889602661,-0.031383201479911804,-0.3245985209941864
1761131564641354800,10.754354736328125,1.6184110641479492,-0.15538884699344635,-0.8371144533157349
1761131564651355000,10.76435498046875,2.053347110748291,-0.0771980956196785,-1.1028409004211426
1761131564661354000,10.77435400390625,2.204230785369873,0.20685423910617828,-0.9666178822517395
1761131564671353900,10.784353759765626,2.055790662765503,0.48235446214675903,-0.5005277395248413
1761131564681354000,10.79435400390625,1.6336827278137207,0.5043455958366394,0.43531784415245056
1761131564691353900,10.804353759765625,1.344132661819458,0.5153411626815796,0.8378780484199524
1761131564701354000,10.81435400390625,1.1865293979644775,0.521449863910675,0.9777661561965942
1761131564711353900,10.824353759765625,1.1578186750411987,0.3736204504966736,1.006476879119873
1761131564721354000,10.83435400390625,1.1352167129516602,0.08407033234834671,0.9423360228538513
1761131564731353900,10.844353759765625,1.1101711988449097,-0.18715384602546692,0.8409323692321777
1761131564741354000,10.85435400390625,1.0338131189346313,-0.3850741684436798,0.7175375819206238
1761131564751353900,10.864353759765624,0.8945357799530029,-0.44249552488327026,0.5690973401069641
1761131564761354800,10.874354736328126,0.7216609120368958,-0.3948480188846588,0.43104177713394165
1761131564771355000,10.88435498046875,0.5536729693412781,-0.26717719435691833,0.36445748805999756
1761131564781354800,10.894354736328125,0.36674821376800537,-0.12545645236968994,0.42615485191345215
1761131564791355000,10.90435498046875,0.15416711568832397,-0.0032834007870405912,0.5929210782051086
1761131564801354800,10.914354736328125,-0.03153591975569725,0.11400272697210312,0.8085564970970154
1761131564811355000,10.92435498046875,-0.1659262776374817,0.20257818698883057,1.0113637447357178
1761131564821354000,10.93435400390625,-0.24900394678115845,0.26366472244262695,1.118265151977539
1761131564831353900,10.944353759765624,-0.2703842222690582,0.3168099820613861,1.0865001678466797
1761131564841354000,10.95435400390625,-0.29542970657348633,0.3381902575492859,0.918512225151062
1761131564851353900,10.964353759765626,-0.30337095260620117,0.3528510332107544,0.6857725977897644
1761131564861353000,10.97435302734375,-0.29848402738571167,0.37056612968444824,0.46158504486083984
1761131564871353000,10.98435302734375,-0.29359710216522217,0.38095083832740784,0.31986430287361145
1761131564881353000,10.99435302734375,-0.2764928936958313,0.3669009506702423,0.2612212598323822
1761131564891353000,11.00435302734375,-0.2410627007484436,0.33452507853507996,0.25450173020362854
1761131564901353000,11.01435302734375,-0.20196732878684998,0.3168099820613861,0.2410627007484436
1761131564911353000,11.02435302734375,-0.12377656996250153,0.3528510332107544,0.18975001573562622
1761131564921353000,11.03435302734375,-0.06757696717977524,0.4231005311012268,0.18791742622852325
1761131564931353000,11.04435302734375,-0.035811975598335266,0.5171737670898438,0.2416735589504242
1761131564941353000,11.05435302734375,-0.023594669997692108,0.595364511013031,0.3161991238594055
1761131564951353000,11.06435302734375,-0.0022143865935504436,0.6326273083686829,0.3687335252761841
1761131564961354000,11.07435400390625,0.036880988627672195,0.6301838755607605,0.3565162420272827
1761131564971353900,11.084353759765625,0.09491318464279175,0.5984188914299011,0.28871017694473267
1761131564981354000,11.09435400390625,0.12973250448703766,0.5287802219390869,0.22029328346252441
1761131564991353900,11.104353759765624,0.12301298975944519,0.42004621028900146,0.17325665056705475
1761131565001354000,11.11435400390625,0.09552405029535294,0.28382325172424316,0.15187637507915497
1761131565011353900,11.124353759765626,0.060093868523836136,0.15431983768939972,0.1396590620279312
1761131565021354000,11.13435400390625,0.028939740732312202,0.053527068346738815,0.11278099566698074
1761131565031353900,11.144353759765625,-0.0034361169673502445,-0.013057244941592216,0.07551821321249008
1761131565041354000,11.15435400390625,-0.0290924571454525,-0.06620252132415771,0.027870727702975273
1761131565051353900,11.164353759765625,-0.027870727702975273,-0.08880453556776047,-0.017333300784230232
1761131565061354000,11.17435400390625,-0.005879578180611134,-0.08513934165239334,-0.030772335827350616
1761131565071353900,11.184353759765624,0.04237877577543259,-0.048487428575754166,0.002825251780450344
1761131565081354000,11.19435400390625,0.08452847599983215,-0.013057244941592216,0.04375322163105011
1761131565091353900,11.204353759765626,0.10041097551584244,-0.019776761531829834,0.05719225853681564
1761131565101354000,11.21435400390625,0.07903069257736206,-0.09002626687288284,0.041920628398656845
1761131565111353900,11.224353759765625,0.027718011289834976,-0.19448421895503998,-0.00022907447419129312
1761131565121354800,11.234354736328125,-0.0290924571454525,-0.28611400723457336,-0.057039543986320496
1761131565131355000,11.24435498046875,-0.10422888398170471,-0.3508657217025757,-0.11568260937929153
1761131565141354800,11.254354736328125,-0.21357376873493195,-0.36796995997428894,-0.16638441383838654
1761131565151355000,11.26435498046875,-0.27343854308128357,-0.031383201479911804,0.20807597041130066
1761131565161355500,11.27435546875,-0.32902729511260986,0.4487568736076355,0.7560220956802368
1761131565171355600,11.284355712890624,-0.29909488558769226,0.7053202986717224,0.9325621724128723
1761131565181355500,11.29435546875,-0.33024901151657104,0.6662248969078064,0.8574257493019104
1761131565191355600,11.304355712890626,-0.4188244938850403,0.3717878460884094,0.6576728224754333
1761131565201355500,11.31435546875,-0.5067890882492065,-0.04237877577543259,0.3620140254497528
1761131565211355600,11.324355712890625,-0.5672647356987,-0.4412737786769867,0.05902485549449921
1761131565221355500,11.33435546875,-0.5935319662094116,-0.7638106346130371,-0.1627192348241806
1761131565231355600,11.344355712890625,-0.5984188914299011,-0.9476810693740845,-0.2836705446243286
