time,seconds_elapsed,z,y,x
1761131705729358800,0.13035888671875,0.022831087931990623,0.04375322163105011,-0.005726861767470837
1761131705759359700,0.16035986328125,0.022831087931990623,0.04375322163105011,-0.005726861767470837
1761131705769360000,0.17035986328125,0.03260493278503418,0.03275764733552933,-0.031383201479911804
1761131705779359700,0.18035986328125,0.0264962799847126,0.03459024429321289,-0.03810271993279457
1761131705789359900,0.19035986328125,0.0264962799847126,0.027870727702975273,-0.042989641427993774
1761131705799359700,0.20035986328125,0.024052819237113,0.027259862050414085,-0.04482223838567734
1761131705809360000,0.21035986328125,0.01794416643679142,0.0290924571454525,-0.05032002553343773
1761131705819360000,0.220360107421875,0.015500705689191818,0.027870727702975273,-0.054596081376075745
1761131705829359900,0.23035986328125,0.016722436994314194,0.024205535650253296,-0.054596081376075745
1761131705839360000,0.240360107421875,0.022220224142074585,0.015042556449770927,-0.04482223838567734
1761131705849357600,0.250357666015625,0.02344195358455181,0.005268712528049946,-0.03199406713247299
1761131705859357700,0.260357666015625,0.018555032089352608,0.0009926559869199991,-0.022831087931990623
1761131705869357600,0.270357666015625,0.012446379289031029,0.0034361169673502445,-0.014278975315392017
1761131705879357700,0.280357666015625,0.006337726954370737,0.006490443367511034,-0.00022907447419129312
1761131705889357600,0.290357666015625,0.00022907447419129312,0.004657847341150045,0.010155634954571724
1761131705899357700,0.300357666015625,-0.00038179077091626823,0.002825251780450344,0.02054034359753132
1761131705909357600,0.310357666015625,-0.0022143865935504436,0.002825251780450344,0.027870727702975273
1761131705919357700,0.320357666015625,-0.005879578180611134,0.005268712528049946,0.024816401302814484
1761131705929357600,0.330357666015625,-0.015653422102332115,0.010155634954571724,0.024816401302814484
1761131705939357700,0.340357666015625,-0.02054034359753132,0.007712173741310835,0.022372938692569733
1761131705949357600,0.350357666015625,-0.024205535650253296,0.008323038928210735,0.02054034359753132
1761131705959357700,0.360357666015625,-0.030925052240490913,0.004657847341150045,0.02054034359753132
1761131705969357800,0.37035791015625,-0.033368512988090515,-0.004505131393671036,0.01992947794497013
1761131705979357700,0.380357666015625,-0.03214678168296814,-0.01061378326267004,0.024816401302814484
1761131705989357800,0.39035791015625,-0.03459024429321289,-0.018555032089352608,0.029703322798013687
1761131705999357700,0.400357666015625,-0.035811975598335266,-0.02038762718439102,0.03153591975569725
1761131706009357800,0.41035791015625,-0.039477165788412094,-0.024663684889674187,0.023594669997692108
1761131706019357700,0.420357666015625,-0.04130976274609566,-0.015500705689191818,0.013820826075971127
1761131706029357800,0.43035791015625,-0.038866300135850906,-0.007559457328170538,0.013209961354732513
1761131706039357700,0.440357666015625,-0.036422841250896454,0.00038179077091626823,0.014431691728532314
1761131706049356800,0.450356689453125,-0.03275764733552933,0.009544769302010536,0.02054034359753132
1761131706059357000,0.46035693359375,-0.030925052240490913,0.011377365328371525,0.021151209250092506
1761131706069356800,0.470356689453125,-0.0339793786406517,0.006490443367511034,0.01687515154480934
1761131706079357000,0.48035693359375,-0.03764457255601883,0.005268712528049946,0.012599095702171326
1761131706089356800,0.490356689453125,-0.033368512988090515,0.005268712528049946,0.007712173741310835
1761131706099357000,0.50035693359375,-0.030314188450574875,0.008323038928210735,-0.00022907447419129312
1761131706109356800,0.510356689453125,-0.02603813074529171,0.009544769302010536,-0.0032834007870405912
1761131706119357000,0.52035693359375,-0.018096882849931717,0.0022143865935504436,-0.005726861767470837
1761131706129356800,0.530356689453125,-0.015653422102332115,-0.0069485921412706375,-0.007559457328170538
1761131706139357000,0.54035693359375,-0.019318614155054092,-0.016722436994314194,-0.015500705689191818
1761131706149357600,0.550357666015625,-0.027259862050414085,-0.0264962799847126,-0.028939740732312202
1761131706159357700,0.560357666015625,-0.033368512988090515,-0.03749185428023338,-0.0417679101228714
1761131706169357800,0.57035791015625,-0.03214678168296814,-0.03199406713247299,-0.04604396969079971
1761131706179357700,0.580357666015625,-0.024816401302814484,-0.016722436994314194,-0.033826664090156555
1761131706189357800,0.59035791015625,-0.024205535650253296,-0.006337726954370737,-0.018555032089352608
1761131706199357700,0.600357666015625,-0.025427265092730522,0.004046982154250145,-0.00022907447419129312
1761131706209357800,0.61035791015625,-0.024816401302814484,0.008933904580771923,0.014431691728532314
1761131706219357700,0.620357666015625,-0.02054034359753132,0.008323038928210735,0.026648996397852898
1761131706229357800,0.63035791015625,-0.01992947794497013,0.007712173741310835,0.03459024429321289
1761131706239357700,0.640357666015625,-0.021762074902653694,0.006490443367511034,0.03214678168296814
1761131706249357000,0.650357177734375,-0.025427265092730522,0.012599095702171326,0.025427265092730522
1761131706259357000,0.66035693359375,-0.02603813074529171,0.016264287754893303,0.008323038928210735
1761131706269356800,0.670356689453125,-0.026648996397852898,0.011377365328371525,0.00038179077091626823
1761131706279357000,0.68035693359375,-0.02298380434513092,-0.002672535367310047,-0.000839939690195024
1761131706289356800,0.690356689453125,-0.015653422102332115,-0.008781188167631626,0.0022143865935504436
1761131706299357000,0.70035693359375,-0.005879578180611134,-0.0020616701804101467,0.010766499675810337
1761131706309356800,0.710356689453125,-0.002825251780450344,0.009544769302010536,0.021151209250092506
1761131706319357000,0.72035693359375,-0.008933904580771923,0.02603813074529171,0.03153591975569725
1761131706329356800,0.730356689453125,-0.015042556449770927,0.035811975598335266,0.044974952936172485
1761131706339357000,0.74035693359375,-0.010766499675810337,0.01687515154480934,0.04864014685153961
1761131706349357800,0.75035791015625,-0.007712173741310835,0.011377365328371525,0.039477165788412094
1761131706359357700,0.760357666015625,-0.009544769302010536,0.006490443367511034,0.026648996397852898
1761131706369357800,0.77035791015625,-0.010155634954571724,0.009544769302010536,0.009544769302010536
1761131706379357700,0.780357666015625,-0.009544769302010536,0.011988230049610138,-0.00022907447419129312
1761131706389357800,0.79035791015625,-0.005879578180611134,0.012599095702171326,-0.00022907447419129312
1761131706399357700,0.800357666015625,0.005115996580570936,0.008933904580771923,0.008933904580771923
1761131706409357800,0.81035791015625,0.01061378326267004,0.013820826075971127,0.009544769302010536
1761131706419357700,0.820357666015625,0.012446379289031029,0.019318614155054092,0.0071013085544109344
1761131706429357800,0.83035791015625,0.00939205288887024,0.021151209250092506,0.004046982154250145
1761131706439358000,0.84035791015625,0.0069485921412706375,0.019318614155054092,0.0034361169673502445
1761131706449357000,0.850357177734375,0.0038942659739404917,0.022372938692569733,0.0071013085544109344
1761131706459357000,0.86035693359375,0.0038942659739404917,0.02298380434513092,0.013209961354732513
1761131706469357000,0.870357177734375,0.01061378326267004,0.025427265092730522,0.016264287754893303
1761131706479357000,0.88035693359375,0.01488984003663063,0.033368512988090515,0.013209961354732513
1761131706489357000,0.890357177734375,0.015500705689191818,0.03275764733552933,0.007712173741310835
1761131706499357000,0.90035693359375,0.01488984003663063,0.027870727702975273,0.0016035212902352214
1761131706509357000,0.910357177734375,0.014278975315392017,0.02603813074529171,0.00038179077091626823
1761131706519357000,0.92035693359375,0.015500705689191818,0.024205535650253296,0.0034361169673502445
1761131706529357000,0.930357177734375,0.016722436994314194,0.021762074902653694,0.007712173741310835
1761131706539357000,0.94035693359375,0.014278975315392017,0.02298380434513092,0.004046982154250145
1761131706549357800,0.95035791015625,0.013057244941592216,0.026648996397852898,-0.007559457328170538
1761131706559357700,0.960357666015625,0.014278975315392017,0.0290924571454525,-0.01794416643679142
1761131706569357800,0.97035791015625,0.02038762718439102,0.03459024429321289,-0.02344195358455181
1761131706579357700,0.980357666015625,0.025274548679590225,0.03703370690345764,-0.021609358489513397
1761131706589357800,0.99035791015625,0.025274548679590225,0.033368512988090515,-0.02344195358455181
1761131706599357700,1.000357666015625,0.024052819237113,0.036422841250896454,-0.024663684889674187
1761131706619357700,1.020357666015625,0.028939740732312202,0.0443640872836113,-0.033826664090156555
1761131706629357800,1.03035791015625,0.030161472037434578,0.04253149405121803,-0.03260493278503418
1761131706639357700,1.040357666015625,0.022831087931990623,0.038866300135850906,-0.030161472037434578
1761131706649356800,1.050356689453125,0.021609358489513397,0.03275764733552933,-0.03749185428023338
1761131706659356400,1.0603564453125,0.025885414332151413,0.03459024429321289,-0.036880988627672195
1761131706669356300,1.070356201171875,0.024052819237113,0.047418415546417236,-0.0264962799847126
1761131706679356400,1.0803564453125,0.03504839166998863,0.035811975598335266,-0.027718011289834976
1761131706689356500,1.0903564453125,0.10835222154855728,0.009544769302010536,-0.019165897741913795
1761131706699356400,1.1003564453125,0.06498079001903534,0.09262244403362274,-0.0771980956196785
1761131706709356500,1.1103564453125,0.05642867833375931,0.04069889709353447,-0.07170030474662781
1761131706719356400,1.1203564453125,0.04726569727063179,0.04375322163105011,-0.06253732740879059
1761131706729356300,1.130356201171875,0.039935316890478134,0.0290924571454525,-0.08269587904214859
1761131706739356400,1.1403564453125,0.04909829422831535,0.025427265092730522,-0.08513934165239334
1761131706749357300,1.150357421875,0.0466548316180706,0.010766499675810337,-0.07841982692480087
1761131706759357200,1.160357177734375,0.045433104038238525,0.008323038928210735,-0.07047858089208603
1761131706769357300,1.170357421875,0.0417679101228714,0.01992947794497013,-0.07414376735687256
1761131706779357200,1.180357177734375,-0.024816401302814484,0.10789407044649124,-0.019776761531829834
1761131706789357300,1.190357421875,-0.08223773539066315,0.09934195876121521,0.018096882849931717
1761131706799357200,1.200357177734375,-0.05535966157913208,0.06574437022209167,-0.0069485921412706375
1761131706809357300,1.210357421875,0.013057244941592216,0.024816401302814484,-0.05093089118599892
1761131706819357200,1.220357177734375,0.06742425262928009,0.018707748502492905,-0.07658722996711731
1761131706829357300,1.230357421875,0.08513934165239334,0.026648996397852898,-0.07903069257736206
1761131706839357200,1.240357177734375,0.07353290170431137,0.021151209250092506,-0.08330674469470978
1761131706849356300,1.250356201171875,0.060093868523836136,0.019318614155054092,-0.09857837855815887
1761131706859356400,1.2603564453125,0.04970915988087654,0.011988230049610138,-0.10896308720111847
1761131706869356300,1.270356201171875,0.03749185428023338,0.0009926559869199991,-0.11629346758127213
1761131706879356400,1.2803564453125,0.033826664090156555,-0.0020616701804101467,-0.11140654981136322
1761131706889356300,1.290356201171875,0.03443752974271774,-0.0020616701804101467,-0.10835222154855728
1761131706899356400,1.3003564453125,0.03810271993279457,0.0022143865935504436,-0.1077413558959961
1761131706909356300,1.310356201171875,0.03749185428023338,0.013820826075971127,-0.1071304902434349
1761131706919356400,1.3203564453125,0.033826664090156555,0.019318614155054092,-0.10590875893831253
1761131706929356500,1.3303564453125,0.03199406713247299,0.015042556449770927,-0.10163270682096481
1761131706939356400,1.3403564453125,0.03199406713247299,0.004657847341150045,-0.09674578160047531
1761131706949357300,1.350357421875,0.033826664090156555,0.0009926559869199991,-0.08575020730495453
1761131706959357700,1.360357666015625,0.030161472037434578,0.0009926559869199991,-0.07658722996711731
1761131706969357800,1.37035791015625,0.021609358489513397,0.002825251780450344,-0.06864598393440247
1761131706979357700,1.380357666015625,0.011835514567792416,0.0071013085544109344,-0.06436992436647415
1761131706989357600,1.390357666015625,0.0069485921412706375,0.011988230049610138,-0.06375905871391296
1761131706999357700,1.400357666015625,0.0032834007870405912,0.018096882849931717,-0.06314819306135178
1761131707009357600,1.410357666015625,0.000839939690195024,0.01992947794497013,-0.060093868523836136
1761131707019357700,1.420357666015625,-0.005268712528049946,0.018707748502492905,-0.05581781268119812
1761131707029357600,1.430357666015625,-0.012599095702171326,0.013820826075971127,-0.05581781268119812
1761131707039357700,1.440357666015625,-0.018707748502492905,0.008933904580771923,-0.048487428575754166
1761131707049356800,1.450356689453125,-0.01687515154480934,0.0016035212902352214,-0.0417679101228714
1761131707059356700,1.460356689453125,-0.009544769302010536,0.0022143865935504436,-0.031383201479911804
1761131707069356800,1.470356689453125,-0.010766499675810337,0.002825251780450344,-0.024052819237113
1761131707079356700,1.480356689453125,-0.013820826075971127,0.00038179077091626823,-0.016111571341753006
1761131707089356800,1.490356689453125,-0.01748601719737053,-0.000839939690195024,-0.0038942659739404917
1761131707099356700,1.500356689453125,-0.021151209250092506,-0.000839939690195024,0.0071013085544109344
1761131707109356800,1.510356689453125,-0.02054034359753132,-0.0069485921412706375,0.010766499675810337
1761131707119356700,1.520356689453125,-0.024816401302814484,-0.010002918541431427,0.009544769302010536
1761131707129356800,1.530356689453125,-0.029703322798013687,-0.01366810966283083,0.009544769302010536
1761131707139356700,1.540356689453125,-0.03275764733552933,-0.021609358489513397,0.010766499675810337
1761131707149357600,1.550357666015625,-0.03520110994577408,-0.0264962799847126,0.013820826075971127
1761131707159357700,1.560357666015625,-0.0339793786406517,-0.027718011289834976,0.01748601719737053
1761131707169357600,1.570357666015625,-0.0339793786406517,-0.0264962799847126,0.02298380434513092
1761131707179357700,1.580357666015625,-0.03275764733552933,-0.019165897741913795,0.024816401302814484
1761131707189357600,1.590357666015625,-0.03275764733552933,-0.01366810966283083,0.0290924571454525
1761131707202761000,1.603760986328125,-0.03459024429321289,-0.01061378326267004,0.04253149405121803
1761131707212761000,1.613760986328125,-0.03275764733552933,-0.011224648915231228,0.04986187443137169
1761131707222761000,1.623760986328125,-0.03825543448328972,-0.007559457328170538,0.0492510087788105
1761131707232760800,1.6337607421875,-0.03459024429321289,-0.0038942659739404917,0.044974952936172485
1761131707242761000,1.643760986328125,-0.029703322798013687,-0.0020616701804101467,0.03825543448328972
1761131707252760000,1.653760009765625,-0.03153591975569725,0.0034361169673502445,0.0339793786406517
1761131707262760200,1.66376025390625,-0.035811975598335266,0.0009926559869199991,0.03520110994577408
1761131707272760000,1.673760009765625,-0.036422841250896454,-0.005115996580570936,0.038866300135850906
1761131707282760000,1.683760009765625,-0.03275764733552933,-0.004505131393671036,0.04008803144097328
1761131707292760000,1.693760009765625,-0.0290924571454525,-0.004505131393671036,0.035811975598335266
1761131707302760000,1.703760009765625,-0.02603813074529171,-0.007559457328170538,0.029703322798013687
1761131707312760000,1.713760009765625,-0.023594669997692108,-0.01794416643679142,0.021762074902653694
1761131707322760000,1.723760009765625,-0.02298380434513092,-0.0264962799847126,0.012599095702171326
1761131707332760000,1.733760009765625,-0.024205535650253296,-0.022220224142074585,0.005879578180611134
1761131707342760000,1.743760009765625,-0.02603813074529171,-0.013057244941592216,0.008323038928210735
1761131707352760800,1.7537607421875,-0.02848159149289131,-0.00022907447419129312,0.01992947794497013
1761131707362761000,1.763760986328125,-0.03153591975569725,0.008933904580771923,0.03459024429321289
1761131707372760800,1.7737607421875,-0.0339793786406517,0.01748601719737053,0.05169447138905525
1761131707382761000,1.783760986328125,-0.030925052240490913,0.029703322798013687,0.059635721147060394
1761131707392760800,1.7937607421875,-0.02603813074529171,0.0290924571454525,0.05719225853681564
1761131707402761000,1.803760986328125,-0.02054034359753132,0.022372938692569733,0.04558581858873367
1761131707412760800,1.8137607421875,-0.016264287754893303,0.011377365328371525,0.027870727702975273
1761131707422761000,1.823760986328125,-0.012599095702171326,0.0022143865935504436,0.023594669997692108
1761131707432760800,1.8337607421875,-0.011377365328371525,0.0016035212902352214,0.026648996397852898
1761131707442761000,1.843760986328125,-0.010155634954571724,-0.005115996580570936,0.03520110994577408
1761131707452760000,1.853760009765625,-0.011377365328371525,-0.010002918541431427,0.04069889709353447
1761131707462760200,1.86376025390625,-0.014431691728532314,-0.0020616701804101467,0.04680754989385605
1761131707472760000,1.873760009765625,-0.015042556449770927,0.015042556449770927,0.05169447138905525
1761131707482760200,1.88376025390625,-0.012599095702171326,0.027259862050414085,0.053527068346738815
1761131707492760000,1.893760009765625,-0.013209961354732513,0.029703322798013687,0.05841398984193802
1761131707502760200,1.90376025390625,-0.008323038928210735,0.023594669997692108,0.0645226389169693
1761131707512760000,1.913760009765625,-0.00038179077091626823,0.013209961354732513,0.06269004940986633
1761131707522760000,1.923760009765625,0.0020616701804101467,0.010155634954571724,0.05291620269417763
1761131707532760000,1.933760009765625,-0.0009926559869199991,0.011377365328371525,0.03703370690345764
1761131707542760000,1.943760009765625,-0.0016035212902352214,0.007712173741310835,0.019318614155054092
1761131707552760800,1.9537607421875,-0.0022143865935504436,0.0022143865935504436,0.004657847341150045
1761131707562761000,1.963760986328125,0.00022907447419129312,-0.002672535367310047,0.0016035212902352214
1761131707572760800,1.9737607421875,0.0032834007870405912,-0.0014508049935102463,0.012599095702171326
1761131707582761000,1.983760986328125,0.004505131393671036,0.008933904580771923,0.029703322798013687
1761131707592760800,1.9937607421875,0.0014508049935102463,0.023594669997692108,0.04130976274609566
1761131707602761000,2.003760986328125,-0.0009926559869199991,0.03459024429321289,0.05535966157913208
1761131707612760800,2.0137607421875,0.00022907447419129312,0.04008803144097328,0.06757696717977524
1761131707622761000,2.023760986328125,0.008170322515070438,0.03703370690345764,0.07124216109514236
1761131707632760800,2.0337607421875,0.008781188167631626,0.03214678168296814,0.0645226389169693
1761131707642761000,2.043760986328125,0.01061378326267004,0.018707748502492905,0.048029281198978424
1761131707652760000,2.053760009765625,0.013057244941592216,0.0022143865935504436,0.041920628398656845
1761131707662760200,2.06376025390625,0.01366810966283083,-0.005726861767470837,0.04253149405121803
1761131707672760000,2.073760009765625,0.016111571341753006,-0.007559457328170538,0.04680754989385605
1761131707682760200,2.08376025390625,0.016722436994314194,-0.00022907447419129312,0.0541379339993
1761131707692760000,2.093760009765625,0.014278975315392017,0.0022143865935504436,0.06146831437945366
1761131707702760200,2.10376025390625,0.005115996580570936,0.00038179077091626823,0.06574437022209167
1761131707712760000,2.113760009765625,-0.004657847341150045,0.00038179077091626823,0.06574437022209167
1761131707722760200,2.12376025390625,-0.0071013085544109344,0.002825251780450344,0.06574437022209167
1761131707732760600,2.133760498046875,-0.004046982154250145,0.002825251780450344,0.06757696717977524
1761131707742760400,2.143760498046875,0.000839939690195024,0.0022143865935504436,0.07063129544258118
1761131707752761300,2.15376123046875,0.0020616701804101467,-0.00022907447419129312,0.06818783283233643
1761131707762761200,2.16376123046875,-0.0009926559869199991,-0.004505131393671036,0.05535966157913208
1761131707772761300,2.17376123046875,-0.002825251780450344,-0.002672535367310047,0.03520110994577408
1761131707782761200,2.18376123046875,-0.0022143865935504436,-0.005726861767470837,0.015042556449770927
1761131707792761300,2.19376123046875,-0.0022143865935504436,-0.008170322515070438,0.008933904580771923
1761131707802761200,2.20376123046875,-0.0022143865935504436,-0.0020616701804101467,0.01748601719737053
1761131707812761300,2.21376123046875,-0.0009926559869199991,0.006490443367511034,0.033368512988090515
1761131707822761200,2.22376123046875,-0.0034361169673502445,0.02054034359753132,0.05047274008393288
1761131707832761300,2.23376123046875,-0.008323038928210735,0.027870727702975273,0.06391177326440811
1761131707842761200,2.24376123046875,-0.01687515154480934,0.03153591975569725,0.06635523587465286
1761131707852760300,2.25376025390625,-0.02298380434513092,0.024816401302814484,0.05780312418937683
1761131707862760400,2.263760498046875,-0.02054034359753132,0.010766499675810337,0.044974952936172485
1761131707872760300,2.27376025390625,-0.015653422102332115,-0.016722436994314194,0.011988230049610138
1761131707882760400,2.283760498046875,-0.012599095702171326,-0.019165897741913795,-0.00939205288887024
1761131707892760300,2.29376025390625,-0.010155634954571724,-0.019776761531829834,-0.0264962799847126
1761131707902760400,2.303760498046875,-0.007712173741310835,-0.018555032089352608,-0.028939740732312202
1761131707912760300,2.31376025390625,-0.011377365328371525,-0.010002918541431427,-0.02099849283695221
1761131707922760400,2.323760498046875,-0.015042556449770927,0.004657847341150045,-0.006337726954370737
1761131707932760300,2.33376025390625,-0.019318614155054092,0.018096882849931717,0.006490443367511034
1761131707942760400,2.343760498046875,-0.024816401302814484,0.027870727702975273,0.018096882849931717
1761131707952761300,2.35376123046875,-0.022372938692569733,0.026648996397852898,0.027259862050414085
1761131707962761200,2.36376123046875,-0.013820826075971127,0.015653422102332115,0.024816401302814484
1761131707972761300,2.37376123046875,-0.008933904580771923,0.008933904580771923,0.011377365328371525
1761131707982761200,2.38376123046875,-0.005879578180611134,0.011377365328371525,-0.008170322515070438
1761131707992761300,2.39376123046875,-0.005268712528049946,0.016264287754893303,-0.024052819237113
1761131708002761200,2.40376123046875,-0.005879578180611134,0.019318614155054092,-0.02955060638487339
1761131708012761300,2.41376123046875,-0.005268712528049946,0.015653422102332115,-0.030161472037434578
1761131708022761200,2.42376123046875,-0.006490443367511034,0.014431691728532314,-0.02710714563727379
1761131708032760800,2.4337607421875,-0.006490443367511034,0.015042556449770927,-0.02099849283695221
1761131708042761000,2.443760986328125,-0.008323038928210735,0.015042556449770927,-0.017333300784230232
1761131708052760000,2.453760009765625,-0.010766499675810337,0.021762074902653694,-0.02038762718439102
1761131708062760000,2.463760009765625,-0.011377365328371525,0.024205535650253296,-0.02344195358455181
1761131708072760000,2.473760009765625,-0.008323038928210735,0.019318614155054092,-0.019165897741913795
1761131708082760000,2.483760009765625,-0.005268712528049946,0.013209961354732513,-0.008170322515070438
1761131708092760000,2.493760009765625,0.00022907447419129312,0.007712173741310835,-0.000839939690195024
1761131708102760000,2.503760009765625,0.000839939690195024,0.009544769302010536,0.00038179077091626823
1761131708112760000,2.513760009765625,-0.002825251780450344,0.013209961354732513,-0.011835514567792416
1761131708122760000,2.523760009765625,-0.005879578180611134,0.015653422102332115,-0.025274548679590225
1761131708132760000,2.533760009765625,-0.008323038928210735,0.021151209250092506,-0.03504839166998863
1761131708142760000,2.543760009765625,-0.011377365328371525,0.019318614155054092,-0.03749185428023338
1761131708152760800,2.5537607421875,-0.010155634954571724,0.01748601719737053,-0.03321579843759537
1761131708162760700,2.5637607421875,-0.015042556449770927,0.016264287754893303,-0.02710714563727379
1761131708172760800,2.5737607421875,-0.01687515154480934,0.018096882849931717,-0.02038762718439102
1761131708182761000,2.583760986328125,-0.015653422102332115,0.018707748502492905,-0.019165897741913795
1761131708192760800,2.5937607421875,-0.007712173741310835,0.02054034359753132,-0.025274548679590225
1761131708202761000,2.603760986328125,0.0014508049935102463,0.022372938692569733,-0.03627012297511101
1761131708212760800,2.6137607421875,0.008170322515070438,0.024205535650253296,-0.04054617881774902
1761131708222761000,2.623760986328125,0.010002918541431427,0.024816401302814484,-0.031383201479911804
1761131708232760800,2.6337607421875,0.012446379289031029,0.025427265092730522,-0.014278975315392017
1761131708242761000,2.643760986328125,0.011835514567792416,0.025427265092730522,0.0022143865935504436
1761131708252760000,2.653760009765625,0.011835514567792416,0.024816401302814484,0.011988230049610138
1761131708262760000,2.663760009765625,0.008781188167631626,0.01992947794497013,0.011988230049610138
1761131708272760000,2.673760009765625,0.005726861767470837,0.01687515154480934,0.004657847341150045
1761131708282760000,2.683760009765625,0.011224648915231228,0.008323038928210735,-0.004505131393671036
1761131708292760000,2.693760009765625,0.016111571341753006,-0.0020616701804101467,-0.0069485921412706375
1761131708302760000,2.703760009765625,0.014278975315392017,-0.008781188167631626,-0.007559457328170538
1761131708312760000,2.713760009765625,0.012446379289031029,-0.06131559982895851,0.01748601719737053
1761131708322760000,2.723760009765625,0.0020616701804101467,-0.04421137273311615,0.06207918003201485
1761131708332760000,2.733760009765625,-0.002825251780450344,-0.04115704447031021,0.05719225853681564
1761131708342760000,2.743760009765625,0.000839939690195024,0.02603813074529171,0.0009926559869199991
1761131708352760800,2.7537607421875,0.0020616701804101467,0.030925052240490913,-0.024052819237113
1761131708362761000,2.763760986328125,-0.004657847341150045,0.01992947794497013,-0.02710714563727379
1761131708372760800,2.7737607421875,-0.0034361169673502445,0.0071013085544109344,-0.027718011289834976
1761131708382761000,2.783760986328125,-0.00038179077091626823,0.007712173741310835,-0.03504839166998863
1761131708392760800,2.7937607421875,0.0020616701804101467,0.015653422102332115,-0.04421137273311615
1761131708402761000,2.803760986328125,-0.004657847341150045,0.011988230049610138,-0.05642867833375931
1761131708412760800,2.8137607421875,-0.018707748502492905,-0.0032834007870405912,-0.07353290170431137
1761131708422761000,2.823760986328125,-0.019318614155054092,-0.01061378326267004,-0.09124799817800522
1761131708432760800,2.8337607421875,-0.010155634954571724,-0.004505131393671036,-0.09857837855815887
1761131708442761000,2.843760986328125,-0.0022143865935504436,-0.0038942659739404917,-0.09002626687288284
1761131708452760000,2.853760009765625,-0.0022143865935504436,-0.015500705689191818,-0.07536549866199493
1761131708462760200,2.86376025390625,-0.007712173741310835,-0.03321579843759537,-0.0668133869767189
1761131708472760000,2.873760009765625,-0.018096882849931717,-0.04360050708055496,-0.06803511828184128
1761131708482760000,2.883760009765625,-0.025427265092730522,-0.04482223838567734,-0.0771980956196785
1761131708492760000,2.893760009765625,-0.026648996397852898,-0.039324451237916946,-0.08819366991519928
1761131708502760000,2.903760009765625,-0.021151209250092506,-0.030772335827350616,-0.09124799817800522
1761131708512760000,2.913760009765625,-0.018707748502492905,-0.019776761531829834,-0.08330674469470978
1761131708522760000,2.923760009765625,-0.018707748502492905,-0.013057244941592216,-0.060704734176397324
1761131708532760000,2.933760009765625,-0.01687515154480934,-0.01061378326267004,-0.03443752974271774
1761131708542760000,2.943760009765625,-0.010766499675810337,-0.00022907447419129312,-0.01488984003663063
1761131708552760800,2.9537607421875,-0.004046982154250145,0.0016035212902352214,-0.006337726954370737
1761131708562761000,2.963760986328125,-0.0009926559869199991,-0.0032834007870405912,0.00038179077091626823
1761131708572760800,2.9737607421875,0.005115996580570936,-0.012446379289031029,0.0034361169673502445
1761131708582761000,2.983760986328125,0.004505131393671036,-0.00939205288887024,-0.00022907447419129312
1761131708592760800,2.9937607421875,-0.00038179077091626823,-0.005115996580570936,0.0034361169673502445
1761131708602761000,3.003760986328125,-0.004657847341150045,-0.01061378326267004,0.010766499675810337
1761131708612760800,3.0137607421875,-0.014431691728532314,-0.018555032089352608,0.019318614155054092
1761131708622761000,3.023760986328125,-0.019318614155054092,-0.024663684889674187,0.027870727702975273
1761131708632760800,3.0337607421875,-0.018096882849931717,-0.025274548679590225,0.026648996397852898
1761131708642761000,3.043760986328125,-0.015042556449770927,-0.019776761531829834,0.023594669997692108
1761131708652760000,3.053760009765625,-0.008323038928210735,-0.008781188167631626,0.018707748502492905
1761131708662760000,3.063760009765625,-0.005879578180611134,0.00038179077091626823,0.014431691728532314
1761131708672760000,3.073760009765625,-0.005268712528049946,-0.00022907447419129312,0.013209961354732513
1761131708682760000,3.083760009765625,-0.005268712528049946,-0.01061378326267004,0.01687515154480934
1761131708692760000,3.093760009765625,-0.0022143865935504436,-0.022220224142074585,0.016264287754893303
1761131708702760000,3.103760009765625,-0.002825251780450344,-0.02710714563727379,0.008933904580771923
1761131708712760000,3.113760009765625,-0.0034361169673502445,-0.03199406713247299,-0.000839939690195024
1761131708722760000,3.123760009765625,-0.012599095702171326,-0.03321579843759537,-0.019165897741913795
1761131708732760000,3.133760009765625,-0.02054034359753132,-0.03443752974271774,-0.025274548679590225
1761131708742760000,3.143760009765625,-0.024205535650253296,-0.03810271993279457,-0.019776761531829834
1761131708752760800,3.1537607421875,-0.02298380434513092,-0.03871358558535576,-0.010002918541431427
1761131708762760700,3.1637607421875,-0.022372938692569733,-0.028328875079751015,-0.000839939690195024
1761131708772760800,3.1737607421875,-0.024205535650253296,-0.018555032089352608,0.007712173741310835
1761131708782760700,3.1837607421875,-0.02603813074529171,-0.01366810966283083,0.007712173741310835
1761131708792760800,3.1937607421875,-0.030314188450574875,-0.011224648915231228,0.004657847341150045
1761131708802760700,3.2037607421875,-0.030314188450574875,-0.017333300784230232,-0.011835514567792416
1761131708812760800,3.2137607421875,-0.0290924571454525,-0.024663684889674187,-0.02710714563727379
1761131708822760700,3.2237607421875,-0.030925052240490913,-0.03321579843759537,-0.045433104038238525
1761131708832760800,3.2337607421875,-0.036422841250896454,-0.04604396969079971,-0.06436992436647415
1761131708842760700,3.2437607421875,-0.04558581858873367,-0.054596081376075745,-0.07903069257736206
1761131708852759800,3.253759765625,-0.05047274008393288,-0.057650405913591385,-0.08819366991519928
1761131708862760000,3.263760009765625,-0.05474879592657089,-0.04970915988087654,-0.10041097551584244
1761131708872759800,3.273759765625,-0.05719225853681564,-0.03504839166998863,-0.11140654981136322
1761131708882760000,3.283760009765625,-0.059635721147060394,-0.024052819237113,-0.11568260937929153
1761131708892759800,3.293759765625,-0.05291620269417763,-0.019165897741913795,-0.10651962459087372
1761131708902760000,3.303760009765625,-0.03825543448328972,-0.019165897741913795,-0.08391761034727097
1761131708912759800,3.313759765625,-0.027870727702975273,-0.022220224142074585,-0.060704734176397324
1761131708922760000,3.323760009765625,-0.018707748502492905,-0.022220224142074585,-0.042989641427993774
1761131708932760000,3.333760009765625,-0.013209961354732513,-0.018555032089352608,-0.03199406713247299
1761131708942760000,3.343760009765625,-0.011988230049610138,-0.014278975315392017,-0.024663684889674187
1761131708952760800,3.3537607421875,-0.006490443367511034,-0.022831087931990623,-0.022220224142074585
1761131708962760700,3.3637607421875,-0.0071013085544109344,-0.025885414332151413,-0.02038762718439102
1761131708972760800,3.3737607421875,-0.006490443367511034,-0.019776761531829834,-0.011835514567792416
1761131708982760700,3.3837607421875,-0.004046982154250145,-0.014278975315392017,0.0009926559869199991
1761131708992760800,3.3937607421875,-0.006490443367511034,-0.011224648915231228,0.007712173741310835
1761131709002760700,3.4037607421875,-0.010155634954571724,-0.011835514567792416,0.011377365328371525
1761131709012760800,3.4137607421875,-0.011988230049610138,-0.010002918541431427,0.015653422102332115
1761131709022761000,3.423760986328125,-0.009544769302010536,-0.012446379289031029,0.022372938692569733
1761131709032760800,3.4337607421875,-0.00038179077091626823,-0.010002918541431427,0.029703322798013687
1761131709042761000,3.443760986328125,0.0038942659739404917,-0.000839939690195024,0.03214678168296814
1761131709052760000,3.453760009765625,0.005726861767470837,0.005879578180611134,0.036422841250896454
1761131709062760000,3.463760009765625,0.008781188167631626,0.007712173741310835,0.03703370690345764
1761131709072760000,3.473760009765625,0.008781188167631626,0.006490443367511034,0.03825543448328972
1761131709082760000,3.483760009765625,0.007559457328170538,0.004046982154250145,0.03764457255601883
1761131709092760000,3.493760009765625,0.008170322515070438,-0.00022907447419129312,0.03214678168296814
1761131709102760000,3.503760009765625,0.01061378326267004,-0.0032834007870405912,0.023594669997692108
1761131709112760000,3.513760009765625,0.013057244941592216,-0.007559457328170538,0.013209961354732513
1761131709122760000,3.523760009765625,0.016722436994314194,-0.011835514567792416,0.0022143865935504436
1761131709132760000,3.533760009765625,0.02099849283695221,-0.014278975315392017,-0.008781188167631626
1761131709142760000,3.543760009765625,0.02099849283695221,-0.019776761531829834,-0.011224648915231228
1761131709152760800,3.5537607421875,0.01794416643679142,-0.022831087931990623,-0.007559457328170538
1761131709162761000,3.563760986328125,0.015500705689191818,-0.021609358489513397,-0.0020616701804101467
1761131709172760800,3.5737607421875,0.013057244941592216,-0.01794416643679142,0.005268712528049946
1761131709182761000,3.583760986328125,0.011835514567792416,-0.0069485921412706375,0.01748601719737053
1761131709192760800,3.5937607421875,0.01061378326267004,-0.00022907447419129312,0.03153591975569725
1761131709202761000,3.603760986328125,0.01366810966283083,0.004657847341150045,0.039477165788412094
1761131709212760800,3.6137607421875,0.015500705689191818,0.009544769302010536,0.035811975598335266
1761131709222761000,3.623760986328125,0.024052819237113,0.010766499675810337,0.02848159149289131
1761131709232760800,3.6337607421875,0.02955060638487339,0.004657847341150045,0.013820826075971127
1761131709242761000,3.643760986328125,0.03199406713247299,-0.00022907447419129312,0.0009926559869199991
1761131709252760000,3.653760009765625,0.030772335827350616,-0.0069485921412706375,-0.0069485921412706375
1761131709262760000,3.663760009765625,0.02955060638487339,-0.010002918541431427,-0.011224648915231228
1761131709272760000,3.673760009765625,0.02710714563727379,-0.011835514567792416,-0.025274548679590225
1761131709282760000,3.683760009765625,0.019776761531829834,-0.013057244941592216,-0.030161472037434578
1761131709292760000,3.693760009765625,0.01488984003663063,-0.017333300784230232,-0.028328875079751015
1761131709302760000,3.703760009765625,0.011835514567792416,-0.011224648915231228,-0.022831087931990623
1761131709312760000,3.713760009765625,0.013057244941592216,-0.0014508049935102463,-0.015500705689191818
1761131709322760000,3.723760009765625,0.015500705689191818,0.004657847341150045,-0.011224648915231228
1761131709332760000,3.733760009765625,0.015500705689191818,0.008323038928210735,-0.004505131393671036
1761131709342760000,3.743760009765625,0.018555032089352608,0.006490443367511034,0.0016035212902352214
1761131709352760800,3.7537607421875,0.021609358489513397,0.004657847341150045,-0.0032834007870405912
1761131709362761000,3.763760986328125,0.02099849283695221,-0.0014508049935102463,-0.016111571341753006
1761131709372760800,3.7737607421875,0.02038762718439102,-0.005115996580570936,-0.03260493278503418
1761131709382761000,3.783760986328125,0.016111571341753006,-0.005726861767470837,-0.0417679101228714
1761131709392760800,3.7937607421875,0.01366810966283083,-0.008170322515070438,-0.04421137273311615
1761131709402761000,3.803760986328125,0.010002918541431427,-0.0038942659739404917,-0.04115704447031021
1761131709412760800,3.8137607421875,0.007559457328170538,0.002825251780450344,-0.031383201479911804
1761131709422761000,3.823760986328125,0.004505131393671036,0.005879578180611134,-0.019165897741913795
1761131709432760800,3.8337607421875,0.005726861767470837,0.010155634954571724,-0.013057244941592216
1761131709442761000,3.843760986328125,0.0032834007870405912,0.019318614155054092,-0.013057244941592216
1761131709452760000,3.853760009765625,0.002672535367310047,0.022372938692569733,-0.016111571341753006
1761131709462760200,3.86376025390625,0.005726861767470837,0.024205535650253296,-0.016722436994314194
1761131709472760000,3.873760009765625,0.011835514567792416,0.027870727702975273,-0.017333300784230232
1761131709482760000,3.883760009765625,0.010002918541431427,0.027870727702975273,-0.019165897741913795
1761131709492760000,3.893760009765625,0.005115996580570936,0.025427265092730522,-0.02344195358455181
1761131709502760000,3.903760009765625,0.0020616701804101467,0.023594669997692108,-0.025885414332151413
1761131709512760000,3.913760009765625,-0.0009926559869199991,0.023594669997692108,-0.027718011289834976
1761131709522760000,3.923760009765625,-0.004657847341150045,0.022372938692569733,-0.0264962799847126
1761131709532760000,3.933760009765625,-0.005268712528049946,0.018707748502492905,-0.018555032089352608
1761131709542760000,3.943760009765625,0.00022907447419129312,0.008933904580771923,-0.007559457328170538
1761131709552760800,3.9537607421875,0.0069485921412706375,0.010766499675810337,0.00038179077091626823
1761131709562761000,3.963760986328125,0.013057244941592216,0.025427265092730522,0.004046982154250145
1761131709572760800,3.9737607421875,0.012446379289031029,0.03153591975569725,0.0016035212902352214
1761131709582761000,3.983760986328125,0.005115996580570936,0.024205535650253296,-0.0038942659739404917
1761131709592760800,3.9937607421875,-0.0016035212902352214,0.008323038928210735,-0.007559457328170538
1761131709602761000,4.003760986328125,0.00022907447419129312,-0.007559457328170538,-0.007559457328170538
1761131709612760800,4.0137607421875,0.006337726954370737,-0.016111571341753006,-0.0069485921412706375
1761131709622761000,4.023760986328125,0.008170322515070438,-0.019165897741913795,-0.005726861767470837
1761131709632760800,4.0337607421875,0.005115996580570936,-0.01366810966283083,-0.006337726954370737
1761131709642761000,4.043760986328125,-0.00038179077091626823,-0.0020616701804101467,-0.006337726954370737
1761131709652760000,4.053760009765625,-0.006490443367511034,0.002825251780450344,-0.000839939690195024
1761131709662760000,4.063760009765625,-0.009544769302010536,0.002825251780450344,0.005268712528049946
1761131709672760000,4.073760009765625,-0.010155634954571724,0.004657847341150045,0.011377365328371525
1761131709682760000,4.083760009765625,-0.007712173741310835,0.005268712528049946,0.01748601719737053
1761131709692760000,4.093760009765625,-0.002825251780450344,0.006490443367511034,0.022372938692569733
1761131709702760000,4.103760009765625,-0.0009926559869199991,0.013209961354732513,0.02603813074529171
1761131709712760000,4.113760009765625,-0.0016035212902352214,0.02054034359753132,0.027870727702975273
1761131709722760000,4.123760009765625,-0.0034361169673502445,0.021151209250092506,0.027870727702975273
1761131709732760000,4.133760009765625,-0.008933904580771923,0.016264287754893303,0.02054034359753132
1761131709742760000,4.143760009765625,-0.006490443367511034,0.014431691728532314,0.010766499675810337
1761131709752760800,4.1537607421875,-0.00038179077091626823,0.007712173741310835,0.0009926559869199991
1761131709762761000,4.163760986328125,0.002672535367310047,-0.000839939690195024,-0.005726861767470837
1761131709772760800,4.1737607421875,0.0014508049935102463,-0.007559457328170538,-0.00939205288887024
1761131709782761000,4.183760986328125,-0.005268712528049946,-0.018555032089352608,-0.01366810966283083
1761131709792760800,4.1937607421875,-0.013820826075971127,-0.021609358489513397,-0.011224648915231228
1761131709802761000,4.203760986328125,-0.01748601719737053,-0.02038762718439102,-0.004505131393671036
1761131709812760800,4.2137607421875,-0.018096882849931717,-0.005726861767470837,0.004657847341150045
1761131709822761000,4.223760986328125,-0.018096882849931717,0.011988230049610138,0.015042556449770927
1761131709832760800,4.2337607421875,-0.022372938692569733,0.02054034359753132,0.02603813074529171
1761131709842761000,4.243760986328125,-0.024205535650253296,0.023594669997692108,0.03825543448328972
1761131709852760000,4.253760009765625,-0.02054034359753132,0.030314188450574875,0.047418415546417236
1761131709862760000,4.263760009765625,-0.013209961354732513,0.02848159149289131,0.048029281198978424
1761131709872760000,4.273760009765625,-0.005268712528049946,0.024816401302814484,0.04253149405121803
1761131709882760000,4.283760009765625,-0.00038179077091626823,0.016264287754893303,0.03214678168296814
1761131709892760000,4.293760009765625,0.0014508049935102463,0.010766499675810337,0.03275764733552933
1761131709902760000,4.303760009765625,0.0020616701804101467,0.010155634954571724,0.033368512988090515
1761131709912760000,4.313760009765625,-0.00038179077091626823,0.011988230049610138,0.033368512988090515
1761131709922760000,4.323760009765625,-0.007712173741310835,0.007712173741310835,0.03703370690345764
1761131709932760000,4.333760009765625,-0.014431691728532314,-0.000839939690195024,0.04069889709353447
1761131709942760000,4.343760009765625,-0.016264287754893303,-0.0032834007870405912,0.04130976274609566
1761131709952760800,4.3537607421875,-0.013820826075971127,0.004657847341150045,0.030925052240490913
1761131709962761000,4.363760986328125,-0.006490443367511034,0.024816401302814484,0.010766499675810337
1761131709972760800,4.3737607421875,-0.0071013085544109344,0.029703322798013687,0.006490443367511034
1761131709982761000,4.383760986328125,-0.006490443367511034,0.021762074902653694,0.006490443367511034
1761131709992760800,4.3937607421875,-0.006490443367511034,0.010766499675810337,0.009544769302010536
1761131710002761000,4.403760986328125,-0.0034361169673502445,0.005879578180611134,0.015653422102332115
1761131710012760800,4.4137607421875,0.0020616701804101467,0.0034361169673502445,0.013209961354732513
1761131710022761000,4.423760986328125,0.0038942659739404917,0.008323038928210735,0.0034361169673502445
1761131710032760800,4.4337607421875,0.0032834007870405912,0.009544769302010536,-0.0032834007870405912
1761131710042761000,4.443760986328125,0.0014508049935102463,0.014431691728532314,-0.00022907447419129312
1761131710052760000,4.453760009765625,-0.0009926559869199991,0.016264287754893303,0.011988230049610138
1761131710062760000,4.463760009765625,-0.004657847341150045,0.016264287754893303,0.02848159149289131
1761131710072760000,4.473760009765625,-0.004657847341150045,0.01687515154480934,0.03825543448328972
1761131710082760000,4.483760009765625,-0.005879578180611134,0.018096882849931717,0.03764457255601883
1761131710092760000,4.493760009765625,0.0014508049935102463,0.018707748502492905,0.0339793786406517
1761131710102760000,4.503760009765625,0.0069485921412706375,0.018096882849931717,0.030925052240490913
1761131710112760000,4.513760009765625,0.012446379289031029,0.015653422102332115,0.030314188450574875
1761131710122760000,4.523760009765625,0.01366810966283083,0.018096882849931717,0.0339793786406517
1761131710132760000,4.533760009765625,0.012446379289031029,0.021151209250092506,0.03214678168296814
1761131710142760000,4.543760009765625,0.010002918541431427,0.025427265092730522,0.024205535650253296
1761131710152760800,4.5537607421875,0.0038942659739404917,0.01992947794497013,0.014431691728532314
1761131710162761000,4.563760986328125,0.0038942659739404917,0.005879578180611134,0.0071013085544109344
1761131710172760800,4.5737607421875,0.005726861767470837,0.0016035212902352214,0.005268712528049946
1761131710182761000,4.583760986328125,0.013057244941592216,0.002825251780450344,0.006490443367511034
1761131710192760800,4.5937607421875,0.016722436994314194,0.012599095702171326,0.013209961354732513
1761131710202761000,4.603760986328125,0.013057244941592216,0.019318614155054092,0.024816401302814484
1761131710212760800,4.6137607421875,0.008781188167631626,0.02298380434513092,0.029703322798013687
1761131710222761000,4.623760986328125,0.0038942659739404917,0.02054034359753132,0.021151209250092506
1761131710232760800,4.6337607421875,0.000839939690195024,0.009544769302010536,0.008933904580771923
1761131710242761000,4.643760986328125,0.005726861767470837,-0.0020616701804101467,0.009544769302010536
1761131710252760000,4.653760009765625,0.01366810966283083,-0.0032834007870405912,0.015042556449770927
1761131710262760200,4.66376025390625,0.01488984003663063,-0.000839939690195024,0.015653422102332115
1761131710272760000,4.673760009765625,0.00939205288887024,0.002825251780450344,0.018096882849931717
1761131710282760000,4.683760009765625,0.002672535367310047,0.006490443367511034,0.01748601719737053
1761131710292760000,4.693760009765625,-0.00038179077091626823,0.009544769302010536,0.013820826075971127
1761131710302760000,4.703760009765625,-0.0016035212902352214,0.006490443367511034,0.011377365328371525
1761131710312760000,4.713760009765625,-0.0009926559869199991,0.005268712528049946,0.009544769302010536
1761131710322760000,4.723760009765625,-0.002825251780450344,-0.00022907447419129312,0.002825251780450344
1761131710332760000,4.733760009765625,-0.007712173741310835,0.00038179077091626823,-0.002672535367310047
1761131710342760000,4.743760009765625,-0.009544769302010536,0.0022143865935504436,-0.002672535367310047
1761131710352760800,4.7537607421875,-0.0034361169673502445,0.005268712528049946,0.0016035212902352214
1761131710362761000,4.763760986328125,0.00022907447419129312,0.008933904580771923,0.008323038928210735
1761131710372760800,4.7737607421875,-0.0016035212902352214,0.0034361169673502445,0.012599095702171326
1761131710382761000,4.783760986328125,-0.002825251780450344,0.0009926559869199991,0.012599095702171326
1761131710392760800,4.7937607421875,-0.0016035212902352214,-0.002672535367310047,0.011377365328371525
1761131710402761000,4.803760986328125,-0.0009926559869199991,-0.00022907447419129312,0.013820826075971127
1761131710412760800,4.8137607421875,0.002672535367310047,0.004657847341150045,0.01687515154480934
1761131710422761000,4.823760986328125,0.0020616701804101467,0.006490443367511034,0.01687515154480934
1761131710432761000,4.833760986328125,-0.0022143865935504436,0.005268712528049946,0.008933904580771923
1761131710442761000,4.843760986328125,-0.004046982154250145,-0.0032834007870405912,-0.0020616701804101467
1761131710452760300,4.85376025390625,-0.0034361169673502445,-0.015500705689191818,-0.016722436994314194
1761131710462760200,4.86376025390625,-0.0034361169673502445,-0.0264962799847126,-0.030772335827350616
1761131710472760000,4.873760009765625,-0.007712173741310835,-0.036880988627672195,-0.03749185428023338
1761131710482760200,4.88376025390625,-0.008323038928210735,-0.030772335827350616,-0.033826664090156555
1761131710492760000,4.893760009765625,-0.006490443367511034,-0.011835514567792416,-0.024052819237113
1761131710502760200,4.90376025390625,-0.004046982154250145,0.002825251780450344,-0.010002918541431427
1761131710512760000,4.913760009765625,-0.008323038928210735,0.015653422102332115,-0.000839939690195024
1761131710522760200,4.92376025390625,-0.012599095702171326,0.02054034359753132,0.00038179077091626823
1761131710532760000,4.933760009765625,-0.01687515154480934,0.015042556449770927,-0.0032834007870405912
1761131710542760200,4.94376025390625,-0.012599095702171326,0.0071013085544109344,-0.016722436994314194
1761131710552761000,4.953760986328125,-0.008323038928210735,0.002825251780450344,-0.03260493278503418
1761131710562761000,4.963760986328125,0.002672535367310047,0.0022143865935504436,-0.04054617881774902
1761131710572760800,4.9737607421875,0.017333300784230232,-0.0014508049935102463,-0.0417679101228714
1761131710582761000,4.983760986328125,0.019776761531829834,0.0034361169673502445,-0.03627012297511101
1761131710592760800,4.9937607421875,0.013057244941592216,0.010155634954571724,-0.025274548679590225
1761131710602761000,5.003760986328125,0.0038942659739404917,0.006490443367511034,-0.008781188167631626
1761131710612760800,5.0137607421875,-0.0016035212902352214,-0.00022907447419129312,0.00038179077091626823
1761131710622761000,5.023760986328125,-0.0034361169673502445,0.00038179077091626823,-0.0014508049935102463
1761131710632760800,5.0337607421875,-0.0016035212902352214,0.006490443367511034,-0.008170322515070438
1761131710642761000,5.043760986328125,0.0020616701804101467,0.011988230049610138,-0.00939205288887024
1761131710652760000,5.053760009765625,0.008170322515070438,0.006490443367511034,-0.005115996580570936
1761131710662760200,5.06376025390625,0.011835514567792416,0.004046982154250145,-0.0014508049935102463
1761131710672760000,5.073760009765625,0.012446379289031029,-0.00022907447419129312,-0.0032834007870405912
1761131710682760200,5.08376025390625,0.00939205288887024,-0.006337726954370737,-0.004505131393671036
1761131710692760000,5.093760009765625,0.007559457328170538,-0.015500705689191818,-0.005726861767470837
1761131710702760200,5.10376025390625,0.0038942659739404917,-0.01794416643679142,-0.005115996580570936
1761131710712760000,5.113760009765625,0.000839939690195024,-0.012446379289031029,-0.0038942659739404917
1761131710722760200,5.12376025390625,0.0032834007870405912,-0.0069485921412706375,-0.004505131393671036
1761131710732760000,5.133760009765625,0.0014508049935102463,0.004657847341150045,-0.0069485921412706375
1761131710742760000,5.143760009765625,0.000839939690195024,0.008323038928210735,-0.00939205288887024
1761131710752760800,5.1537607421875,0.00022907447419129312,0.005268712528049946,-0.011835514567792416
1761131710762760700,5.1637607421875,0.006337726954370737,-0.000839939690195024,-0.0069485921412706375
1761131710772760800,5.1737607421875,0.016722436994314194,0.00038179077091626823,0.005879578180611134
1761131710782760700,5.1837607421875,0.021609358489513397,0.0034361169673502445,0.018096882849931717
1761131710792760800,5.1937607421875,0.016722436994314194,0.008933904580771923,0.024205535650253296
1761131710802760700,5.2037607421875,0.008781188167631626,0.011988230049610138,0.021762074902653694
1761131710812760800,5.2137607421875,0.0038942659739404917,0.013209961354732513,0.016264287754893303
1761131710822761000,5.223760986328125,0.002672535367310047,0.008323038928210735,0.005268712528049946
1761131710832760800,5.2337607421875,0.004505131393671036,-0.00022907447419129312,-0.0032834007870405912
1761131710842761000,5.243760986328125,0.005115996580570936,-0.008781188167631626,-0.00022907447419129312
1761131710852760000,5.253760009765625,0.0038942659739404917,-0.008170322515070438,0.005879578180611134
1761131710862760000,5.263760009765625,0.004505131393671036,0.005879578180611134,0.006490443367511034
1761131710872760000,5.273760009765625,0.0032834007870405912,0.012599095702171326,0.0016035212902352214
1761131710882760000,5.283760009765625,0.004505131393671036,0.013209961354732513,-0.0032834007870405912
1761131710892760000,5.293760009765625,0.011224648915231228,0.0022143865935504436,0.0009926559869199991
1761131710902760000,5.303760009765625,0.01794416643679142,-0.004505131393671036,0.013820826075971127
1761131710912760000,5.313760009765625,0.021609358489513397,-0.002672535367310047,0.027870727702975273
1761131710922760000,5.323760009765625,0.025274548679590225,0.008933904580771923,0.03214678168296814
1761131710932760000,5.333760009765625,0.021609358489513397,0.021762074902653694,0.030314188450574875
1761131710942760000,5.343760009765625,0.018555032089352608,0.026648996397852898,0.030314188450574875
1761131710952760800,5.3537607421875,0.017333300784230232,0.019318614155054092,0.030314188450574875
1761131710962760700,5.3637607421875,0.014278975315392017,0.014431691728532314,0.027870727702975273
1761131710972760800,5.3737607421875,0.014278975315392017,0.008323038928210735,0.022372938692569733
1761131710982760700,5.3837607421875,0.012446379289031029,0.005268712528049946,0.018096882849931717
1761131710992760800,5.3937607421875,0.010002918541431427,0.004657847341150045,0.018707748502492905
1761131711002760700,5.4037607421875,0.002672535367310047,0.0071013085544109344,0.025427265092730522
1761131711012760800,5.4137607421875,0.000839939690195024,0.008933904580771923,0.027259862050414085
1761131711022760700,5.4237607421875,0.00022907447419129312,0.014431691728532314,0.026648996397852898
1761131711032760800,5.4337607421875,0.005726861767470837,0.02298380434513092,0.02848159149289131
1761131711042760700,5.4437607421875,0.01061378326267004,0.021762074902653694,0.0290924571454525
1761131711052760000,5.453760009765625,0.011835514567792416,0.01992947794497013,0.0290924571454525
1761131711062760000,5.463760009765625,0.011224648915231228,0.01992947794497013,0.0290924571454525
1761131711072760000,5.473760009765625,0.011835514567792416,0.023594669997692108,0.027259862050414085
1761131711082760000,5.483760009765625,0.007559457328170538,0.02298380434513092,0.023594669997692108
1761131711092760000,5.493760009765625,0.0020616701804101467,0.01748601719737053,0.027259862050414085
1761131711102760000,5.503760009765625,0.002672535367310047,0.002825251780450344,0.025427265092730522
1761131711112759800,5.513759765625,0.0038942659739404917,-0.0038942659739404917,0.01687515154480934
1761131711122760000,5.523760009765625,-0.005268712528049946,-0.00939205288887024,-0.008170322515070438
1761131711132759800,5.533759765625,-0.010766499675810337,-0.013057244941592216,-0.02344195358455181
1761131711142760000,5.543760009765625,-0.013209961354732513,-0.019165897741913795,-0.02955060638487339
1761131711152760800,5.5537607421875,-0.01687515154480934,-0.022220224142074585,-0.024663684889674187
1761131711162760700,5.5637607421875,-0.015042556449770927,-0.019165897741913795,-0.008170322515070438
1761131711172760800,5.5737607421875,-0.013209961354732513,-0.013057244941592216,0.012599095702171326
1761131711182761000,5.583760986328125,-0.011988230049610138,-0.005115996580570936,0.027870727702975273
1761131711192760800,5.5937607421875,-0.013820826075971127,0.0034361169673502445,0.035811975598335266
1761131711202761000,5.603760986328125,-0.014431691728532314,0.006490443367511034,0.03825543448328972
1761131711212760800,5.6137607421875,-0.010766499675810337,0.005879578180611134,0.03703370690345764
1761131711222760700,5.6237607421875,-0.010155634954571724,-0.0014508049935102463,0.03275764733552933
1761131711232760800,5.6337607421875,-0.010155634954571724,-0.004505131393671036,0.022372938692569733
1761131711242760700,5.6437607421875,-0.010155634954571724,-0.007559457328170538,0.006490443367511034
1761131711252760000,5.653760009765625,-0.012599095702171326,-0.010002918541431427,-0.010002918541431427
1761131711262760000,5.663760009765625,-0.015042556449770927,-0.022220224142074585,-0.02344195358455181
1761131711272759800,5.673759765625,-0.01687515154480934,-0.07108944654464722,0.0016035212902352214
1761131711282760000,5.683760009765625,-0.022372938692569733,-0.07658722996711731,0.011988230049610138
1761131711292759800,5.693759765625,-0.02054034359753132,-0.05398521572351456,-0.000839939690195024
1761131711302760000,5.703760009765625,-0.01992947794497013,-0.016111571341753006,-0.016111571341753006
1761131711312759800,5.713759765625,-0.021762074902653694,0.00038179077091626823,-0.019776761531829834
1761131711322760000,5.723760009765625,-0.027259862050414085,-0.0020616701804101467,-0.005115996580570936
1761131711332759800,5.733759765625,-0.029703322798013687,-0.018555032089352608,0.007712173741310835
1761131711342760000,5.743760009765625,-0.024205535650253296,-0.031383201479911804,0.010766499675810337
1761131711352760800,5.7537607421875,-0.01992947794497013,-0.04909829422831535,0.0022143865935504436
1761131711362760700,5.7637607421875,-0.01748601719737053,-0.05093089118599892,-0.008170322515070438
1761131711372760800,5.7737607421875,-0.021151209250092506,-0.05032002553343773,-0.019165897741913795
1761131711382760700,5.7837607421875,-0.025427265092730522,-0.04360050708055496,-0.024663684889674187
1761131711392760800,5.7937607421875,-0.030925052240490913,-0.03871358558535576,-0.02099849283695221
1761131711402760700,5.8037607421875,-0.03214678168296814,-0.039935316890478134,-0.008781188167631626
1761131711412760800,5.8137607421875,-0.03520110994577408,-0.039324451237916946,0.0022143865935504436
1761131711422760700,5.8237607421875,-0.033368512988090515,-0.04054617881774902,0.010766499675810337
1761131711432760800,5.8337607421875,-0.0290924571454525,-0.03565925732254982,0.0071013085544109344
1761131711442761000,5.843760986328125,-0.025427265092730522,-0.028939740732312202,-0.002672535367310047
1761131711452760000,5.853760009765625,-0.023594669997692108,-0.0264962799847126,-0.014278975315392017
1761131711462760000,5.863760009765625,-0.021151209250092506,-0.03321579843759537,-0.024052819237113
1761131711472760000,5.873760009765625,-0.02298380434513092,-0.03749185428023338,-0.0264962799847126
1761131711482760000,5.883760009765625,-0.023594669997692108,-0.04360050708055496,-0.02710714563727379
1761131711492760000,5.893760009765625,-0.02298380434513092,-0.04482223838567734,-0.02955060638487339
1761131711502760000,5.903760009765625,-0.021762074902653694,-0.042989641427993774,-0.03321579843759537
1761131711512760000,5.913760009765625,-0.02298380434513092,-0.04360050708055496,-0.03749185428023338
1761131711522760000,5.923760009765625,-0.021151209250092506,-0.04360050708055496,-0.04421137273311615
1761131711532760000,5.933760009765625,-0.019318614155054092,-0.039324451237916946,-0.0466548316180706
1761131711542760000,5.943760009765625,-0.018707748502492905,-0.03810271993279457,-0.04482223838567734
1761131711552760800,5.9537607421875,-0.018707748502492905,-0.039324451237916946,-0.039324451237916946
1761131711562761000,5.963760986328125,-0.01992947794497013,-0.03871358558535576,-0.03504839166998863
1761131711572760800,5.9737607421875,-0.01687515154480934,-0.03871358558535576,-0.028939740732312202
1761131711582761000,5.983760986328125,-0.012599095702171326,-0.03627012297511101,-0.024052819237113
1761131711592760800,5.9937607421875,-0.005268712528049946,-0.02955060638487339,-0.02710714563727379
1761131711602761000,6.003760986328125,-0.005879578180611134,-0.024052819237113,-0.03565925732254982
1761131711612760800,6.0137607421875,-0.008323038928210735,-0.021609358489513397,-0.03565925732254982
1761131711622761000,6.023760986328125,-0.0034361169673502445,-0.024052819237113,-0.028939740732312202
1761131711632760800,6.0337607421875,0.00022907447419129312,-0.02710714563727379,-0.022831087931990623
1761131711642761000,6.043760986328125,0.0032834007870405912,-0.021609358489513397,-0.019776761531829834
1761131711652760000,6.053760009765625,0.004505131393671036,-0.01488984003663063,-0.011835514567792416
1761131711662760000,6.063760009765625,0.008170322515070438,-0.01061378326267004,-0.006337726954370737
1761131711672760000,6.073760009765625,0.007559457328170538,-0.0038942659739404917,-0.005115996580570936
1761131711682760000,6.083760009765625,0.008781188167631626,0.004046982154250145,-0.005115996580570936
1761131711692760000,6.093760009765625,0.011224648915231228,0.011377365328371525,-0.008781188167631626
1761131711702760000,6.103760009765625,0.01488984003663063,0.021151209250092506,-0.010002918541431427
1761131711712760000,6.113760009765625,0.022831087931990623,0.02603813074529171,-0.004505131393671036
1761131711722760000,6.123760009765625,0.028328875079751015,0.02054034359753132,0.004657847341150045
1761131711732760000,6.133760009765625,0.028939740732312202,0.010155634954571724,0.010766499675810337
1761131711742760000,6.143760009765625,0.030772335827350616,0.0016035212902352214,0.008323038928210735
1761131711752760800,6.1537607421875,0.03443752974271774,-0.0020616701804101467,-0.00022907447419129312
1761131711762760700,6.1637607421875,0.039935316890478134,-0.000839939690195024,-0.008781188167631626
1761131711772760800,6.1737607421875,0.04604396969079971,-0.0032834007870405912,-0.015500705689191818
1761131711782760700,6.1837607421875,0.04970915988087654,-0.0069485921412706375,-0.017333300784230232
1761131711792760800,6.1937607421875,0.05093089118599892,-0.007559457328170538,-0.01488984003663063
1761131711802760700,6.2037607421875,0.05093089118599892,-0.006337726954370737,-0.00939205288887024
1761131711812760800,6.2137607421875,0.04970915988087654,0.005268712528049946,-0.000839939690195024
1761131711822761000,6.223760986328125,0.039935316890478134,0.02298380434513092,0.008323038928210735
1761131711832760800,6.2337607421875,0.03260493278503418,0.024205535650253296,0.009544769302010536
1761131711842761000,6.243760986328125,0.03565925732254982,0.025427265092730522,0.011988230049610138
1761131711852760000,6.253760009765625,0.04237877577543259,0.022372938692569733,0.012599095702171326
1761131711862760000,6.263760009765625,0.048487428575754166,0.02054034359753132,0.010155634954571724
1761131711872760000,6.273760009765625,0.05337435007095337,0.01748601719737053,0.0034361169673502445
1761131711882760000,6.283760009765625,0.051541756838560104,0.01687515154480934,0.00038179077091626823
1761131711892760000,6.293760009765625,0.048487428575754166,0.015653422102332115,-0.00022907447419129312
1761131711902760000,6.303760009765625,0.04787656292319298,0.010155634954571724,-0.000839939690195024
1761131711912760000,6.313760009765625,0.04970915988087654,0.011377365328371525,0.005879578180611134
1761131711922760000,6.323760009765625,0.04970915988087654,0.008933904580771923,0.011988230049610138
1761131711932760000,6.333760009765625,0.04421137273311615,0.0071013085544109344,0.01687515154480934
1761131711942760000,6.343760009765625,0.036880988627672195,0.012599095702171326,0.02298380434513092
1761131711952760800,6.3537607421875,0.03260493278503418,0.018707748502492905,0.0290924571454525
1761131711962761000,6.363760986328125,0.033826664090156555,0.02298380434513092,0.03153591975569725
1761131711972760800,6.3737607421875,0.03749185428023338,0.0290924571454525,0.03459024429321289
1761131711982761000,6.383760986328125,0.04237877577543259,0.03214678168296814,0.038866300135850906
1761131711992760800,6.3937607421875,0.04726569727063179,0.02848159149289131,0.03825543448328972
1761131712002761000,6.403760986328125,0.04237877577543259,0.021762074902653694,0.0290924571454525
1761131712012760800,6.4137607421875,0.04115704447031021,0.012599095702171326,0.01687515154480934
1761131712022761000,6.423760986328125,0.03871358558535576,0.0009926559869199991,0.0022143865935504436
1761131712032760800,6.4337607421875,0.033826664090156555,-0.0020616701804101467,-0.01366810966283083
1761131712042761000,6.443760986328125,0.027718011289834976,-0.0020616701804101467,-0.02344195358455181
1761131712052760000,6.453760009765625,0.02099849283695221,0.002825251780450344,-0.025274548679590225
1761131712062760000,6.463760009765625,0.01794416643679142,0.010766499675810337,-0.013057244941592216
1761131712072760000,6.473760009765625,0.017333300784230232,0.014431691728532314,-0.0014508049935102463
1761131712082760000,6.483760009765625,0.01794416643679142,0.024816401302814484,0.010155634954571724
1761131712092760000,6.493760009765625,0.016722436994314194,0.02848159149289131,0.021762074902653694
1761131712102760000,6.503760009765625,0.01794416643679142,0.024205535650253296,0.027259862050414085
1761131712112759800,6.513759765625,0.019776761531829834,0.021762074902653694,0.024816401302814484
1761131712122760000,6.523760009765625,0.019165897741913795,0.02054034359753132,0.01687515154480934
1761131712132759800,6.533759765625,0.015500705689191818,0.01687515154480934,0.010155634954571724
1761131712142760000,6.543760009765625,0.013057244941592216,0.013209961354732513,0.005879578180611134
1761131712152760800,6.5537607421875,0.007559457328170538,0.007712173741310835,0.002825251780450344
1761131712162760700,6.5637607421875,0.0020616701804101467,0.004657847341150045,-0.00022907447419129312
1761131712172760800,6.5737607421875,0.0014508049935102463,0.006490443367511034,-0.0038942659739404917
1761131712182761000,6.583760986328125,0.0020616701804101467,0.009544769302010536,-0.002672535367310047
1761131712192760800,6.5937607421875,-0.002825251780450344,0.013209961354732513,0.002825251780450344
1761131712202761000,6.603760986328125,-0.0071013085544109344,0.019318614155054092,0.010766499675810337
1761131712212760800,6.6137607421875,-0.0071013085544109344,0.01992947794497013,0.009544769302010536
1761131712222760700,6.6237607421875,-0.005879578180611134,0.015653422102332115,0.004657847341150045
1761131712232760800,6.6337607421875,-0.005879578180611134,0.0071013085544109344,-0.000839939690195024
1761131712242760700,6.6437607421875,-0.0016035212902352214,-0.000839939690195024,0.0009926559869199991
1761131712252759800,6.653759765625,-0.00038179077091626823,-0.0014508049935102463,0.002825251780450344
1761131712262760000,6.663760009765625,-0.0022143865935504436,0.00038179077091626823,-0.000839939690195024
1761131712272759800,6.673759765625,-0.008933904580771923,0.005879578180611134,-0.002672535367310047
1761131712282760000,6.683760009765625,-0.015042556449770927,0.009544769302010536,-0.0020616701804101467
1761131712292759800,6.693759765625,-0.015042556449770927,0.010155634954571724,0.004046982154250145
1761131712302760000,6.703760009765625,-0.013820826075971127,0.010155634954571724,0.011988230049610138
1761131712312759800,6.713759765625,-0.011988230049610138,0.011988230049610138,0.01748601719737053
1761131712322760000,6.723760009765625,-0.012599095702171326,0.018096882849931717,0.02298380434513092
1761131712332759800,6.733759765625,-0.015653422102332115,0.018096882849931717,0.023594669997692108
1761131712342760000,6.743760009765625,-0.01687515154480934,0.013820826075971127,0.02054034359753132
1761131712352760800,6.7537607421875,-0.013209961354732513,0.008323038928210735,0.01992947794497013
1761131712362760700,6.7637607421875,-0.005268712528049946,0.005879578180611134,0.021762074902653694
1761131712372760800,6.7737607421875,0.00022907447419129312,0.004046982154250145,0.02298380434513092
1761131712382760700,6.7837607421875,-0.00038179077091626823,0.004046982154250145,0.021151209250092506
1761131712392760800,6.7937607421875,-0.0034361169673502445,0.0009926559869199991,0.013820826075971127
1761131712402760700,6.8037607421875,-0.006490443367511034,-0.004505131393671036,0.005879578180611134
1761131712412760800,6.8137607421875,-0.011377365328371525,-0.01366810966283083,-0.005726861767470837
1761131712422761000,6.823760986328125,-0.014431691728532314,-0.021609358489513397,-0.011835514567792416
1761131712432760800,6.8337607421875,-0.01992947794497013,-0.028939740732312202,-0.01061378326267004
1761131712442761000,6.843760986328125,-0.021762074902653694,-0.02710714563727379,-0.008170322515070438
1761131712452760000,6.853760009765625,-0.022372938692569733,-0.014278975315392017,-0.006337726954370737
1761131712462760000,6.863760009765625,-0.01992947794497013,-0.0020616701804101467,0.0009926559869199991
1761131712472760000,6.873760009765625,-0.019318614155054092,0.004657847341150045,0.015042556449770927
1761131712482760000,6.883760009765625,-0.019318614155054092,0.006490443367511034,0.023594669997692108
1761131712492760000,6.893760009765625,-0.015653422102332115,0.0034361169673502445,0.023594669997692108
1761131712502760000,6.903760009765625,-0.015042556449770927,-0.006337726954370737,0.015042556449770927
1761131712512760000,6.913760009765625,-0.015653422102332115,-0.019776761531829834,0.0022143865935504436
1761131712522760000,6.923760009765625,-0.012599095702171326,-0.021609358489513397,0.00038179077091626823
1761131712532760000,6.933760009765625,-0.013820826075971127,-0.01366810966283083,0.00038179077091626823
1761131712542760000,6.943760009765625,-0.014431691728532314,-0.005726861767470837,0.0016035212902352214
1761131712552760800,6.9537607421875,-0.018096882849931717,-0.0038942659739404917,0.008933904580771923
1761131712562761000,6.963760986328125,-0.018707748502492905,-0.014278975315392017,0.013820826075971127
1761131712572760800,6.9737607421875,-0.01992947794497013,-0.016722436994314194,0.015653422102332115
1761131712582761000,6.983760986328125,-0.018707748502492905,-0.016111571341753006,0.015042556449770927
1761131712592760800,6.9937607421875,-0.01687515154480934,-0.014278975315392017,0.015653422102332115
1761131712602761000,7.003760986328125,-0.014431691728532314,-0.00939205288887024,0.015653422102332115
1761131712612760800,7.0137607421875,-0.008323038928210735,-0.0069485921412706375,0.015653422102332115
1761131712622761000,7.023760986328125,-0.004046982154250145,-0.008781188167631626,0.008933904580771923
1761131712632760800,7.0337607421875,-0.006490443367511034,-0.017333300784230232,0.00038179077091626823
1761131712642761000,7.043760986328125,-0.006490443367511034,-0.028939740732312202,-0.012446379289031029
1761131712652760000,7.053760009765625,-0.005879578180611134,-0.03199406713247299,-0.027718011289834976
1761131712662760000,7.063760009765625,-0.008323038928210735,-0.02955060638487339,-0.04054617881774902
1761131712672760000,7.073760009765625,-0.013820826075971127,-0.028328875079751015,-0.03749185428023338
1761131712682760000,7.083760009765625,-0.011377365328371525,-0.02710714563727379,-0.024663684889674187
1761131712692760000,7.093760009765625,-0.010766499675810337,-0.019776761531829834,-0.012446379289031029
1761131712702760000,7.103760009765625,-0.010766499675810337,-0.015500705689191818,-0.0032834007870405912
1761131712712760000,7.113760009765625,-0.007712173741310835,-0.014278975315392017,0.004657847341150045
1761131712722760000,7.123760009765625,-0.0034361169673502445,-0.01366810966283083,0.005879578180611134
1761131712732760000,7.133760009765625,0.00022907447419129312,-0.013057244941592216,0.002825251780450344
1761131712742760000,7.143760009765625,0.0014508049935102463,-0.01061378326267004,-0.0032834007870405912
1761131712752760800,7.1537607421875,-0.0034361169673502445,-0.01061378326267004,-0.008170322515070438
1761131712762760700,7.1637607421875,-0.006490443367511034,-0.013057244941592216,-0.00939205288887024
1761131712772760800,7.1737607421875,-0.008933904580771923,-0.011835514567792416,-0.011835514567792416
1761131712782760700,7.1837607421875,-0.009544769302010536,-0.00939205288887024,-0.01488984003663063
1761131712792760800,7.1937607421875,-0.007712173741310835,-0.00939205288887024,-0.014278975315392017
1761131712802760700,7.2037607421875,-0.007712173741310835,-0.013057244941592216,-0.01061378326267004
1761131712812760800,7.2137607421875,-0.004657847341150045,-0.016111571341753006,-0.010002918541431427
1761131712822761000,7.223760986328125,-0.006490443367511034,-0.019776761531829834,-0.016111571341753006
1761131712832760800,7.2337607421875,-0.002825251780450344,-0.018555032089352608,-0.022831087931990623
1761131712842760700,7.2437607421875,-0.00038179077091626823,-0.02038762718439102,-0.028939740732312202
1761131712852760000,7.253760009765625,0.005726861767470837,-0.021609358489513397,-0.030772335827350616
1761131712862760000,7.263760009765625,0.01061378326267004,-0.019776761531829834,-0.02710714563727379
1761131712872760000,7.273760009765625,0.01366810966283083,-0.01488984003663063,-0.025885414332151413
1761131712882760000,7.283760009765625,0.014278975315392017,-0.01061378326267004,-0.025274548679590225
1761131712892760000,7.293760009765625,0.01366810966283083,-0.01061378326267004,-0.025274548679590225
1761131712902760000,7.303760009765625,0.01366810966283083,-0.012446379289031029,-0.0264962799847126
1761131712912760000,7.313760009765625,0.012446379289031029,-0.015500705689191818,-0.030772335827350616
1761131712922760000,7.323760009765625,0.00939205288887024,-0.022831087931990623,-0.03321579843759537
1761131712932760000,7.333760009765625,0.006337726954370737,-0.02955060638487339,-0.03199406713247299
1761131712942760000,7.343760009765625,0.006337726954370737,-0.028328875079751015,-0.030161472037434578
1761131712952760800,7.3537607421875,0.01061378326267004,-0.025274548679590225,-0.027718011289834976
1761131712962760700,7.3637607421875,0.017333300784230232,-0.019776761531829834,-0.02038762718439102
1761131712972760800,7.3737607421875,0.019165897741913795,-0.010002918541431427,-0.012446379289031029
1761131712982760700,7.3837607421875,0.019776761531829834,-0.0020616701804101467,-0.015500705689191818
1761131712992760800,7.3937607421875,0.017333300784230232,-0.0020616701804101467,-0.022831087931990623
1761131713002760700,7.4037607421875,0.013057244941592216,-0.007559457328170538,-0.027718011289834976
1761131713012760800,7.4137607421875,0.011835514567792416,-0.011224648915231228,-0.033826664090156555
1761131713022760700,7.4237607421875,0.01366810966283083,-0.011835514567792416,-0.04237877577543259
1761131713032760800,7.4337607421875,0.015500705689191818,-0.013057244941592216,-0.04970915988087654
1761131713042760700,7.4437607421875,0.012446379289031029,-0.014278975315392017,-0.05398521572351456
1761131713052760300,7.45376025390625,0.008170322515070438,-0.017333300784230232,-0.05581781268119812
1761131713062760200,7.46376025390625,0.0020616701804101467,-0.025274548679590225,-0.054596081376075745
1761131713072760300,7.47376025390625,-0.002825251780450344,-0.03260493278503418,-0.04909829422831535
1761131713082760200,7.48376025390625,-0.0016035212902352214,-0.03260493278503418,-0.04360050708055496
1761131713092760300,7.49376025390625,0.00022907447419129312,-0.02344195358455181,-0.03871358558535576
1761131713102760200,7.50376025390625,-0.0016035212902352214,-0.017333300784230232,-0.031383201479911804
1761131713112760300,7.51376025390625,-0.006490443367511034,-0.010002918541431427,-0.022220224142074585
1761131713122760200,7.52376025390625,-0.0071013085544109344,-0.005726861767470837,-0.01061378326267004
1761131713132760300,7.53376025390625,-0.005879578180611134,-0.0069485921412706375,0.0022143865935504436
1761131713142760200,7.54376025390625,-0.0016035212902352214,-0.008170322515070438,0.008323038928210735
1761131713152761000,7.553760986328125,0.004505131393671036,-0.011224648915231228,0.005879578180611134
1761131713162761200,7.56376123046875,0.0032834007870405912,-0.01488984003663063,0.00038179077091626823
1761131713172761000,7.573760986328125,0.0014508049935102463,-0.018555032089352608,-0.004505131393671036
1761131713182761200,7.58376123046875,-0.00038179077091626823,-0.016722436994314194,-0.007559457328170538
1761131713192761000,7.593760986328125,-0.002825251780450344,-0.018555032089352608,-0.005726861767470837
1761131713202761200,7.60376123046875,-0.0022143865935504436,-0.02099849283695221,0.005879578180611134
1761131713212761000,7.613760986328125,-0.002825251780450344,-0.03321579843759537,0.029703322798013687
1761131713222761200,7.62376123046875,-0.004657847341150045,-0.03260493278503418,0.036422841250896454
1761131713232761000,7.633760986328125,-0.0009926559869199991,-0.025885414332151413,0.03153591975569725
1761131713242761200,7.64376123046875,0.0014508049935102463,-0.019776761531829834,0.027870727702975273
1761131713252760300,7.65376025390625,0.0020616701804101467,-0.011224648915231228,0.03214678168296814
1761131713262760400,7.663760498046875,0.005726861767470837,-0.008170322515070438,0.038866300135850906
1761131713272760300,7.67376025390625,0.008170322515070438,-0.008170322515070438,0.04375322163105011
1761131713282760200,7.68376025390625,0.008781188167631626,-0.010002918541431427,0.04253149405121803
1761131713292760300,7.69376025390625,0.008781188167631626,-0.015500705689191818,0.038866300135850906
1761131713302760200,7.70376025390625,0.004505131393671036,-0.02099849283695221,0.021762074902653694
1761131713312760300,7.71376025390625,-0.00038179077091626823,-0.022831087931990623,0.0034361169673502445
1761131713322760200,7.72376025390625,-0.0016035212902352214,-0.019776761531829834,-0.0038942659739404917
1761131713332760300,7.73376025390625,0.0020616701804101467,-0.016111571341753006,0.004657847341150045
1761131713342760200,7.74376025390625,0.004505131393671036,-0.014278975315392017,0.023594669997692108
1761131713352760800,7.7537607421875,0.0032834007870405912,-0.00939205288887024,0.044974952936172485
1761131713362760700,7.7637607421875,-0.00038179077091626823,-0.00022907447419129312,0.05780312418937683
1761131713372760800,7.7737607421875,0.00022907447419129312,0.009544769302010536,0.060246583074331284
1761131713382761000,7.783760986328125,0.0032834007870405912,0.016264287754893303,0.05719225853681564
1761131713392760800,7.7937607421875,0.007559457328170538,0.011988230049610138,0.047418415546417236
1761131713402761000,7.803760986328125,0.00939205288887024,0.005879578180611134,0.0339793786406517
1761131713412760800,7.8137607421875,0.011835514567792416,-0.002672535367310047,0.021762074902653694
1761131713422761000,7.823760986328125,0.010002918541431427,-0.008170322515070438,0.011377365328371525
1761131713432760800,7.8337607421875,0.010002918541431427,-0.006337726954370737,0.0009926559869199991
1761131713442761000,7.843760986328125,0.010002918541431427,0.00038179077091626823,-0.002672535367310047
1761131713452760000,7.853760009765625,0.007559457328170538,0.007712173741310835,0.005268712528049946
1761131713462760000,7.863760009765625,0.0069485921412706375,0.012599095702171326,0.015042556449770927
1761131713472760000,7.873760009765625,0.008170322515070438,0.01748601719737053,0.023594669997692108
1761131713482760000,7.883760009765625,0.008170322515070438,0.018096882849931717,0.03153591975569725
1761131713492760000,7.893760009765625,0.012446379289031029,0.015653422102332115,0.03459024429321289
1761131713502760000,7.903760009765625,0.016111571341753006,0.012599095702171326,0.03214678168296814
1761131713512760000,7.913760009765625,0.01794416643679142,0.008933904580771923,0.023594669997692108
1761131713522760000,7.923760009765625,0.02099849283695221,0.011377365328371525,0.01748601719737053
1761131713532760000,7.933760009765625,0.025274548679590225,0.013209961354732513,0.015042556449770927
1761131713542760000,7.943760009765625,0.022220224142074585,0.013820826075971127,0.015042556449770927
1761131713552760800,7.9537607421875,0.01794416643679142,0.012599095702171326,0.013209961354732513
1761131713562760700,7.9637607421875,0.017333300784230232,0.014431691728532314,0.008933904580771923
1761131713572760800,7.9737607421875,0.013057244941592216,0.015042556449770927,0.0009926559869199991
1761131713582760700,7.9837607421875,0.008781188167631626,0.011377365328371525,-0.005115996580570936
1761131713592760800,7.9937607421875,0.0032834007870405912,0.0071013085544109344,-0.01061378326267004
1761131713602760700,8.0037607421875,0.0020616701804101467,0.015042556449770927,-0.012446379289031029
1761131713612760800,8.0137607421875,0.006337726954370737,0.016264287754893303,-0.01366810966283083
1761131713622760700,8.0237607421875,0.0069485921412706375,0.014431691728532314,-0.013057244941592216
1761131713632760800,8.0337607421875,0.005115996580570936,0.010766499675810337,-0.011835514567792416
1761131713642760700,8.0437607421875,0.002672535367310047,0.012599095702171326,-0.013057244941592216
1761131713652760000,8.053760009765625,-0.0016035212902352214,0.013820826075971127,-0.01794416643679142
1761131713662760000,8.063760009765625,-0.004657847341150045,0.013209961354732513,-0.022831087931990623
1761131713672759800,8.073759765625,-0.012599095702171326,0.005879578180611134,-0.0264962799847126
1761131713682760000,8.083760009765625,-0.013820826075971127,0.002825251780450344,-0.028939740732312202
1761131713692760000,8.093760009765624,-0.014431691728532314,0.00038179077091626823,-0.033826664090156555
1761131713702760000,8.103760009765624,-0.015653422102332115,-0.0014508049935102463,-0.03810271993279457
1761131713712760000,8.113760009765626,-0.013209961354732513,-0.004505131393671036,-0.045433104038238525
1761131713722760000,8.123760009765626,-0.013209961354732513,-0.006337726954370737,-0.05093089118599892
1761131713732759800,8.133759765625,-0.02054034359753132,-0.013057244941592216,-0.051541756838560104
1761131713742760000,8.143760009765625,-0.023594669997692108,-0.012446379289031029,-0.048487428575754166
1761131713752760800,8.1537607421875,-0.02848159149289131,-0.010002918541431427,-0.04237877577543259
1761131713762760700,8.1637607421875,-0.033368512988090515,-0.0032834007870405912,-0.03504839166998863
1761131713772760800,8.1737607421875,-0.03764457255601883,0.00038179077091626823,-0.024052819237113
1761131713782760700,8.1837607421875,-0.03764457255601883,0.007712173741310835,-0.016111571341753006
1761131713792760800,8.1937607421875,-0.036422841250896454,0.010155634954571724,-0.01488984003663063
1761131713802760700,8.2037607421875,-0.03214678168296814,0.015042556449770927,-0.022831087931990623
1761131713812760800,8.2137607421875,-0.02848159149289131,0.016264287754893303,-0.030161472037434578
1761131713822761000,8.223760986328125,-0.02298380434513092,0.009544769302010536,-0.03260493278503418
1761131713832760800,8.2337607421875,-0.016264287754893303,0.002825251780450344,-0.03627012297511101
1761131713842761000,8.243760986328125,-0.012599095702171326,0.004657847341150045,-0.04237877577543259
1761131713852760000,8.253760009765625,-0.01748601719737053,0.004657847341150045,-0.0466548316180706
1761131713862760000,8.263760009765624,-0.022372938692569733,0.00038179077091626823,-0.04237877577543259
1761131713872760000,8.273760009765626,-0.030314188450574875,-0.005115996580570936,-0.03627012297511101
1761131713882760000,8.283760009765626,-0.03520110994577408,-0.007559457328170538,-0.027718011289834976
1761131713892760000,8.293760009765625,-0.033368512988090515,-0.007559457328170538,-0.022831087931990623
1761131713902760000,8.303760009765625,-0.02603813074529171,0.0009926559869199991,-0.025885414332151413
1761131713912760000,8.313760009765625,-0.021762074902653694,0.010155634954571724,-0.027718011289834976
1761131713922760000,8.323760009765625,-0.01687515154480934,0.011988230049610138,-0.025885414332151413
1761131713932760000,8.333760009765625,-0.011988230049610138,0.010766499675810337,-0.0264962799847126
1761131713942760000,8.343760009765624,-0.006490443367511034,0.009544769302010536,-0.025274548679590225
1761131713952760800,8.3537607421875,-0.005879578180611134,0.0022143865935504436,-0.025274548679590225
1761131713962760700,8.3637607421875,-0.010155634954571724,-0.002672535367310047,-0.028328875079751015
1761131713972760800,8.3737607421875,-0.016264287754893303,-0.004505131393671036,-0.03321579843759537
1761131713982760700,8.3837607421875,-0.021151209250092506,-0.002672535367310047,-0.03565925732254982
1761131713992760800,8.3937607421875,-0.022372938692569733,0.0009926559869199991,-0.033826664090156555
1761131714002760700,8.4037607421875,-0.022372938692569733,0.0034361169673502445,-0.025885414332151413
1761131714012760800,8.4137607421875,-0.021151209250092506,0.0022143865935504436,-0.016111571341753006
1761131714022760700,8.4237607421875,-0.018096882849931717,0.005268712528049946,-0.008781188167631626
1761131714032760800,8.4337607421875,-0.01748601719737053,0.011988230049610138,-0.005115996580570936
1761131714042760700,8.4437607421875,-0.012599095702171326,0.009544769302010536,-0.002672535367310047
1761131714052759800,8.453759765625,-0.008933904580771923,0.009544769302010536,-0.005115996580570936
1761131714062760000,8.463760009765625,-0.0034361169673502445,0.006490443367511034,-0.005115996580570936
1761131714072759800,8.473759765625,-0.0034361169673502445,0.005268712528049946,-0.004505131393671036
1761131714082760000,8.483760009765625,-0.0071013085544109344,0.0071013085544109344,-0.010002918541431427
1761131714092759800,8.493759765625,-0.012599095702171326,0.004657847341150045,-0.01488984003663063
1761131714102760000,8.503760009765625,-0.013209961354732513,0.006490443367511034,-0.015500705689191818
1761131714112759800,8.513759765625,-0.010155634954571724,0.010766499675810337,-0.015500705689191818
1761131714122760000,8.523760009765626,-0.006490443367511034,0.008933904580771923,-0.011835514567792416
1761131714132759800,8.533759765625,-0.005879578180611134,0.011377365328371525,-0.0020616701804101467
1761131714142760000,8.543760009765625,-0.011377365328371525,0.013820826075971127,0.013209961354732513
1761131714152760800,8.5537607421875,-0.013209961354732513,0.024816401302814484,0.024205535650253296
1761131714162760700,8.5637607421875,-0.006490443367511034,0.02848159149289131,0.027870727702975273
1761131714172760800,8.5737607421875,0.00022907447419129312,0.019318614155054092,0.02298380434513092
1761131714182760700,8.5837607421875,-0.0034361169673502445,0.002825251780450344,0.013209961354732513
1761131714192760800,8.5937607421875,-0.013820826075971127,-0.010002918541431427,0.005268712528049946
1761131714202760700,8.6037607421875,-0.02298380434513092,-0.01794416643679142,-0.006337726954370737
1761131714212760800,8.6137607421875,-0.027259862050414085,-0.01794416643679142,-0.02038762718439102
1761131714222760700,8.6237607421875,-0.019318614155054092,-0.00939205288887024,-0.022831087931990623
1761131714232760800,8.6337607421875,-0.008933904580771923,0.0009926559869199991,-0.02038762718439102
1761131714242760700,8.6437607421875,-0.013820826075971127,0.01748601719737053,-0.024663684889674187
1761131714252760000,8.653760009765625,-0.0009926559869199991,-0.00022907447419129312,-0.011224648915231228
1761131714262760000,8.663760009765625,0.015500705689191818,0.004657847341150045,0.00038179077091626823
1761131714272759800,8.673759765625,0.01794416643679142,0.005879578180611134,-0.007559457328170538
1761131714282760000,8.683760009765624,0.005726861767470837,0.015653422102332115,-0.022831087931990623
1761131714292759800,8.693759765625,-0.002825251780450344,0.02848159149289131,-0.025885414332151413
1761131714302760000,8.703760009765626,-0.0016035212902352214,0.039477165788412094,-0.016111571341753006
1761131714312759800,8.713759765625,0.0038942659739404917,0.039477165788412094,-0.000839939690195024
1761131714322760000,8.723760009765625,0.006337726954370737,0.03153591975569725,0.015042556449770927
1761131714332759800,8.733759765625,0.00939205288887024,0.02603813074529171,0.02054034359753132
1761131714342760000,8.743760009765625,0.00939205288887024,0.01687515154480934,0.008933904580771923
1761131714352760800,8.7537607421875,0.0038942659739404917,0.00038179077091626823,-0.01366810966283083
1761131714362760700,8.7637607421875,-0.0022143865935504436,-0.013057244941592216,-0.036880988627672195
1761131714372760800,8.7737607421875,-0.009544769302010536,-0.02710714563727379,-0.039324451237916946
1761131714382761000,8.783760986328126,-0.013820826075971127,-0.024052819237113,-0.021609358489513397
1761131714392760800,8.7937607421875,-0.022372938692569733,-0.008781188167631626,-0.002672535367310047
1761131714402761000,8.803760986328125,-0.03214678168296814,0.013820826075971127,0.02298380434513092
1761131714412760800,8.8137607421875,-0.039477165788412094,0.029703322798013687,0.041920628398656845
1761131714422761000,8.823760986328125,-0.04253149405121803,0.024816401302814484,0.05047274008393288
1761131714432760800,8.8337607421875,-0.04558581858873367,0.019318614155054092,0.05291620269417763
1761131714442761000,8.843760986328125,-0.044974952936172485,0.015653422102332115,0.04986187443137169
1761131714452760000,8.853760009765624,-0.04314235970377922,0.010155634954571724,0.05047274008393288
1761131714462760000,8.863760009765626,-0.036422841250896454,-0.002672535367310047,0.05169447138905525
1761131714472760000,8.873760009765626,-0.039477165788412094,-0.016111571341753006,0.04986187443137169
1761131714482760000,8.883760009765625,-0.035811975598335266,-0.022220224142074585,0.04375322163105011
1761131714492760000,8.893760009765625,-0.03825543448328972,-0.022220224142074585,0.024205535650253296
1761131714502760000,8.903760009765625,-0.038866300135850906,-0.030161472037434578,0.016264287754893303
1761131714512760000,8.913760009765625,-0.021762074902653694,-0.04909829422831535,0.019318614155054092
1761131714522760000,8.923760009765624,0.00939205288887024,-0.09613491594791412,0.026648996397852898
1761131714532760000,8.933760009765624,0.03504839166998863,-0.1480584591627121,0.025427265092730522
1761131714542760000,8.943760009765626,0.05520694702863693,-0.20242546498775482,0.018096882849931717
1761131714552760800,8.9537607421875,0.06498079001903534,-0.27145323157310486,0.0071013085544109344
1761131714562760700,8.9637607421875,0.07475463300943375,-0.3337614834308624,-0.005726861767470837
1761131714572760800,8.9737607421875,0.04237877577543259,-0.3392592966556549,-0.02710714563727379
1761131714582760700,8.9837607421875,-0.004657847341150045,-0.3300963044166565,-0.06742425262928009
1761131714592760800,8.9937607421875,-0.030925052240490913,-0.3081051707267761,-0.10041097551584244
1761131714602760700,9.0037607421875,-0.026648996397852898,-0.2842814028263092,-0.12912164628505707
1761131714612760800,9.0137607421875,-0.010766499675810337,-0.3081051707267761,-0.12912164628505707
1761131714622760700,9.0237607421875,0.016111571341753006,-0.35208746790885925,-0.1071304902434349
1761131714632760800,9.0337607421875,0.05337435007095337,-0.354530930519104,-0.08941540122032166
1761131714642760700,9.0437607421875,0.025274548679590225,-0.40767619013786316,-0.08025242388248444
1761131714652760000,9.053760009765625,0.03871358558535576,-0.35758525133132935,-0.04787656292319298
1761131714662760000,9.063760009765625,0.024663684889674187,-0.2934443950653076,-0.0417679101228714
1761131714672759800,9.073759765625,-0.013209961354732513,-0.2335795909166336,-0.05276348441839218
1761131714682760000,9.083760009765625,-0.044974952936172485,-0.152334526181221,-0.03443752974271774
1761131714692760000,9.093760009765624,-0.04253149405121803,-0.07047858089208603,0.00038179077091626823
1761131714702760000,9.103760009765624,-0.01992947794497013,-0.021609358489513397,0.035811975598335266
1761131714712760000,9.113760009765626,0.00939205288887024,0.013209961354732513,0.060246583074331284
1761131714722760000,9.123760009765626,-0.018096882849931717,0.030925052240490913,0.0645226389169693
1761131714732759800,9.133759765625,-0.012599095702171326,0.07307475805282593,0.06574437022209167
1761131714742760000,9.143760009765625,-0.00038179077091626823,0.08712465316057205,0.05535966157913208
1761131714752760800,9.1537607421875,0.008170322515070438,0.07185302674770355,0.033368512988090515
1761131714762760700,9.1637607421875,0.005726861767470837,0.05230533704161644,0.0071013085544109344
1761131714772760800,9.1737607421875,-0.006490443367511034,0.035811975598335266,-0.00939205288887024
1761131714782760700,9.1837607421875,-0.008323038928210735,0.03214678168296814,-0.008781188167631626
1761131714792760800,9.1937607421875,-0.004657847341150045,0.039477165788412094,0.0009926559869199991
1761131714802760700,9.2037607421875,-0.0016035212902352214,0.047418415546417236,0.015042556449770927
1761131714812760800,9.2137607421875,-0.0022143865935504436,0.05535966157913208,0.02848159149289131
1761131714822760700,9.2237607421875,-0.00038179077091626823,0.06574437022209167,0.04008803144097328
1761131714832760800,9.2337607421875,0.0038942659739404917,0.09078984707593918,0.04314235970377922
1761131714842760700,9.2437607421875,0.0069485921412706375,0.10850493609905243,0.039477165788412094
1761131714852759800,9.253759765625,0.010002918541431427,0.11888964474201202,0.0339793786406517
1761131714862760000,9.263760009765624,0.016111571341753006,0.12316570430994034,0.02298380434513092
1761131714872759800,9.273759765625,0.019165897741913795,0.12377656996250153,-0.0038942659739404917
1761131714882760000,9.283760009765626,0.016111571341753006,0.12194397300481796,-0.007559457328170538
1761131714892759800,9.293759765625,0.004505131393671036,0.12377656996250153,0.010155634954571724
1761131714902760000,9.303760009765625,-0.022372938692569733,0.12744176387786865,0.015653422102332115
1761131714912759800,9.313759765625,-0.05535966157913208,0.16226108372211456,0.009544769302010536
1761131714922760000,9.323760009765625,-0.07612907886505127,0.20379991829395294,0.03764457255601883
1761131714932760000,9.333760009765625,-0.12622003257274628,0.15676330029964447,0.06146831437945366
1761131714942760000,9.343760009765624,-0.08895725011825562,0.05169447138905525,-0.018555032089352608
1761131714952760800,9.3537607421875,-0.04069889709353447,0.004657847341150045,-0.04421137273311615
1761131714962760700,9.3637607421875,-0.0022143865935504436,-0.048487428575754166,-0.07414376735687256
1761131714972760800,9.3737607421875,0.0038942659739404917,-0.04360050708055496,-0.09796751290559769
1761131714982760700,9.3837607421875,-0.007712173741310835,-0.03443752974271774,-0.1126282811164856
1761131714992760800,9.3937607421875,-0.01687515154480934,-0.016722436994314194,-0.10285443812608719
1761131715002760700,9.4037607421875,-0.018096882849931717,0.015653422102332115,-0.05581781268119812
