time,seconds_elapsed,z,y,x
1761131748904222000,0.124221923828125,0.06173419952392578,0.10096096992492676,-0.04143029451370239
1761131748934156800,0.15415673828125,0.063232421875,0.09410309791564941,-0.040405452251434326
1761131748944157000,0.164156982421875,0.0636281967163086,0.09222126007080078,-0.0403783917427063
1761131748954156800,0.17415673828125,0.0637063980102539,0.09170770645141602,-0.04087340831756592
1761131748964157200,0.1841572265625,0.06357669830322266,0.09189248085021973,-0.04234892129898071
1761131748974157000,0.194156982421875,0.06338691711425781,0.0924062728881836,-0.04368489980697632
1761131748984157200,0.2041572265625,0.0632171630859375,0.09299683570861816,-0.04443681240081787
1761131748994157000,0.214156982421875,0.06311511993408203,0.0934908390045166,-0.04443919658660889
1761131749004157200,0.2241572265625,0.06292247772216797,0.09447312355041504,-0.04420357942581177
1761131749014157000,0.234156982421875,0.06245613098144531,0.09682297706604004,-0.04378795623779297
1761131749024157200,0.2441572265625,0.06152534484863281,0.10111880302429199,-0.04432743787765503
1761131749034157000,0.254156982421875,0.06007671356201172,0.10763144493103027,-0.04581010341644287
1761131749044155100,0.264155029296875,0.058208465576171875,0.1159367561340332,-0.048197031021118164
1761131749054155300,0.2741552734375,0.05613231658935547,0.12508034706115723,-0.05129516124725342
1761131749064155100,0.284155029296875,0.05420207977294922,0.13351261615753174,-0.05454224348068237
1761131749074155300,0.2941552734375,0.052581787109375,0.14061367511749268,-0.057328224182128906
1761131749084155100,0.304155029296875,0.05131244659423828,0.1463700532913208,-0.0589139461517334
1761131749094155300,0.3141552734375,0.0503997802734375,0.1506725549697876,-0.059512972831726074
1761131749104155100,0.324155029296875,0.04984855651855469,0.1535017490386963,-0.05913203954696655
1761131749114155300,0.3341552734375,0.04970264434814453,0.15469276905059814,-0.057504355907440186
1761131749124155100,0.344155029296875,0.02583026885986328,-0.010452747344970703,0.018082737922668457
1761131749134155300,0.3541552734375,0.026029586791992188,-0.011300444602966309,0.018514931201934814
1761131749144155100,0.364155029296875,-0.0744485855102539,-0.009366989135742188,0.03263193368911743
1761131749154155300,0.3741552734375,-0.17034435272216797,0.03180086612701416,0.03448683023452759
1761131749164155100,0.384155029296875,-0.11804771423339844,0.0646735429763794,-0.0017667412757873535
1761131749174155300,0.3941552734375,-0.017995834350585938,0.03378474712371826,-0.0228540301322937
1761131749184155100,0.404155029296875,0.007808685302734375,0.019898056983947754,0.04502379894256592
1761131749194155300,0.4141552734375,0.12707805633544922,-0.008722782135009766,0.03177148103713989
1761131749204155100,0.424155029296875,0.1817646026611328,-0.02548086643218994,-0.0503077507019043
1761131749214155300,0.4341552734375,0.16715049743652344,-0.05953800678253174,-0.09131395816802979
1761131749224155100,0.444155029296875,0.12151241302490234,-0.04378235340118408,-0.07237488031387329
1761131749234155300,0.4541552734375,0.1142587661743164,0.009733438491821289,-0.04680037498474121
1761131749244154400,0.464154296875,0.11435127258300781,0.00986778736114502,-0.044811129570007324
1761131749254154500,0.474154541015625,0.01638507843017578,0.03348946571350098,-0.10011184215545654
1761131749264154400,0.484154296875,-0.1508007049560547,0.015355348587036133,-0.052459001541137695
1761131749274154500,0.494154541015625,-0.2509279251098633,0.0087507963180542,-0.01551210880279541
1761131749284154400,0.504154296875,-0.1789865493774414,0.020558714866638184,-0.05966907739639282
1761131749294154500,0.514154541015625,-0.1076345443725586,0.006385922431945801,-0.025389015674591064
1761131749304154400,0.524154296875,-0.043926239013671875,-0.0032579898834228516,0.0035929083824157715
1761131749314154500,0.534154541015625,0.014736175537109375,-0.0047370195388793945,-0.0043839216232299805
1761131749324154400,0.544154296875,0.16677474975585938,0.03694772720336914,-0.03129333257675171
1761131749334154500,0.554154541015625,0.21610355377197266,-0.034731507301330566,-0.023562371730804443
1761131749344155100,0.564155029296875,0.1559734344482422,-0.040140748023986816,0.004052698612213135
1761131749354155300,0.5741552734375,0.0747213363647461,-0.018987059593200684,0.0028401613235473633
1761131749364155100,0.584155029296875,0.07513999938964844,-0.02081298828125,0.003710925579071045
1761131749374155300,0.5941552734375,-0.08236408233642578,-0.02307140827178955,-0.050324201583862305
1761131749384155100,0.604155029296875,-0.0795602798461914,0.003840804100036621,-0.06632828712463379
1761131749394155300,0.6141552734375,-0.007550239562988281,0.022334933280944824,-0.07744789123535156
1761131749404155100,0.624155029296875,0.042670249938964844,0.008569121360778809,-0.0956190824508667
1761131749414155300,0.6341552734375,0.04252338409423828,0.009611129760742188,-0.094615638256073
1761131749424155100,0.644155029296875,0.07838153839111328,-0.016103148460388184,-0.08154857158660889
1761131749434155300,0.6541552734375,0.08806228637695312,-0.013880491256713867,-0.07324057817459106
1761131749444154400,0.664154296875,0.05960273742675781,-0.005256295204162598,-0.07673895359039307
1761131749454154500,0.674154541015625,0.03598308563232422,-0.04255986213684082,-0.06884622573852539
1761131749464154400,0.684154296875,0.036210060119628906,-0.012409448623657227,-0.08029943704605103
1761131749474154500,0.694154541015625,0.02202892303466797,-0.05621933937072754,-0.07485944032669067
1761131749484154400,0.704154296875,-0.008902549743652344,-0.023356080055236816,-0.030778348445892334
1761131749494154500,0.714154541015625,-0.04938030242919922,0.011694908142089844,-0.03714483976364136
1761131749504154400,0.724154296875,-0.11135387420654297,0.034551262855529785,-0.06971961259841919
1761131749514154500,0.734154541015625,-0.16843414306640625,0.02336859703063965,-0.052032530307769775
1761131749524154400,0.744154296875,-0.1824016571044922,-0.01680314540863037,-0.027710020542144775
1761131749544155100,0.764155029296875,-0.043395042419433594,-0.0392911434173584,-0.018879473209381104
1761131749554155300,0.7741552734375,0.0854196548461914,-0.022628188133239746,-0.07650601863861084
1761131749564155100,0.784155029296875,0.18529415130615234,-0.004692792892456055,-0.09274125099182129
1761131749574155300,0.7941552734375,0.2135324478149414,-0.016301989555358887,-0.07744711637496948
1761131749584155100,0.804155029296875,0.1320667266845703,-0.018073081970214844,-0.050143659114837646
1761131749594155300,0.8141552734375,0.010373115539550781,-0.017538070678710938,-0.006422817707061768
1761131749604155100,0.824155029296875,0.011067390441894531,-0.02097451686859131,-0.006321430206298828
1761131749614155300,0.8341552734375,-0.10787105560302734,-0.015121102333068848,-0.05140411853790283
1761131749624155100,0.844155029296875,-0.08334541320800781,-0.001034855842590332,-0.10572963953018188
1761131749634155300,0.8541552734375,-0.051901817321777344,-0.009481310844421387,-0.05923944711685181
1761131749644154400,0.864154296875,-0.011106491088867188,-0.004765033721923828,-0.05320185422897339
1761131749654154200,0.874154296875,0.010433197021484375,-0.004463911056518555,-0.052382469177246094
1761131749664154400,0.884154296875,0.017587661743164062,-0.03755509853363037,-0.07541441917419434
1761131749674154200,0.894154296875,0.046296119689941406,-0.027483105659484863,-0.09335511922836304
1761131749684154400,0.904154296875,0.01999378204345703,-0.03444528579711914,-0.06342720985412598
1761131749694154200,0.914154296875,-0.0014820098876953125,-0.04403328895568848,-0.06472879648208618
1761131749704154400,0.924154296875,-0.037288665771484375,-0.05141603946685791,-0.011029183864593506
1761131749714154200,0.934154296875,-0.08019447326660156,-0.018430709838867188,0.021380603313446045
1761131749724154400,0.944154296875,-0.11824417114257812,0.021424174308776855,-0.025145351886749268
1761131749734154200,0.954154296875,-0.14433956146240234,0.0015306472778320312,-0.04767042398452759
1761131749744155100,0.964155029296875,-0.12985515594482422,-0.025071382522583008,-0.0682075023651123
1761131749754155000,0.974155029296875,-0.077301025390625,-0.05057942867279053,-0.02197444438934326
1761131749764155100,0.984155029296875,-0.008160591125488281,-0.08480286598205566,0.017074763774871826
1761131749774155000,0.994155029296875,0.04651355743408203,-0.05617928504943848,-0.005851686000823975
1761131749784155100,1.004155029296875,0.07966899871826172,0.010802626609802246,-0.07844358682632446
1761131749794155000,1.014155029296875,0.05304718017578125,0.0008987188339233398,-0.09323996305465698
1761131749804155100,1.024155029296875,-0.021193504333496094,0.0038644075393676758,-0.05349987745285034
1761131749814154800,1.03415478515625,-0.06894588470458984,-0.02283632755279541,-0.009522616863250732
1761131749824155000,1.04415478515625,-0.061621665954589844,-0.06876921653747559,0.008037030696868896
1761131749834155000,1.054155029296875,-0.061568260192871094,-0.06872940063476562,0.008965849876403809
1761131749844154000,1.064154052734375,-0.042522430419921875,-0.050911784172058105,-0.04213380813598633
1761131749854154000,1.074154052734375,-0.04272651672363281,-0.04922819137573242,-0.040126681327819824
1761131749864154000,1.084154052734375,-0.023822784423828125,-0.020917177200317383,-0.04513603448867798
1761131749874154000,1.094154052734375,0.0023031234741210938,0.009520411491394043,-0.05992192029953003
1761131749884154000,1.104154052734375,-0.02413463592529297,-0.018051981925964355,-0.04603534936904907
1761131749894154000,1.114154052734375,-0.08160877227783203,-0.06776463985443115,0.015303075313568115
1761131749904154000,1.124154052734375,-0.0983877182006836,-0.02659475803375244,-0.04104351997375488
1761131749914154000,1.134154052734375,-0.11522865295410156,-0.013712644577026367,-0.06589508056640625
1761131749924153900,1.14415380859375,-0.1298084259033203,0.011842846870422363,-0.1002379059791565
1761131749934153700,1.15415380859375,-0.08463668823242188,-0.021957874298095703,-0.10350757837295532
1761131749944154600,1.164154541015625,-0.018106460571289062,0.0026302337646484375,-0.023075520992279053
1761131749954154800,1.17415478515625,0.05547046661376953,0.008669853210449219,0.0020365118980407715
1761131749964155000,1.18415478515625,0.1121826171875,0.0031741857528686523,-0.04019862413406372
1761131749974154800,1.19415478515625,0.13779067993164062,0.019065260887145996,-0.027538001537322998
1761131749984155000,1.20415478515625,0.098846435546875,0.015212059020996094,-0.012898147106170654
1761131749994154800,1.21415478515625,0.038491249084472656,0.008154988288879395,-0.012969553470611572
1761131750004155000,1.22415478515625,0.05964469909667969,0.0005908012390136719,0.010990738868713379
1761131750014154800,1.23415478515625,0.0712423324584961,-0.004526257514953613,0.03779715299606323
1761131750024155000,1.24415478515625,0.03025341033935547,0.004406571388244629,-0.011666715145111084
1761131750034154800,1.25415478515625,0.011095046997070312,0.011997103691101074,-0.06084728240966797
1761131750044154000,1.264154052734375,-0.031787872314453125,0.0374598503112793,-0.02192896604537964
1761131750054154000,1.274154052734375,-0.06739330291748047,0.02161717414855957,-0.05998605489730835
1761131750064154000,1.284154052734375,-0.07909679412841797,-0.008365035057067871,-0.06205153465270996
1761131750074154000,1.294154052734375,-0.06933021545410156,-0.01151895523071289,-0.03272700309753418
1761131750084154000,1.304154052734375,-0.035864830017089844,0.0008013248443603516,-0.020543158054351807
1761131750094154000,1.314154052734375,0.07386970520019531,0.02440798282623291,-0.08988481760025024
1761131750104154000,1.324154052734375,0.14264297485351562,0.008678317070007324,-0.11365795135498047
1761131750114154200,1.334154296875,0.18744754791259766,-0.0021518468856811523,-0.0680733323097229
1761131750124154400,1.344154296875,0.17736434936523438,-0.03315019607543945,-0.07066607475280762
1761131750134154200,1.354154296875,0.15085220336914062,-0.03946053981781006,-0.051606059074401855
1761131750144155100,1.364155029296875,0.07435131072998047,-0.023314952850341797,-0.015773236751556396
1761131750154155000,1.374155029296875,-0.02332592010498047,0.019722700119018555,0.010658502578735352
1761131750164155100,1.384155029296875,-0.022558212280273438,0.01605236530303955,0.01137244701385498
1761131750174155000,1.394155029296875,-0.17737388610839844,0.028922200202941895,-0.062190353870391846
1761131750184155100,1.404155029296875,-0.21273231506347656,0.059662580490112305,-0.054871201515197754
1761131750194155000,1.414155029296875,-0.2030954360961914,0.0423130989074707,-0.0772363543510437
1761131750204155100,1.424155029296875,-0.035958290100097656,0.017899632453918457,-0.10951471328735352
1761131750214155000,1.434155029296875,0.11175251007080078,-0.0360867977142334,-0.05036735534667969
1761131750224155100,1.444155029296875,0.20430755615234375,-0.03930008411407471,-0.0006898045539855957
1761131750234155300,1.4541552734375,0.22518253326416016,-0.012141108512878418,-0.010914802551269531
1761131750244154400,1.464154296875,0.16977500915527344,0.015785932540893555,-0.023327946662902832
1761131750254154500,1.474154541015625,0.090850830078125,0.01046907901763916,-0.06190133094787598
1761131750264154400,1.484154296875,-0.025997161865234375,0.06538963317871094,-0.07190126180648804
1761131750274154500,1.494154541015625,-0.032497406005859375,0.059366703033447266,-0.08187973499298096
1761131750284154400,1.504154296875,-0.07017707824707031,0.010607600212097168,-0.02938622236251831
1761131750294154500,1.514154541015625,-0.05778980255126953,-0.008404850959777832,-0.005824387073516846
1761131750304154400,1.524154296875,-0.03136920928955078,-0.013863921165466309,-0.025680065155029297
1761131750314154500,1.534154541015625,0.0235595703125,0.03219461441040039,-0.0452197790145874
1761131750324154400,1.544154296875,0.08324432373046875,0.03778266906738281,-0.09330064058303833
1761131750334154500,1.554154541015625,0.06166648864746094,0.016243934631347656,-0.08892655372619629
1761131750344155100,1.564155029296875,0.033097267150878906,0.0055381059646606445,-0.10656744241714478
1761131750354155300,1.5741552734375,-0.009694099426269531,0.02277088165283203,-0.052583932876586914
1761131750364155100,1.584155029296875,-0.006960868835449219,-0.020125269889831543,-0.008469581604003906
1761131750377543400,1.59754345703125,-0.013863563537597656,-0.017179369926452637,-0.004900217056274414
1761131750387543300,1.607543212890625,-0.02082347869873047,-0.0018311738967895508,0.013425767421722412
1761131750397543400,1.61754345703125,-0.030241012573242188,0.02098262310028076,-0.0018735527992248535
1761131750407543300,1.627543212890625,-0.051605224609375,0.06269145011901855,-0.02237039804458618
1761131750417543400,1.63754345703125,-0.07054328918457031,0.029938697814941406,-0.007193267345428467
1761131750427543300,1.647543212890625,-0.0703744888305664,0.02850472927093506,-0.008895277976989746
1761131750437543400,1.65754345703125,-0.048790931701660156,-0.036843180656433105,0.006309032440185547
1761131750447542500,1.66754248046875,-0.03929615020751953,-0.02737903594970703,0.05023771524429321
1761131750457542700,1.677542724609375,-0.010725021362304688,-0.003210306167602539,0.06527656316757202
1761131750467542500,1.68754248046875,0.02262115478515625,0.009109854698181152,0.04217350482940674
1761131750477542400,1.69754248046875,0.02244853973388672,0.007107138633728027,0.04792100191116333
1761131750487542500,1.70754248046875,0.0007257461547851562,0.031290411949157715,0.053155362606048584
1761131750497542400,1.71754248046875,-0.0042285919189453125,0.03379857540130615,-0.0208510160446167
1761131750507542500,1.72754248046875,0.043501853942871094,0.03872251510620117,-0.029970645904541016
1761131750517542400,1.73754248046875,0.10089492797851562,0.002706289291381836,0.01658010482788086
1761131750527542500,1.74754248046875,0.09856510162353516,-0.04347074031829834,0.04660308361053467
1761131750537542400,1.75754248046875,0.11316585540771484,-0.04007434844970703,0.041212499141693115
1761131750547543300,1.767543212890625,0.075225830078125,-0.003740072250366211,0.016898751258850098
1761131750557543200,1.777543212890625,0.0014629364013671875,0.05127072334289551,-0.05057716369628906
1761131750567543300,1.787543212890625,-0.09134960174560547,0.0673673152923584,-0.08479630947113037
1761131750577543200,1.797543212890625,-0.1459026336669922,0.05723452568054199,-0.0907025933265686
1761131750587543300,1.807543212890625,-0.12644386291503906,0.026503801345825195,-0.056237637996673584
1761131750597543400,1.81754345703125,-0.10958576202392578,-0.01987326145172119,-0.043085455894470215
1761131750607543300,1.827543212890625,-0.06660079956054688,-0.036351561546325684,0.015923619270324707
1761131750617543400,1.83754345703125,-0.009449958801269531,-0.011210203170776367,0.014826774597167969
1761131750627543300,1.847543212890625,0.023627281188964844,-0.021332263946533203,0.0017244219779968262
1761131750637543400,1.85754345703125,0.056616783142089844,0.009486794471740723,0.02389240264892578
1761131750647542500,1.86754248046875,0.06317901611328125,0.031096458435058594,0.026594161987304688
1761131750657542400,1.87754248046875,0.10326480865478516,0.00969552993774414,0.0033056139945983887
1761131750667542500,1.88754248046875,0.12199020385742188,0.00907444953918457,0.04998016357421875
1761131750677542400,1.89754248046875,0.06914901733398438,0.009615898132324219,0.09449702501296997
1761131750687542500,1.90754248046875,-0.01690959930419922,-0.010461926460266113,0.06738346815109253
1761131750697542400,1.91754248046875,-0.07641983032226562,-0.007646083831787109,0.0618593692779541
1761131750707542500,1.92754248046875,-0.05685997009277344,0.028450846672058105,0.03979414701461792
1761131750717542400,1.93754248046875,-0.044653892517089844,0.007907748222351074,0.005639076232910156
1761131750727542500,1.94754248046875,-0.018285751342773438,0.017099380493164062,0.012101471424102783
1761131750737542400,1.95754248046875,0.024680137634277344,0.00539243221282959,0.025240838527679443
1761131750747543300,1.967543212890625,0.07956695556640625,-0.010866165161132812,0.028760790824890137
1761131750757543200,1.977543212890625,0.09614181518554688,-0.036652565002441406,0.017974436283111572
1761131750767543300,1.987543212890625,0.04569244384765625,-0.05785024166107178,0.052279770374298096
1761131750777543400,1.99754345703125,-0.014331817626953125,-0.03135812282562256,0.0739816427230835
1761131750787543300,2.007543212890625,-0.045599937438964844,-0.031389713287353516,0.071597158908844
1761131750797543400,2.01754345703125,-0.04571819305419922,0.0020531415939331055,0.04310905933380127
1761131750807543300,2.027543212890625,-0.02176380157470703,0.013587117195129395,0.06344974040985107
1761131750817543400,2.03754345703125,-0.05269336700439453,-0.02107858657836914,0.06290638446807861
1761131750827543300,2.047543212890625,-0.08347415924072266,-0.006135106086730957,0.06743508577346802
1761131750837543400,2.05754345703125,-0.1285848617553711,0.015719175338745117,0.05008816719055176
1761131750847542500,2.06754248046875,-0.15470027923583984,0.02372431755065918,0.06293255090713501
1761131750857542700,2.077542724609375,-0.10936164855957031,0.0021201372146606445,0.06748580932617188
1761131750867542500,2.08754248046875,0.0025815963745117188,-0.029373764991760254,0.03098827600479126
1761131750877542700,2.097542724609375,0.12380123138427734,-0.004118442535400391,0.05010145902633667
1761131750887542500,2.10754248046875,0.1970043182373047,-0.013907432556152344,0.06505107879638672
1761131750897542700,2.117542724609375,0.2033252716064453,-0.029199838638305664,0.0658339262008667
1761131750907542500,2.12754248046875,0.1668987274169922,-0.01748180389404297,0.0858834981918335
1761131750917542700,2.137542724609375,0.06620216369628906,-0.010096549987792969,0.09619909524917603
1761131750927542500,2.14754248046875,-0.0246124267578125,0.0029376745223999023,0.03948068618774414
1761131750937542700,2.157542724609375,-0.08890628814697266,0.02717912197113037,0.028804123401641846
1761131750947543300,2.167543212890625,-0.10047721862792969,0.024931788444519043,0.03764450550079346
1761131750957543400,2.17754345703125,-0.10733985900878906,0.037428975105285645,0.015253841876983643
1761131750977543400,2.19754345703125,-0.08817481994628906,-0.0038884878158569336,0.0014050602912902832
1761131750987543600,2.20754345703125,-0.04531383514404297,-0.005443572998046875,-0.014101982116699219
1761131750997543400,2.21754345703125,-0.004985809326171875,-0.023020029067993164,-0.04866015911102295
1761131751007543600,2.22754345703125,-0.0053768157958984375,-0.02129065990447998,-0.04947870969772339
1761131751017543400,2.23754345703125,0.03735828399658203,-0.02207505702972412,0.007264673709869385
1761131751027543600,2.24754345703125,0.0394439697265625,-0.006395459175109863,-0.010324358940124512
1761131751037543400,2.25754345703125,0.02728748321533203,0.006322503089904785,-0.02054917812347412
1761131751047542800,2.267542724609375,-0.013564109802246094,-0.01710832118988037,0.031295716762542725
1761131751057542700,2.277542724609375,-0.025696754455566406,-0.007074236869812012,0.025280237197875977
1761131751067542800,2.287542724609375,0.007541656494140625,0.025195002555847168,-0.04268181324005127
1761131751077542700,2.297542724609375,0.021505355834960938,0.010288119316101074,-0.026540398597717285
1761131751087542800,2.307542724609375,0.03544807434082031,0.028944849967956543,-0.0034386515617370605
1761131751097542700,2.317542724609375,0.01833057403564453,0.03774690628051758,0.0006567239761352539
1761131751107542800,2.327542724609375,-0.020177841186523438,0.00039947032928466797,0.01720106601715088
1761131751117542700,2.337542724609375,-0.03459739685058594,0.029330730438232422,0.02173924446105957
1761131751127542800,2.347542724609375,-0.0465545654296875,0.019656062126159668,0.012086093425750732
1761131751137542700,2.357542724609375,0.0012664794921875,0.019913673400878906,-0.012077391147613525
1761131751147543600,2.36754345703125,0.04406452178955078,0.04277479648590088,-0.027115464210510254
1761131751157543700,2.377543701171875,0.1226968765258789,0.03743886947631836,-0.0489160418510437
1761131751167543600,2.38754345703125,0.16300106048583984,0.027570724487304688,-0.007936716079711914
1761131751177543700,2.397543701171875,0.17948532104492188,0.04821348190307617,-0.017235934734344482
1761131751187543600,2.40754345703125,0.10999584197998047,0.034328579902648926,-0.05011266469955444
1761131751197543700,2.417543701171875,0.031375885009765625,0.03499770164489746,-0.058842241764068604
1761131751207543600,2.42754345703125,-0.05901622772216797,0.05621695518493652,-0.053124845027923584
1761131751217543700,2.437543701171875,-0.15653514862060547,0.041295766830444336,-0.08076733350753784
1761131751227543600,2.44754345703125,-0.15604782104492188,0.039086222648620605,-0.08465135097503662
1761131751237543700,2.457543701171875,-0.13426589965820312,0.038185834884643555,-0.05972790718078613
1761131751247542800,2.467542724609375,-0.07936477661132812,0.005716443061828613,-0.027911245822906494
1761131751257542700,2.477542724609375,-0.07989025115966797,0.008498311042785645,-0.027540504932403564
1761131751267542800,2.487542724609375,0.10608959197998047,0.005351543426513672,-0.015162646770477295
1761131751277542700,2.497542724609375,0.14839649200439453,0.016577959060668945,0.025601446628570557
1761131751287542800,2.507542724609375,0.13823795318603516,0.017192840576171875,-0.007802009582519531
1761131751297542700,2.517542724609375,0.10210323333740234,0.02807927131652832,-0.04314035177230835
1761131751307542800,2.527542724609375,0.05440521240234375,0.025063633918762207,-0.00853031873703003
1761131751317542700,2.537542724609375,-0.0001277923583984375,0.018007874488830566,-0.018952488899230957
1761131751327542800,2.547542724609375,-0.05928802490234375,0.026941776275634766,-0.04121667146682739
1761131751337542700,2.557542724609375,-0.10407447814941406,0.01668095588684082,-0.00599217414855957
1761131751347543600,2.56754345703125,-0.10363006591796875,0.03634226322174072,-0.04067063331604004
1761131751357543400,2.57754345703125,-0.055512428283691406,0.04756474494934082,-0.029636085033416748
1761131751367543600,2.58754345703125,0.006801605224609375,0.02852606773376465,-0.06647646427154541
1761131751377543400,2.59754345703125,0.025960922241210938,0.016905903816223145,-0.08917146921157837
1761131751387543600,2.60754345703125,0.05714225769042969,0.004981517791748047,-0.08329099416732788
1761131751397543400,2.61754345703125,0.05731964111328125,0.0020314455032348633,-0.0558319091796875
1761131751407543600,2.62754345703125,0.06472587585449219,-0.02270042896270752,-0.028341293334960938
1761131751417543400,2.63754345703125,0.07931709289550781,0.002890467643737793,-0.02941983938217163
1761131751427543600,2.64754345703125,0.009975433349609375,-0.004353761672973633,-0.03532129526138306
1761131751437543400,2.65754345703125,0.014908790588378906,0.014281153678894043,-0.037016212940216064
1761131751447542500,2.66754248046875,0.0032863616943359375,0.031972646713256836,-0.024030447006225586
1761131751457542700,2.677542724609375,-0.034445762634277344,-0.013600587844848633,0.034863054752349854
1761131751467542500,2.68754248046875,-0.08645153045654297,0.009711265563964844,0.028821229934692383
1761131751477542700,2.697542724609375,-0.13855648040771484,0.007132887840270996,0.008237302303314209
1761131751487542500,2.70754248046875,-0.12625789642333984,-0.013519763946533203,0.03985881805419922
1761131751497542700,2.717542724609375,-0.08073997497558594,-0.01839578151702881,0.09031260013580322
1761131751507542500,2.72754248046875,0.03145885467529297,-0.014351963996887207,0.05195885896682739
1761131751517542700,2.737542724609375,0.11955833435058594,-0.004532575607299805,0.02140522003173828
1761131751527542500,2.74754248046875,0.17415809631347656,-0.004372239112854004,0.03399467468261719
1761131751537542700,2.757542724609375,0.1260843276977539,-0.008017182350158691,0.048922181129455566
1761131751547543600,2.76754345703125,0.06157875061035156,-0.013318181037902832,0.05911380052566528
1761131751557543400,2.77754345703125,0.026029586791992188,-0.005391478538513184,0.050152480602264404
1761131751567543600,2.78754345703125,-0.03092670440673828,0.009107589721679688,0.015187680721282959
1761131751577543400,2.79754345703125,-0.042267799377441406,0.0014699697494506836,0.01867079734802246
1761131751587543600,2.80754345703125,-0.0632467269897461,0.003592371940612793,0.03368467092514038
1761131751597543400,2.81754345703125,-0.0866994857788086,-0.00830996036529541,0.05330395698547363
1761131751607543600,2.82754345703125,-0.08631515502929688,-0.02213442325592041,0.04638087749481201
1761131751617543400,2.83754345703125,-0.08130550384521484,-0.001582503318786621,0.02043461799621582
1761131751627543600,2.84754345703125,-0.023825645446777344,-0.011087298393249512,-0.026906311511993408
1761131751637543400,2.85754345703125,0.021474838256835938,0.004294395446777344,-0.04585909843444824
1761131751647542500,2.86754248046875,0.03081798553466797,0.012713193893432617,-0.009744822978973389
1761131751657542700,2.877542724609375,0.021117210388183594,-0.06567800045013428,0.05725950002670288
1761131751667542500,2.88754248046875,-0.000392913818359375,-0.027695417404174805,0.06638914346694946
1761131751677542700,2.897542724609375,-0.007521629333496094,-0.02323782444000244,0.011145055294036865
1761131751687542500,2.90754248046875,-0.0074901580810546875,-0.023405790328979492,0.011119723320007324
1761131751697542700,2.917542724609375,-0.06248950958251953,-0.004609584808349609,-0.01290065050125122
1761131751707542500,2.92754248046875,-0.06243610382080078,-0.005017518997192383,-0.013335227966308594
1761131751717542700,2.937542724609375,-0.06968879699707031,-0.004967093467712402,0.028791487216949463
1761131751727542500,2.94754248046875,-0.07956314086914062,-0.001354813575744629,0.032692134380340576
1761131751737542700,2.957542724609375,-0.048827171325683594,0.012488007545471191,0.04196065664291382
1761131751747543300,2.967543212890625,-0.030155181884765625,0.0100480318069458,0.008174538612365723
1761131751757543400,2.97754345703125,-0.030625343322753906,0.021880149841308594,-0.00657963752746582
1761131751767543300,2.987543212890625,-0.03579998016357422,-0.012232661247253418,-0.014248907566070557
1761131751777543400,2.99754345703125,-0.028924942016601562,-0.008391976356506348,-0.0050199031829833984
1761131751787543300,3.007543212890625,-0.021892547607421875,-0.029163479804992676,-0.016947031021118164
1761131751797543400,3.01754345703125,-0.022024154663085938,0.0003267526626586914,-0.04061102867126465
1761131751807543300,3.027543212890625,-0.01264190673828125,-0.020169496536254883,-0.05476081371307373
1761131751817543400,3.03754345703125,-0.02961444854736328,-0.0165712833404541,-0.04719412326812744
1761131751827543300,3.047543212890625,-0.04901123046875,-0.029614925384521484,-0.09477949142456055
1761131751837543400,3.05754345703125,-0.04450702667236328,-0.020921826362609863,-0.10176897048950195
1761131751847542500,3.06754248046875,-0.08304023742675781,-0.012410163879394531,-0.10119086503982544
1761131751857542700,3.077542724609375,-0.16708087921142578,-0.07326531410217285,-0.02888667583465576
1761131751867542500,3.08754248046875,-0.1793966293334961,-0.04517817497253418,-0.024116814136505127
1761131751877542700,3.097542724609375,-0.1559915542602539,0.007781863212585449,-0.04824495315551758
1761131751887542500,3.10754248046875,-0.0489654541015625,-0.0005925893783569336,-0.10106855630874634
1761131751897542700,3.117542724609375,-0.02356719970703125,-0.019600749015808105,-0.05994361639022827
1761131751907542500,3.12754248046875,-0.019751548767089844,-0.04571175575256348,0.011928021907806396
1761131751917542700,3.137542724609375,-0.015974044799804688,-0.033480048179626465,0.047335147857666016
1761131751927542500,3.14754248046875,0.00934600830078125,-0.01882946491241455,0.03000873327255249
1761131751937542700,3.157542724609375,0.008391380310058594,-0.013970494270324707,0.029738664627075195
1761131751947543600,3.16754345703125,0.024352073669433594,-0.009738564491271973,-0.03224128484725952
1761131751957543400,3.17754345703125,0.035675048828125,0.0033799409866333008,-0.04128623008728027
1761131751967543600,3.18754345703125,0.03280925750732422,0.015634775161743164,-0.02863401174545288
1761131751987543600,3.20754345703125,0.020033836364746094,0.03197658061981201,-0.04728221893310547
1761131751997543400,3.21754345703125,0.07938957214355469,0.027460336685180664,-0.059081435203552246
1761131752007543600,3.22754345703125,0.1745738983154297,0.042488813400268555,-0.07584506273269653
1761131752017543400,3.23754345703125,0.1931285858154297,0.04322969913482666,-0.047153592109680176
1761131752027543600,3.24754345703125,0.16149234771728516,-0.0021065473556518555,0.009859859943389893
1761131752037543400,3.25754345703125,0.1513996124267578,0.014589428901672363,0.03260928392410278
1761131752047542500,3.26754248046875,0.1365365982055664,0.0335845947265625,0.024221479892730713
1761131752057542700,3.277542724609375,0.11940479278564453,0.006538867950439453,0.023366332054138184
1761131752067542500,3.28754248046875,0.08092498779296875,0.03373289108276367,0.030363500118255615
1761131752077542700,3.297542724609375,0.04506206512451172,0.05026447772979736,-0.02219313383102417
1761131752087542800,3.307542724609375,0.0046443939208984375,0.056086063385009766,-0.057673871517181396
1761131752097542700,3.317542724609375,-0.07869720458984375,0.03461861610412598,-0.031062602996826172
1761131752107542800,3.327542724609375,-0.1499919891357422,0.038854122161865234,0.009204268455505371
1761131752117542700,3.337542724609375,-0.18558406829833984,0.03674042224884033,0.0366055965423584
1761131752127542800,3.347542724609375,-0.10196399688720703,0.030002593994140625,0.013536512851715088
1761131752137542700,3.357542724609375,0.02435588836669922,0.03022921085357666,-0.004427909851074219
1761131752147543600,3.36754345703125,0.128997802734375,0.014545679092407227,-0.005163788795471191
1761131752157543400,3.37754345703125,0.1978130340576172,0.01520681381225586,-0.039334237575531006
1761131752167543600,3.38754345703125,0.2094268798828125,0.026417851448059082,0.0005803108215332031
1761131752177543400,3.39754345703125,0.17113971710205078,-0.014566421508789062,-0.0047536492347717285
1761131752187543600,3.40754345703125,0.12602519989013672,-0.026218533515930176,-0.000263214111328125
1761131752197543400,3.41754345703125,0.07876968383789062,-0.019914627075195312,-0.03123551607131958
1761131752207543600,3.42754345703125,0.07943916320800781,-0.023387670516967773,-0.03106015920639038
1761131752217543400,3.43754345703125,-0.01572704315185547,0.016495108604431152,-0.04795944690704346
1761131752227543600,3.44754345703125,-0.0391998291015625,0.011465787887573242,-0.02216041088104248
1761131752237543400,3.45754345703125,-0.03888416290283203,0.009507298469543457,-0.02310323715209961
1761131752247542500,3.46754248046875,-0.05058860778808594,-0.004101872444152832,-0.02865290641784668
1761131752257542700,3.477542724609375,-0.05750083923339844,0.0014986991882324219,-0.010033905506134033
1761131752267542500,3.48754248046875,-0.05238819122314453,-0.0170518159866333,-0.027089953422546387
1761131752277542700,3.497542724609375,-0.059200286865234375,-0.014268875122070312,-0.027294397354125977
1761131752287542500,3.50754248046875,-0.0635995864868164,-0.03546309471130371,-0.012968301773071289
1761131752297542700,3.517542724609375,-0.04411506652832031,-0.0013232231140136719,0.006033957004547119
1761131752307542500,3.52754248046875,-0.03434467315673828,-0.004834890365600586,-0.027837157249450684
1761131752317542700,3.537542724609375,0.0016736984252929688,0.008839607238769531,-0.018713057041168213
1761131752327542500,3.54754248046875,0.01607036590576172,0.0037708282470703125,0.031203508377075195
1761131752337542700,3.557542724609375,-0.024602890014648438,-0.0037244558334350586,0.059389352798461914
1761131752347543600,3.56754345703125,-0.02933216094970703,-0.01619136333465576,0.04443180561065674
1761131752357543400,3.57754345703125,-0.03641319274902344,-0.012058496475219727,0.1086607277393341
1761131752367543600,3.58754345703125,0.011468887329101562,-0.019391655921936035,0.05548352003097534
1761131752377543400,3.59754345703125,0.044816017150878906,0.0006197690963745117,0.03142416477203369
1761131752387543600,3.60754345703125,0.08043098449707031,-0.00990283489227295,0.031098008155822754
1761131752397543400,3.61754345703125,0.12798213958740234,-0.025144100189208984,0.05675387382507324
1761131752407543600,3.62754345703125,0.1565389633178711,-0.0004429817199707031,0.06824982166290283
1761131752417543400,3.63754345703125,0.17093181610107422,-0.03415215015411377,0.051346778869628906
1761131752427543600,3.64754345703125,0.15447711944580078,-0.009285688400268555,0.020596206188201904
1761131752437543400,3.65754345703125,0.12391853332519531,0.004743099212646484,0.0021287202835083008
1761131752447542500,3.66754248046875,0.033738136291503906,0.015127778053283691,-0.004487752914428711
1761131752457542700,3.677542724609375,-0.08988475799560547,0.017766237258911133,-0.011709272861480713
1761131752467542500,3.68754248046875,-0.17047977447509766,0.010883808135986328,-0.003124535083770752
1761131752477542700,3.697542724609375,-0.19144344329833984,0.02889072895050049,-0.002434849739074707
1761131752487542500,3.70754248046875,-0.1912250518798828,0.0272599458694458,-0.004072070121765137
1761131752497542700,3.717542724609375,-0.1314859390258789,-0.003827810287475586,-0.013088583946228027
1761131752507542500,3.72754248046875,-0.1318349838256836,-0.0025343894958496094,-0.014757335186004639
1761131752517542700,3.737542724609375,-0.007752418518066406,-0.008079886436462402,0.08415412902832031
1761131752527542500,3.74754248046875,-0.010422706604003906,0.0024564266204833984,0.1233178973197937
1761131752537542700,3.757542724609375,-0.0010690689086914062,0.04134500026702881,0.0759345293045044
1761131752547543600,3.76754345703125,0.02506256103515625,0.032225847244262695,0.035668909549713135
1761131752557543400,3.77754345703125,0.0751485824584961,0.030383706092834473,0.03660005331039429
1761131752567543600,3.78754345703125,0.1228799819946289,0.040447115898132324,0.03559774160385132
1761131752577543400,3.79754345703125,0.12282657623291016,0.0189969539642334,0.023028671741485596
1761131752587543600,3.80754345703125,0.06795501708984375,0.02022719383239746,-0.022979676723480225
1761131752597543400,3.81754345703125,0.06827449798583984,0.01118481159210205,-0.033246517181396484
1761131752607543600,3.82754345703125,0.04000377655029297,0.020713329315185547,-0.03829658031463623
1761131752617543400,3.83754345703125,-0.004990577697753906,-0.02501201629638672,-0.026596009731292725
1761131752627543600,3.84754345703125,-0.028481483459472656,0.013040304183959961,-0.030099689960479736
1761131752637543400,3.85754345703125,-0.0185546875,0.03960371017456055,-0.062467098236083984
1761131752647542500,3.86754248046875,0.0008306503295898438,0.023846864700317383,-0.05357825756072998
1761131752657542700,3.877542724609375,0.008129119873046875,0.025533676147460938,-0.03480929136276245
1761131752667542500,3.88754248046875,-0.00379180908203125,0.017959237098693848,-0.02329188585281372
1761131752677542700,3.897542724609375,-0.020448684692382812,0.0005263090133666992,-0.02858811616897583
1761131752687542500,3.90754248046875,-0.037003517150878906,0.013764619827270508,0.011850953102111816
1761131752697542700,3.917542724609375,-0.03661918640136719,-0.016869306564331055,-0.023854732513427734
1761131752707542500,3.92754248046875,-0.0528411865234375,0.026154160499572754,-0.02768653631210327
1761131752717542700,3.937542724609375,-0.11207866668701172,0.05202758312225342,-0.03627371788024902
1761131752727542500,3.94754248046875,-0.11159706115722656,0.049741387367248535,-0.03570723533630371
1761131752737542700,3.957542724609375,-0.13764667510986328,0.024407625198364258,-0.040275514125823975
1761131752747543600,3.96754345703125,-0.09689521789550781,0.0074384212493896484,-0.013776183128356934
1761131752757543400,3.97754345703125,0.015423774719238281,0.010985732078552246,-0.0014870762825012207
1761131752767543300,3.987543212890625,0.10359001159667969,-0.020256757736206055,-0.027342140674591064
1761131752777543400,3.99754345703125,0.127044677734375,-0.017572641372680664,-0.00034618377685546875
1761131752787543600,4.00754345703125,0.11478900909423828,-0.006304383277893066,-0.00671011209487915
1761131752797543400,4.01754345703125,0.0645914077758789,-0.016044259071350098,-0.025034189224243164
1761131752807543300,4.027543212890625,0.05540180206298828,0.006197929382324219,-0.0049509406089782715
1761131752817543400,4.03754345703125,0.027207374572753906,0.01821279525756836,-0.03957885503768921
1761131752827543600,4.04754345703125,-0.02969646453857422,0.02542436122894287,-0.03560906648635864
1761131752837543400,4.05754345703125,-0.029150962829589844,0.023026466369628906,-0.03434509038925171
1761131752847542500,4.06754248046875,-0.07419204711914062,0.06659197807312012,-0.08103704452514648
1761131752857542700,4.077542724609375,-0.0738067626953125,0.06518065929412842,-0.07920897006988525
1761131752867542500,4.08754248046875,0.01752758026123047,-0.01729750633239746,-0.04089587926864624
1761131752877542700,4.097542724609375,0.0035266876220703125,-0.02078568935394287,-0.033611178398132324
1761131752887542500,4.10754248046875,0.008691787719726562,0.006703615188598633,-0.060138165950775146
1761131752897542700,4.117542724609375,-0.03879833221435547,0.0316615104675293,-0.07006728649139404
1761131752907542500,4.12754248046875,-0.033725738525390625,0.04027855396270752,-0.05413210391998291
1761131752917542700,4.137542724609375,-0.021633148193359375,0.037776827812194824,-0.04049825668334961
1761131752927542500,4.14754248046875,0.023810386657714844,0.04101741313934326,-0.05526173114776611
1761131752937542700,4.157542724609375,0.0740203857421875,0.01576375961303711,-0.02412170171737671
1761131752947543300,4.167543212890625,0.07402610778808594,0.014143586158752441,0.014391124248504639
1761131752957543400,4.17754345703125,0.031157493591308594,-0.007759571075439453,0.04806625843048096
1761131752967543600,4.18754345703125,-0.03297615051269531,-0.012022256851196289,0.040779709815979004
1761131752977543400,4.19754345703125,-0.1113119125366211,-0.0075836181640625,0.045298218727111816
1761131752987543600,4.20754345703125,-0.15140724182128906,0.0018981695175170898,0.07105278968811035
1761131752997543400,4.21754345703125,-0.12228679656982422,-0.028267383575439453,0.04641491174697876
1761131753007543600,4.22754345703125,-0.031241416931152344,-0.016080141067504883,0.06491601467132568
1761131753017543400,4.23754345703125,0.07616138458251953,-0.0018323659896850586,0.040414273738861084
1761131753027543600,4.24754345703125,0.07562541961669922,0.0016437768936157227,0.042850494384765625
1761131753037543400,4.25754345703125,0.2068920135498047,-0.01931297779083252,0.024112701416015625
1761131753047542500,4.26754248046875,0.2068319320678711,-0.01814734935760498,0.026790976524353027
1761131753057542700,4.277542724609375,0.11640453338623047,-0.0296938419342041,0.026978790760040283
1761131753067542500,4.28754248046875,0.06926727294921875,-0.027900099754333496,-0.0376436710357666
1761131753077542700,4.297542724609375,-0.004105567932128906,-0.014470458030700684,-0.02515101432800293
1761131753087542500,4.30754248046875,-0.09189510345458984,-0.017587900161743164,-0.010420560836791992
1761131753097542700,4.317542724609375,-0.1272411346435547,-0.0005729198455810547,-0.03215736150741577
1761131753107542500,4.32754248046875,-0.10544204711914062,0.04432785511016846,-0.06361031532287598
1761131753117542700,4.337542724609375,-0.10543251037597656,0.05449628829956055,-0.04730081558227539
1761131753127542500,4.34754248046875,-0.09357643127441406,0.014880537986755371,-0.005052685737609863
1761131753137542700,4.357542724609375,-0.08898353576660156,-0.0005197525024414062,0.027207136154174805
1761131753147543600,4.36754345703125,-0.07735347747802734,0.03500163555145264,0.0304754376411438
1761131753157543400,4.37754345703125,-0.025213241577148438,0.03546953201293945,0.04537069797515869
1761131753167543600,4.38754345703125,0.024379730224609375,0.041443824768066406,0.06727039813995361
1761131753177543400,4.39754345703125,0.09552383422851562,0.03558206558227539,0.0776292085647583
1761131753187543600,4.40754345703125,0.17153072357177734,0.06774985790252686,0.03799623250961304
1761131753197543400,4.41754345703125,0.19749736785888672,0.058193087577819824,0.01566612720489502
1761131753207543600,4.42754345703125,0.16880226135253906,0.05151200294494629,-0.0038399696350097656
1761131753217543400,4.43754345703125,0.07831954956054688,0.023435473442077637,-0.020668625831604004
1761131753227543600,4.44754345703125,0.014477729797363281,0.020154118537902832,-0.0686231255531311
1761131753237543400,4.45754345703125,0.029656410217285156,0.0022416114807128906,-0.0453794002532959
1761131753247542500,4.46754248046875,0.056654930114746094,-0.02695286273956299,-0.0391387939453125
1761131753257542700,4.477542724609375,0.10260772705078125,-0.005017399787902832,0.02168428897857666
1761131753267542500,4.48754248046875,0.1267709732055664,-0.010808587074279785,-0.023457229137420654
1761131753277542700,4.497542724609375,0.13637733459472656,0.0059206485748291016,-0.08534890413284302
1761131753287542500,4.50754248046875,0.11002826690673828,0.027608036994934082,-0.10190010070800781
1761131753297542700,4.517542724609375,0.047943115234375,-0.025830507278442383,-0.04663121700286865
1761131753307542500,4.52754248046875,0.012407302856445312,-0.058799147605895996,-0.020137667655944824
1761131753317542700,4.537542724609375,-0.027762413024902344,-0.06622803211212158,0.01828664541244507
1761131753327542500,4.54754248046875,-0.05820465087890625,-0.04785633087158203,0.026215732097625732
1761131753337542700,4.557542724609375,-0.1459951400756836,-0.017950892448425293,0.04169571399688721
1761131753347543600,4.56754345703125,-0.21209430694580078,0.001603841781616211,0.04022246599197388
1761131753357543400,4.57754345703125,-0.2759733200073242,0.00016927719116210938,0.023445427417755127
1761131753367543600,4.58754345703125,-0.2923727035522461,0.026755094528198242,0.010420560836791992
1761131753377543400,4.59754345703125,-0.21357440948486328,-0.003863811492919922,0.004033803939819336
1761131753387543300,4.607543212890625,-0.04671955108642578,-0.03417646884918213,0.028911471366882324
1761131753397543400,4.61754345703125,0.1557626724243164,-0.04612743854522705,-0.0007556676864624023
1761131753407543300,4.627543212890625,0.2649393081665039,-0.06534171104431152,-0.0033617615699768066
1761131753417543400,4.63754345703125,0.29074573516845703,-0.07694745063781738,0.0160791277885437
1761131753427543300,4.647543212890625,0.1830463409423828,-0.02906036376953125,0.016687095165252686
1761131753437543400,4.65754345703125,0.02318572998046875,-0.02453303337097168,0.01700592041015625
1761131753447542500,4.66754248046875,-0.08613109588623047,0.02637004852294922,-0.04783749580383301
1761131753457542700,4.677542724609375,-0.13561058044433594,0.029454946517944336,-0.05770266056060791
1761131753467542500,4.68754248046875,-0.058467864990234375,0.02193284034729004,-0.09391069412231445
1761131753477542700,4.697542724609375,-0.017564773559570312,0.02073812484741211,-0.0657508373260498
1761131753487542500,4.70754248046875,0.020692825317382812,-0.01759803295135498,-0.06417149305343628
1761131753497542700,4.717542724609375,0.05656623840332031,-0.005573630332946777,-0.0813603401184082
1761131753507542500,4.72754248046875,0.058960914611816406,0.015842199325561523,-0.08174461126327515
1761131753517542700,4.737542724609375,-0.007851600646972656,0.026587486267089844,-0.12756025791168213
1761131753527542500,4.74754248046875,-0.07938861846923828,0.04155528545379639,-0.1286170482635498
1761131753537542700,4.757542724609375,-0.14615154266357422,0.042178988456726074,-0.12981420755386353
1761131753547543300,4.767543212890625,-0.11964130401611328,0.012185096740722656,-0.0879216194152832
1761131753557543400,4.77754345703125,-0.0837249755859375,0.011901140213012695,-0.08156096935272217
1761131753567543300,4.787543212890625,-0.033555030822753906,-0.009148120880126953,-0.10321986675262451
1761131753577543400,4.79754345703125,-0.016928672790527344,-0.0012276172637939453,-0.11019235849380493
1761131753587543300,4.807543212890625,-0.029001235961914062,0.006385684013366699,-0.1151968240737915
1761131753597543400,4.81754345703125,-0.03856372833251953,-0.0057604312896728516,-0.07480156421661377
1761131753607543600,4.82754345703125,-0.06249809265136719,-0.015622377395629883,-0.08272433280944824
1761131753617543400,4.83754345703125,-0.06494998931884766,-0.0060395002365112305,-0.04049474000930786
1761131753627543600,4.84754345703125,-0.05076313018798828,-0.012617707252502441,-0.04854893684387207
1761131753637543400,4.85754345703125,-0.010364532470703125,0.00783395767211914,-0.05156290531158447
1761131753647542500,4.86754248046875,0.03951263427734375,-0.0047075748443603516,-0.059282124042510986
1761131753657542700,4.877542724609375,0.07502174377441406,-0.012452840805053711,-0.04547297954559326
1761131753667542500,4.88754248046875,0.048424720764160156,-0.04492044448852539,-0.007931053638458252
1761131753677542700,4.897542724609375,0.017192840576171875,-0.01836550235748291,0.003091752529144287
1761131753687542500,4.90754248046875,-0.011555671691894531,-0.004243612289428711,-0.033858299255371094
1761131753697542700,4.917542724609375,-0.04267692565917969,0.031282901763916016,-0.023015916347503662
1761131753707542500,4.92754248046875,-0.08342742919921875,-0.016777753829956055,-0.03865838050842285
1761131753717542700,4.937542724609375,-0.07634258270263672,-0.0022429227828979492,0.013023614883422852
1761131753727542500,4.94754248046875,-0.09564971923828125,0.0053064823150634766,0.021374404430389404
1761131753737542700,4.957542724609375,-0.09588241577148438,0.006033658981323242,-0.025468945503234863
1761131753747543300,4.967543212890625,-0.0556182861328125,0.04372715950012207,-0.07697999477386475
1761131753757543400,4.97754345703125,-0.005917549133300781,0.04630887508392334,-0.08511221408843994
1761131753767543300,4.987543212890625,0.04851531982421875,0.02289736270904541,-0.07151639461517334
1761131753777543400,4.99754345703125,0.06219959259033203,-0.00048542022705078125,0.0012715458869934082
1761131753787543300,5.007543212890625,0.04705238342285156,0.002673029899597168,0.046766817569732666
1761131753797543400,5.01754345703125,0.02227020263671875,-0.010793685913085938,0.09413087368011475
1761131753807543300,5.027543212890625,-0.012078285217285156,-0.00759732723236084,0.09105867147445679
1761131753817543400,5.03754345703125,-0.01760387420654297,0.01215362548828125,0.02172797918319702
1761131753827543300,5.047543212890625,-0.03003692626953125,0.00216519832611084,-0.02726954221725464
1761131753837543400,5.05754345703125,-0.05653572082519531,-0.016300439834594727,-0.03247159719467163
1761131753847542500,5.06754248046875,-0.08279132843017578,-0.019181132316589355,0.015166044235229492
1761131753857542700,5.077542724609375,-0.12331581115722656,-0.02018260955810547,-0.016292691230773926
1761131753867542500,5.08754248046875,-0.13519001007080078,-0.008859395980834961,-0.05746942758560181
1761131753877542700,5.097542724609375,-0.1185007095336914,0.015229582786560059,-0.0892571210861206
1761131753887542500,5.10754248046875,-0.10922527313232422,0.011690616607666016,-0.08772152662277222
1761131753897542700,5.117542724609375,-0.04752063751220703,0.004587292671203613,-0.059897422790527344
1761131753907542500,5.12754248046875,0.00673675537109375,-0.04181694984436035,-0.03908848762512207
1761131753917542700,5.137542724609375,0.06800079345703125,-0.07524251937866211,0.006001770496368408
1761131753927542500,5.14754248046875,0.13156509399414062,-0.06277632713317871,0.04122340679168701
1761131753937542700,5.157542724609375,0.12094593048095703,-0.03611135482788086,0.03336268663406372
1761131753947543300,5.167543212890625,0.07460308074951172,0.0014560222625732422,-0.02990657091140747
1761131753957543400,5.17754345703125,-0.019519805908203125,0.006786227226257324,0.019895553588867188
1761131753967543600,5.18754345703125,-0.10155105590820312,-0.024902939796447754,-0.08505195379257202
1761131753977543400,5.19754345703125,-0.04696369171142578,-0.023736000061035156,0.08798712491989136
1761131753987543300,5.207543212890625,-0.011517524719238281,0.004638552665710449,0.0006400346755981445
1761131753997543400,5.21754345703125,0.02863311767578125,0.00982820987701416,0.036389708518981934
1761131754007543300,5.227543212890625,0.023164749145507812,0.03696465492248535,0.018602848052978516
1761131754017543400,5.23754345703125,0.02258014678955078,0.05166804790496826,0.07751959562301636
1761131754027543300,5.247543212890625,0.019681930541992188,0.06350934505462646,0.07163691520690918
1761131754037543400,5.25754345703125,0.021486282348632812,0.03710579872131348,0.1195593774318695
1761131754047542500,5.26754248046875,0.016145706176757812,0.0273740291595459,0.09360671043395996
1761131754057542700,5.277542724609375,0.015594482421875,0.029911398887634277,0.09255379438400269
1761131754067542500,5.28754248046875,0.09643936157226562,0.059178829193115234,0.054311931133270264
1761131754077542700,5.297542724609375,0.08634185791015625,0.05938887596130371,0.022814810276031494
1761131754087542500,5.30754248046875,0.02376079559326172,0.06083512306213379,0.06498360633850098
1761131754097542700,5.317542724609375,0.02852916717529297,0.027019262313842773,0.06131184101104736
1761131754107542500,5.32754248046875,0.014391899108886719,0.01132190227508545,0.053688645362854004
1761131754117542700,5.337542724609375,-0.0139617919921875,0.023726701736450195,0.02257925271987915
1761131754127542500,5.34754248046875,-0.0758047103881836,0.014478683471679688,0.02515655755996704
1761131754137542700,5.357542724609375,-0.07791614532470703,0.06305289268493652,0.017250537872314453
1761131754147543300,5.367543212890625,-0.030023574829101562,0.0459214448928833,-0.05324816703796387
1761131754157543400,5.37754345703125,0.08457660675048828,0.032918453216552734,-0.056640625
1761131754167543300,5.387543212890625,0.15590572357177734,0.018539071083068848,-0.014223098754882812
1761131754177543400,5.39754345703125,0.1960906982421875,-0.01245582103729248,0.028289437294006348
1761131754187543300,5.407543212890625,0.1837615966796875,-0.022799015045166016,0.027527689933776855
1761131754197543400,5.41754345703125,0.09023666381835938,-0.036643385887145996,0.0529789924621582
1761131754207543300,5.427543212890625,0.03283214569091797,-0.0037549734115600586,-0.0031708478927612305
1761131754217543400,5.43754345703125,-0.033881187438964844,0.013558149337768555,0.029877841472625732
1761131754227543300,5.447543212890625,-0.07421112060546875,0.030722856521606445,0.051286399364471436
1761131754237543400,5.45754345703125,-0.10743141174316406,0.02205681800842285,0.0012404918670654297
1761131754247542500,5.46754248046875,-0.13360023498535156,0.03563094139099121,-0.0008719563484191895
1761131754257542700,5.477542724609375,-0.07619762420654297,0.05023181438446045,-0.005912899971008301
1761131754267542500,5.48754248046875,-0.045386314392089844,-0.024926066398620605,0.05099302530288696
1761131754277542700,5.497542724609375,-0.06745529174804688,-0.12057852745056152,0.06944078207015991
1761131754287542500,5.50754248046875,0.02542877197265625,-0.09650397300720215,0.004696011543273926
1761131754297542700,5.517542724609375,0.15439987182617188,0.0275191068649292,-0.04471677541732788
1761131754307542500,5.52754248046875,0.12084579467773438,0.025492548942565918,-0.017797231674194336
1761131754317542700,5.537542724609375,0.030063629150390625,-0.02129065990447998,-0.01863420009613037
1761131754327542500,5.54754248046875,0.0016717910766601562,-0.004263877868652344,0.011358439922332764
1761131754337542700,5.557542724609375,-0.017093658447265625,-0.027873873710632324,0.013631582260131836
1761131754347543600,5.56754345703125,-0.02625751495361328,0.018233537673950195,-0.047385573387145996
1761131754357543400,5.57754345703125,-0.011423110961914062,0.07379388809204102,-0.05519527196884155
1761131754367543600,5.58754345703125,-0.025386810302734375,0.05280625820159912,-0.03758901357650757
1761131754377543400,5.59754345703125,-0.0848836898803711,-0.013875484466552734,0.019295096397399902
1761131754387543300,5.607543212890625,-0.0702676773071289,0.039652466773986816,0.008969783782958984
1761131754397543400,5.61754345703125,0.013677597045898438,0.0510329008102417,-0.014396429061889648
1761131754407543300,5.627543212890625,-0.010170936584472656,0.0463179349899292,0.0520593523979187
1761131754417543400,5.63754345703125,-0.05802631378173828,0.05619347095489502,0.09421348571777344
1761131754427543600,5.64754345703125,-0.038880348205566406,0.10196447372436523,0.10456368327140808
1761131754437543400,5.65754345703125,0.00177001953125,0.05687665939331055,0.08106052875518799
1761131754447542500,5.66754248046875,0.0231781005859375,0.00967717170715332,0.03784745931625366
1761131754457542700,5.677542724609375,0.023016929626464844,0.010650992393493652,0.038263678550720215
1761131754467542500,5.68754248046875,0.17375946044921875,0.08082592487335205,-0.003986477851867676
1761131754477542700,5.697542724609375,0.1044301986694336,0.025572657585144043,0.013886511325836182
1761131754487542500,5.70754248046875,0.06409645080566406,0.014455914497375488,0.019871830940246582
1761131754497542700,5.717542724609375,0.062347412109375,0.009142637252807617,0.06437736749649048
1761131754507542500,5.72754248046875,0.010472297668457031,0.010154247283935547,0.043964922428131104
1761131754517542700,5.737542724609375,-0.05338478088378906,-0.0007857084274291992,0.013826966285705566
1761131754527542500,5.74754248046875,-0.059986114501953125,-0.01551973819732666,-0.028495609760284424
1761131754537542700,5.757542724609375,-0.040541648864746094,0.002527594566345215,-0.02482473850250244
1761131754547543600,5.76754345703125,0.07194709777832031,0.0007910728454589844,-0.03534984588623047
1761131754557543400,5.77754345703125,0.12678241729736328,0.004958629608154297,0.000014424324035644531
1761131754567543600,5.78754345703125,0.14328956604003906,0.028396129608154297,-0.03404515981674194
1761131754577543400,5.79754345703125,0.17673778533935547,0.022161483764648438,-0.02502000331878662
1761131754587543600,5.80754345703125,0.1458454132080078,-0.00011277198791503906,-0.013959765434265137
1761131754597543400,5.81754345703125,0.10096359252929688,-0.040997862815856934,-0.016974806785583496
1761131754607543600,5.82754345703125,0.05640602111816406,-0.05461931228637695,-0.03852498531341553
1761131754617543400,5.83754345703125,-0.031042098999023438,-0.033211469650268555,-0.07872378826141357
1761131754627543600,5.84754345703125,-0.15906715393066406,-0.002713799476623535,-0.08739632368087769
1761131754637543400,5.85754345703125,-0.26795196533203125,0.0014545917510986328,-0.1034894585609436
1761131754647542500,5.86754248046875,-0.3722076416015625,0.008730530738830566,-0.06251704692840576
1761131754657542700,5.877542724609375,-0.3976593017578125,0.04826021194458008,-0.06919729709625244
1761131754667542500,5.88754248046875,-0.33962345123291016,0.04653501510620117,-0.1636754274368286
1761131754677542700,5.897542724609375,-0.25322437286376953,0.0020238161087036133,-0.19813644886016846
1761131754687542500,5.90754248046875,-0.25311946868896484,0.003644704818725586,-0.19162940979003906
1761131754697542700,5.917542724609375,0.0487060546875,0.014401912689208984,-0.10669994354248047
1761131754707542500,5.92754248046875,0.08022403717041016,-0.04080939292907715,-0.1395084261894226
1761131754717542700,5.937542724609375,0.1621694564819336,0.013277173042297363,-0.11511272192001343
1761131754727542500,5.94754248046875,0.27767467498779297,0.06966400146484375,-0.1239500641822815
1761131754737542700,5.957542724609375,0.24255943298339844,-0.07549619674682617,-0.16924774646759033
1761131754747543300,5.967543212890625,0.028288841247558594,-0.2055264711380005,0.052397847175598145
1761131754757543400,5.97754345703125,-0.15223407745361328,-0.178727388381958,0.201997309923172
1761131754767543300,5.987543212890625,-0.15084075927734375,-0.18274235725402832,0.21047088503837585
1761131754777543400,5.99754345703125,-0.21674442291259766,0.07824516296386719,-0.08910626173019409
1761131754787543300,6.007543212890625,-0.22576141357421875,0.135772705078125,-0.14345532655715942
1761131754797543400,6.01754345703125,-0.3503227233886719,-0.02256643772125244,-0.10278123617172241
1761131754807543300,6.027543212890625,-0.20704078674316406,-0.03158771991729736,0.07491505146026611
1761131754817543400,6.03754345703125,-0.057068824768066406,0.1485384702682495,0.12303358316421509
1761131754827543300,6.047543212890625,0.03988838195800781,0.0856771469116211,0.08354544639587402
1761131754837543400,6.05754345703125,-0.00658416748046875,-0.08828222751617432,0.15934234857559204
1761131754847542800,6.067542724609375,-0.0048580169677734375,-0.06958627700805664,0.319791704416275
1761131754857542700,6.077542724609375,0.19566917419433594,-0.029836058616638184,0.38423916697502136
1761131754867542800,6.087542724609375,0.10422039031982422,-0.011718392372131348,0.2632354199886322
1761131754877542700,6.097542724609375,-0.0061130523681640625,0.031216859817504883,0.21129381656646729
1761131754887542800,6.107542724609375,-0.003856658935546875,0.06815898418426514,0.19055616855621338
1761131754897542700,6.117542724609375,-0.11655139923095703,0.0618128776550293,0.21445661783218384
1761131754907542800,6.127542724609375,-0.07849788665771484,0.03881204128265381,0.23027008771896362
1761131754917542700,6.137542724609375,-0.036149024963378906,0.04400277137756348,0.1461479663848877
1761131754927542800,6.147542724609375,0.09215164184570312,0.0502854585647583,0.13347774744033813
1761131754937542700,6.157542724609375,0.2109546661376953,0.07820391654968262,0.09809184074401855
1761131754947543600,6.16754345703125,0.22222614288330078,0.10035550594329834,0.06294715404510498
1761131754957543700,6.177543701171875,0.20972824096679688,0.1025390625,-0.019892394542694092
1761131754967543600,6.18754345703125,0.19262123107910156,0.08968865871429443,-0.003889799118041992
1761131754977543700,6.197543701171875,0.23789119720458984,0.05474269390106201,0.07706743478775024
1761131754987543600,6.20754345703125,0.2975597381591797,0.04825794696807861,0.04281860589981079
1761131754997543700,6.217543701171875,0.28536319732666016,0.07280516624450684,0.01501995325088501
1761131755007543600,6.22754345703125,0.27080821990966797,0.08227252960205078,0.026518940925598145
1761131755017543700,6.237543701171875,0.21554946899414062,0.08890640735626221,0.10386937856674194
1761131755027543600,6.24754345703125,0.14116668701171875,0.07101297378540039,0.14413142204284668
1761131755037543700,6.257543701171875,0.06211662292480469,0.06427299976348877,0.1862388253211975
1761131755047542800,6.267542724609375,0.05257129669189453,0.04530811309814453,0.18794673681259155
1761131755057542700,6.277542724609375,0.028728485107421875,0.03581547737121582,0.12561267614364624
1761131755067542800,6.287542724609375,0.026636123657226562,0.04000401496887207,0.04032677412033081
1761131755077542700,6.297542724609375,0.005541801452636719,0.015110611915588379,-0.007933199405670166
1761131755087542800,6.307542724609375,0.015569686889648438,0.02386772632598877,-0.05826735496520996
1761131755097543000,6.31754296875,0.02558135986328125,0.013638138771057129,-0.03657025098800659
1761131755107542800,6.327542724609375,-0.007489204406738281,0.0032883882522583008,-0.031787753105163574
1761131755127509500,6.347509521484375,-0.05925273895263672,-0.03695178031921387,-0.049571216106414795
1761131755137476000,6.35747607421875,-0.07562541961669922,-0.023435354232788086,-0.07471358776092529
1761131755147443500,6.367443359375,-0.029906272888183594,-0.02115786075592041,-0.10490298271179199
1761131755157410000,6.37741015625,0.006053924560546875,-0.02528059482574463,-0.13073521852493286
1761131755167377000,6.387376953125,0.0059719085693359375,-0.038538575172424316,-0.061473071575164795
1761131755177343500,6.397343505859375,-0.025287628173828125,-0.06605494022369385,-0.023862183094024658
1761131755187310000,6.40731005859375,-0.056527137756347656,-0.0626060962677002,-0.010405898094177246
1761131755197276700,6.417276611328125,-0.018251419067382812,-0.01845240592956543,-0.05558198690414429
1761131755207243500,6.427243408203125,0.051291465759277344,0.015825986862182617,-0.12585550546646118
1761131755217210000,6.437210205078125,0.03716087341308594,0.0043582916259765625,-0.156690776348114
1761131755227176700,6.4471767578125,-0.022350311279296875,-0.04126238822937012,-0.0920286774635315
1761131755237143600,6.4571435546875,-0.07229232788085938,-0.02485358715057373,-0.06648343801498413
1761131755247109400,6.467109375,-0.1103506088256836,-0.010648727416992188,-0.07045680284500122
1761131755257076000,6.477075927734375,-0.13418197631835938,-0.01741325855255127,-0.05332458019256592
1761131755267042600,6.48704248046875,-0.1630115509033203,0.0006529092788696289,-0.05110436677932739
1761131755277009200,6.497009033203125,-0.15601825714111328,0.004909038543701172,-0.03906053304672241
1761131755286976000,6.50697607421875,-0.1035623550415039,0.01701533794403076,-0.058855533599853516
1761131755296942600,6.516942626953125,-0.029557228088378906,0.010175704956054688,-0.1641988754272461
1761131755306909200,6.5269091796875,0.04935932159423828,-0.013529777526855469,-0.1912459135055542
1761131755316876000,6.5368759765625,0.044625282287597656,-0.051760315895080566,-0.13266122341156006
1761131755326842600,6.546842529296875,0.030386924743652344,-0.06144523620605469,-0.08068132400512695
1761131755336809200,6.556809326171875,0.030620574951171875,-0.002255558967590332,-0.11017745733261108
1761131755346776800,6.56677685546875,0.0404510498046875,0.08080589771270752,-0.13717597723007202
1761131755356743400,6.576743408203125,0.014339447021484375,0.029888272285461426,-0.13563138246536255
1761131755366710300,6.586710205078125,-0.11954402923583984,0.04101121425628662,-0.0873534083366394
1761131755376676900,6.5966767578125,-0.1503915786743164,0.02031576633453369,-0.16682088375091553
1761131755386643500,6.6066435546875,0.09640693664550781,-0.04472243785858154,-0.28946155309677124
1761131755396610000,6.616610107421875,0.3761920928955078,-0.03229117393493652,-0.08468455076217651
1761131755406577000,6.626576904296875,0.43575572967529297,-0.012617230415344238,-0.0777844786643982
1761131755416543500,6.63654345703125,0.14659690856933594,0.03543996810913086,-0.06425851583480835
1761131755426543400,6.64654345703125,-0.08936309814453125,0.05838608741760254,-0.12063270807266235
1761131755436543500,6.65654345703125,-0.061850547790527344,0.025921940803527832,-0.1476677656173706
1761131755446542600,6.66654248046875,0.05157756805419922,0.04301142692565918,-0.09962749481201172
1761131755456542500,6.67654248046875,0.04030418395996094,0.06810438632965088,-0.04983276128768921
1761131755466542600,6.68654248046875,0.05766487121582031,0.021576762199401855,-0.09670525789260864
1761131755476542500,6.69654248046875,0.05819511413574219,0.008776664733886719,-0.017160356044769287
1761131755486542600,6.70654248046875,0.046813011169433594,-0.006664276123046875,0.03618061542510986
1761131755496542500,6.71654248046875,0.03078174591064453,-0.008356571197509766,0.022679507732391357
1761131755506542600,6.72654248046875,0.010069847106933594,0.054177284240722656,-0.014419853687286377
1761131755516542500,6.73654248046875,0.008498191833496094,0.04012012481689453,-0.003830254077911377
1761131755526542600,6.74654248046875,-0.005057334899902344,0.02844715118408203,-0.012647807598114014
1761131755536542500,6.75654248046875,-0.04729747772216797,-0.031245708465576172,0.031443774700164795
1761131755546543400,6.76654345703125,-0.08952140808105469,-0.0431973934173584,0.03699737787246704
1761131755556543500,6.77654345703125,-0.1580524444580078,-0.04085206985473633,0.025983452796936035
1761131755566543400,6.78654345703125,-0.21461105346679688,-0.0670546293258667,-0.03472554683685303
1761131755576543500,6.79654345703125,-0.1587667465209961,-0.06134462356567383,-0.05176585912704468
1761131755586543400,6.80654345703125,-0.1414651870727539,-0.04718363285064697,-0.07082295417785645
1761131755596543500,6.81654345703125,-0.09571456909179688,-0.03656005859375,-0.10460054874420166
1761131755606543400,6.82654345703125,-0.0955972671508789,-0.018183112144470215,-0.047847867012023926
1761131755616543500,6.83654345703125,-0.12675857543945312,-0.08076918125152588,-0.023232638835906982
1761131755626543400,6.84654345703125,-0.06465625762939453,-0.07592880725860596,-0.030231952667236328
1761131755636543500,6.85654345703125,0.05712699890136719,-0.07010960578918457,-0.039180099964141846
1761131755646542600,6.86654248046875,0.10212993621826172,-0.034685373306274414,0.007175564765930176
1761131755656542500,6.87654248046875,0.06109809875488281,-0.07669293880462646,0.007823586463928223
1761131755666542600,6.88654248046875,0.013098716735839844,-0.1101217269897461,0.044549405574798584
1761131755676542500,6.89654248046875,-0.018037796020507812,-0.08172249794006348,0.059989988803863525
1761131755686542600,6.90654248046875,-0.049073219299316406,-0.09182453155517578,0.07402867078781128
1761131755696542500,6.91654248046875,-0.0800323486328125,-0.061470746994018555,0.09569507837295532
1761131755706542600,6.92654248046875,-0.1493387222290039,-0.042934536933898926,0.050181567668914795
1761131755716542500,6.93654248046875,-0.18517208099365234,-0.019388675689697266,0.01902604103088379
1761131755726542600,6.94654248046875,-0.14203262329101562,-0.017078876495361328,-0.006870746612548828
1761131755736542500,6.95654248046875,-0.0822744369506836,-0.04742991924285889,-0.0010652542114257812
1761131755746543400,6.96654345703125,-0.01543426513671875,-0.0460590124130249,-0.0020539164543151855
1761131755756543500,6.97654345703125,0.008213043212890625,-0.06569802761077881,-0.0028349757194519043
1761131755766543400,6.98654345703125,0.06293964385986328,-0.03252112865447998,0.003304004669189453
1761131755776543500,6.99654345703125,0.05778312683105469,-0.028110027313232422,0.023212790489196777
1761131755786543400,7.00654345703125,0.028705596923828125,-0.03363609313964844,0.03506428003311157
1761131755796543500,7.01654345703125,-0.08171749114990234,-0.05162203311920166,0.0557781457901001
1761131755806543000,7.026543212890625,-0.0820779800415039,-0.050165772438049316,0.0547788143157959
1761131755816543000,7.03654296875,-0.14235973358154297,-0.069754958152771,0.04239445924758911
1761131755826543000,7.046543212890625,-0.17634868621826172,-0.06732320785522461,0.035658061504364014
1761131755836543000,7.05654296875,-0.22957611083984375,-0.06431269645690918,0.04861783981323242
1761131755846542000,7.0665419921875,-0.2972879409790039,-0.029627084732055664,0.018338024616241455
1761131755856542200,7.076542236328125,-0.3364992141723633,-0.010686039924621582,0.054691851139068604
1761131755866542000,7.0865419921875,-0.3329763412475586,-0.03820240497589111,0.09462326765060425
1761131755876542200,7.096542236328125,-0.09284305572509766,-0.061464548110961914,0.11707624793052673
1761131755886542000,7.1065419921875,-0.19545364379882812,-0.13782072067260742,0.18048956990242004
1761131755896542200,7.116542236328125,-0.4033231735229492,-0.06833910942077637,0.13433238863945007
1761131755906542000,7.1265419921875,-0.039351463317871094,0.05562865734100342,-0.0002487301826477051
1761131755916542000,7.1365419921875,0.3499488830566406,0.08447229862213135,-0.11745959520339966
1761131755926542000,7.1465419921875,0.48071861267089844,0.07013046741485596,-0.07460016012191772
1761131755936542000,7.1565419921875,0.4779520034790039,-0.04384040832519531,0.08405452966690063
1761131755946542800,7.16654296875,0.36817169189453125,-0.10293018817901611,0.16456449031829834
1761131755956543000,7.17654296875,0.25444507598876953,-0.12075555324554443,0.2526514530181885
1761131755966542800,7.18654296875,0.2800617218017578,-0.05223488807678223,0.21464356780052185
1761131755976543000,7.19654296875,0.3083457946777344,-0.01111602783203125,0.09631729125976562
1761131755986542800,7.20654296875,0.2889289855957031,0.03387284278869629,0.02122253179550171
1761131755996543000,7.21654296875,0.1859273910522461,0.007975459098815918,0.048058509826660156
1761131756006542800,7.22654296875,0.08788204193115234,0.03355824947357178,0.09554624557495117
1761131756016543000,7.23654296875,0.016243934631347656,0.02268803119659424,0.09702956676483154
1761131756026542800,7.24654296875,-0.01702404022216797,0.05941963195800781,0.08429694175720215
1761131756036543000,7.25654296875,-0.035910606384277344,0.05084669589996338,0.0795588493347168
1761131756046542000,7.2665419921875,-0.06677722930908203,0.047176241874694824,0.0797661542892456
1761131756056542200,7.276542236328125,-0.11923027038574219,0.053171515464782715,0.07250726222991943
1761131756066542000,7.2865419921875,-0.13825321197509766,0.023596882820129395,0.0552639365196228
1761131756076542200,7.296542236328125,-0.10951423645019531,0.04242908954620361,0.01132810115814209
1761131756086542000,7.3065419921875,-0.0808267593383789,0.03291285037994385,0.003652513027191162
1761131756096542200,7.316542236328125,-0.047410011291503906,0.01419687271118164,0.053630530834198
1761131756106542600,7.32654248046875,0.005063056945800781,0.005489706993103027,0.07704758644104004
1761131756116542500,7.33654248046875,0.04071617126464844,-0.0027740001678466797,0.08406180143356323
1761131756126542600,7.34654248046875,0.059696197509765625,-0.0017105340957641602,0.0773465633392334
1761131756136542500,7.35654248046875,0.10515785217285156,0.025158286094665527,0.047366321086883545
1761131756146543400,7.36654345703125,0.13873577117919922,0.02055680751800537,-0.01337820291519165
1761131756156543500,7.37654345703125,0.12696170806884766,0.027237534523010254,-0.06205093860626221
1761131756166543400,7.38654345703125,0.10338306427001953,-0.002810955047607422,-0.0507088303565979
1761131756176543500,7.39654345703125,0.10389328002929688,-0.004943132400512695,-0.0490725040435791
1761131756186543400,7.40654345703125,0.03744220733642578,0.006898403167724609,-0.061788320541381836
1761131756196543500,7.41654345703125,-0.01696491241455078,0.04715108871459961,-0.06237286329269409
1761131756206543400,7.42654345703125,-0.07132244110107422,0.06798434257507324,-0.08214372396469116
1761131756216543500,7.43654345703125,-0.10419750213623047,0.043596863746643066,-0.0542522668838501
1761131756226543400,7.44654345703125,-0.13003921508789062,0.029387235641479492,-0.002962052822113037
1761131756236543500,7.45654345703125,-0.06751823425292969,0.025867104530334473,-0.00691455602645874
1761131756246542600,7.46654248046875,0.028237342834472656,0.026173114776611328,-0.020560503005981445
1761131756256542700,7.476542724609375,0.09741783142089844,-0.01558375358581543,0.0106581449508667
1761131756266542600,7.48654248046875,0.12818336486816406,-0.04035234451293945,0.08877617120742798
1761131756276542500,7.49654248046875,0.11104106903076172,-0.029300332069396973,0.1327114701271057
1761131756286542600,7.50654248046875,0.06524085998535156,-0.08335471153259277,0.020769774913787842
1761131756296542500,7.51654248046875,0.05308818817138672,-0.01351022720336914,0.1269170045852661
1761131756306542600,7.52654248046875,-0.018758773803710938,0.005236387252807617,0.03679543733596802
1761131756316542700,7.536542724609375,-0.03525543212890625,-0.015482902526855469,-0.006887555122375488
1761131756326542600,7.54654248046875,-0.17128467559814453,-0.01762533187866211,0.04145777225494385
1761131756336542700,7.556542724609375,-0.23058700561523438,-0.008463144302368164,0.0680091381072998
1761131756346543400,7.56654345703125,-0.18727493286132812,-0.009702324867248535,0.043727755546569824
1761131756356543500,7.57654345703125,-0.1227884292602539,0.03882896900177002,0.002505779266357422
1761131756366543400,7.58654345703125,-0.07773590087890625,0.057485342025756836,-0.0321427583694458
1761131756376543500,7.59654345703125,-0.016078948974609375,0.019281864166259766,-0.053077757358551025
1761131756386543400,7.60654345703125,0.07184505462646484,0.02447640895843506,-0.03347569704055786
1761131756396543500,7.61654345703125,0.07843303680419922,-0.02313244342803955,0.0154685378074646
1761131756406543400,7.62654345703125,0.025305747985839844,-0.03781604766845703,0.031308889389038086
1761131756416543500,7.63654345703125,0.017843246459960938,-0.02687859535217285,0.004666626453399658
1761131756426543400,7.64654345703125,0.05110931396484375,0.022469282150268555,-0.08351421356201172
1761131756436543500,7.65654345703125,0.05570697784423828,0.07646238803863525,-0.1519952416419983
1761131756446542600,7.66654248046875,0.03884696960449219,0.06292986869812012,-0.14627361297607422
1761131756456542500,7.67654248046875,-0.04248523712158203,0.07015514373779297,-0.08040237426757812
1761131756466542600,7.68654248046875,-0.12607097625732422,0.026336312294006348,-0.04570835828781128
1761131756476542500,7.69654248046875,-0.1091012954711914,0.03761172294616699,-0.034932076930999756
1761131756486542600,7.70654248046875,-0.03965568542480469,0.04748880863189697,-0.04338645935058594
1761131756496542500,7.71654248046875,0.03920173645019531,0.04877352714538574,-0.08264142274856567
1761131756506542600,7.72654248046875,0.10847282409667969,0.0357975959777832,-0.07383209466934204
1761131756516542500,7.73654248046875,0.12020492553710938,0.015852928161621094,-0.06563377380371094
1761131756526542600,7.74654248046875,0.10083580017089844,0.02210557460784912,0.0023766160011291504
1761131756536542500,7.75654248046875,0.057625770568847656,0.01584458351135254,0.020084083080291748
1761131756546543400,7.76654345703125,-0.0021114349365234375,0.03731584548950195,-0.01901829242706299
1761131756556543200,7.776543212890625,-0.09263420104980469,0.026234149932861328,-0.0068021416664123535
1761131756566543400,7.78654345703125,-0.15420055389404297,0.004545450210571289,-0.006121814250946045
1761131756576543500,7.79654345703125,-0.15123748779296875,0.002687811851501465,0.011525988578796387
1761131756586543400,7.80654345703125,-0.1294717788696289,0.0023974180221557617,0.0044182538986206055
1761131756596543500,7.81654345703125,-0.0889272689819336,0.032541632652282715,0.001322627067565918
1761131756606543400,7.82654345703125,-0.02002429962158203,0.059540390968322754,-0.0505446195602417
1761131756616543200,7.836543212890625,0.04396247863769531,0.04876446723937988,-0.06214505434036255
1761131756626543400,7.84654345703125,0.060204505920410156,0.054125428199768066,-0.0399165153503418
1761131756636543200,7.856543212890625,0.07683753967285156,0.007582306861877441,0.009883522987365723
1761131756646542600,7.86654248046875,0.0841217041015625,-0.02309703826904297,0.022257447242736816
1761131756656542500,7.87654248046875,0.0843496322631836,-0.02303338050842285,0.025829613208770752
1761131756666542600,7.88654248046875,0.14922523498535156,-0.01091623306274414,-0.049331724643707275
1761131756676542500,7.89654248046875,0.17574691772460938,0.008371591567993164,-0.04141932725906372
1761131756686542600,7.90654248046875,0.14721298217773438,0.022463202476501465,-0.04168897867202759
1761131756696542500,7.91654248046875,0.0828237533569336,0.05026865005493164,-0.045327961444854736
1761131756706542600,7.92654248046875,0.03539752960205078,0.03404390811920166,-0.03898036479949951
1761131756716542500,7.93654248046875,0.019288063049316406,0.038645029067993164,-0.04620695114135742
1761131756726542600,7.94654248046875,-0.02773761749267578,0.028189897537231445,-0.03320491313934326
1761131756736542500,7.95654248046875,-0.07223892211914062,0.007581830024719238,-0.029502689838409424
1761131756746543400,7.96654345703125,-0.1047983169555664,0.013406634330749512,-0.030787348747253418
1761131756756543500,7.97654345703125,-0.1040658950805664,0.010764837265014648,-0.027534544467926025
1761131756766543400,7.98654345703125,0.004147529602050781,0.0500180721282959,-0.06303209066390991
1761131756776543500,7.99654345703125,0.004534721374511719,0.04892992973327637,-0.060485124588012695
1761131756786543400,8.00654345703125,0.0049648284912109375,0.028408288955688477,-0.04855382442474365
1761131756796543500,8.01654345703125,0.06545352935791016,-0.012014269828796387,-0.09801137447357178
1761131756806544000,8.0265439453125,0.14550399780273438,-0.015581488609313965,-0.10021579265594482
1761131756816544000,8.0365439453125,0.12996959686279297,-0.02250230312347412,-0.0976991057395935
1761131756826543900,8.0465439453125,0.06906509399414062,0.0030213594436645508,-0.082111656665802
1761131756836544000,8.0565439453125,-0.08767127990722656,0.03288078308105469,-0.063865065574646
1761131756846543000,8.066543212890625,-0.08654308319091797,0.027002334594726562,-0.06407195329666138
1761131756856543000,8.07654296875,-0.13603591918945312,0.05181121826171875,-0.027844369411468506
1761131756866543000,8.086543212890625,0.0007352828979492188,0.014501094818115234,-0.0274655818939209
1761131756876543000,8.09654296875,0.03905296325683594,0.016806721687316895,0.015543460845947266
1761131756886543000,8.106543212890625,0.04854583740234375,-0.000050067901611328125,0.04765373468399048
1761131756896543000,8.11654296875,0.053320884704589844,-0.0053855180740356445,0.08670103549957275
1761131756906543000,8.126543212890626,0.0726308822631836,0.012628793716430664,0.12170624732971191
1761131756916543000,8.13654296875,0.061023712158203125,0.03225553035736084,0.06647038459777832
1761131756926543000,8.146543212890625,0.049560546875,0.0727386474609375,0.03290361166000366
1761131756936543000,8.15654296875,0.028664588928222656,0.03354310989379883,0.030619800090789795
1761131756946543900,8.1665439453125,0.029351234436035156,0.02998673915863037,0.030449330806732178
1761131756956543700,8.176543701171875,-0.07052040100097656,-0.03355097770690918,0.0658002495765686
1761131756966544000,8.1865439453125,-0.034030914306640625,-0.03914833068847656,0.0722203254699707
1761131756976543700,8.196543701171874,0.07881832122802734,-0.04824948310852051,0.02595120668411255
1761131756986543900,8.2065439453125,0.12208843231201172,-0.06375789642333984,0.03482639789581299
1761131756996543700,8.216543701171876,0.12705707550048828,-0.06263482570648193,0.04819279909133911
1761131757006544000,8.2265439453125,0.12496662139892578,-0.02868366241455078,-0.0008714199066162109
1761131757016543700,8.236543701171875,0.09184837341308594,0.009574055671691895,-0.05231600999832153
1761131757026543900,8.2465439453125,0.044452667236328125,-0.0028853416442871094,-0.0726354718208313
1761131757036543700,8.256543701171875,-0.012408256530761719,-0.011172652244567871,-0.04763525724411011
1761131757046543000,8.266543212890625,-0.047682762145996094,-0.036267757415771484,-0.012670338153839111
1761131757056543000,8.27654296875,-0.054218292236328125,-0.03730952739715576,0.0035398006439208984
1761131757066543000,8.286543212890624,-0.07266044616699219,-0.01923549175262451,-0.0321507453918457
1761131757076543000,8.29654296875,-0.08615493774414062,-0.006472229957580566,-0.04553520679473877
1761131757086543000,8.306543212890626,-0.1450977325439453,0.029989242553710938,-0.06622463464736938
1761131757096543000,8.31654296875,-0.22810077667236328,0.02135491371154785,-0.022847294807434082
1761131757106542600,8.32654248046875,-0.18928050994873047,0.028168082237243652,-0.021066248416900635
1761131757116542500,8.33654248046875,-0.05501747131347656,0.005495786666870117,-0.02402585744857788
1761131757126542600,8.34654248046875,0.07172203063964844,0.027556419372558594,-0.039074838161468506
1761131757136542500,8.35654248046875,0.13374042510986328,0.011752009391784668,-0.04918855428695679
1761131757146543400,8.36654345703125,0.16234874725341797,-0.009311676025390625,-0.020801782608032227
1761131757156543500,8.37654345703125,0.17680931091308594,0.01170814037322998,-0.0233461856842041
1761131757166543400,8.38654345703125,0.14364051818847656,0.01731395721435547,-0.02290356159210205
1761131757176543500,8.39654345703125,0.09638309478759766,0.004859447479248047,0.008840620517730713
1761131757186543400,8.40654345703125,0.049216270446777344,-0.000995039939880371,0.021048247814178467
1761131757196543500,8.41654345703125,0.01152801513671875,0.012504816055297852,0.0467989444732666
1761131757206543400,8.42654345703125,-0.01428985595703125,0.03110325336456299,0.02650994062423706
1761131757216543500,8.43654345703125,-0.028234481811523438,0.03336691856384277,0.010846912860870361
1761131757226543400,8.44654345703125,-0.032675743103027344,0.033640265464782715,-0.043016016483306885
1761131757236543500,8.45654345703125,-0.025135040283203125,0.024422645568847656,-0.02226698398590088
1761131757246542600,8.46654248046875,-0.02227783203125,0.02197730541229248,0.03946876525878906
1761131757256542700,8.476542724609375,-0.05047321319580078,0.00011074542999267578,0.029620230197906494
1761131757266542600,8.48654248046875,-0.0906534194946289,-0.019296765327453613,0.012571215629577637
1761131757276542500,8.49654248046875,-0.0709829330444336,-0.03382730484008789,0.005276679992675781
1761131757286542600,8.50654248046875,-0.05141258239746094,-0.01662755012512207,0.005502521991729736
1761131757296542500,8.51654248046875,-0.03196144104003906,0.013054966926574707,-0.023214280605316162
1761131757306542600,8.52654248046875,0.0017175674438476562,-0.006979227066040039,-0.07139599323272705
1761131757316542700,8.536542724609374,0.03768634796142578,-0.03146708011627197,-0.06022346019744873
1761131757326542600,8.54654248046875,0.011373519897460938,-0.039231300354003906,-0.016086041927337646
1761131757336542700,8.556542724609375,-0.03157806396484375,-0.04521524906158447,0.03993558883666992
1761131757346543400,8.56654345703125,-0.052860260009765625,-0.04212379455566406,0.03873831033706665
1761131757356543500,8.57654345703125,-0.054996490478515625,-0.03649938106536865,0.061792075634002686
1761131757366543400,8.58654345703125,-0.011705398559570312,-0.006477832794189453,0.018233835697174072
1761131757376543500,8.59654345703125,0.026680946350097656,-0.004653215408325195,0.02487868070602417
1761131757386543400,8.60654345703125,0.05300331115722656,-0.021632909774780273,0.036002933979034424
1761131757396543500,8.61654345703125,0.0697336196899414,-0.057785630226135254,0.042068421840667725
1761131757406543400,8.62654345703125,0.06737709045410156,-0.02968776226043701,0.021576225757598877
1761131757416543500,8.63654345703125,0.0867767333984375,-0.00950479507446289,-0.017243027687072754
1761131757426543400,8.64654345703125,0.08240222930908203,0.022124290466308594,-0.021698296070098877
1761131757436543500,8.65654345703125,-0.012828826904296875,0.00538790225982666,0.005289852619171143
1761131757446542600,8.66654248046875,-0.10312366485595703,0.021418094635009766,-0.010916471481323242
1761131757456542500,8.67654248046875,-0.10231781005859375,0.010681629180908203,-0.06023097038269043
1761131757466542600,8.68654248046875,-0.1422863006591797,0.0316164493560791,-0.1449018120765686
1761131757476542500,8.69654248046875,-0.23029804229736328,0.04836702346801758,-0.10076218843460083
1761131757486542600,8.70654248046875,-0.11257743835449219,0.005766034126281738,-0.1102256178855896
1761131757496542500,8.71654248046875,-0.002475738525390625,-0.022740840911865234,-0.08366072177886963
1761131757506542600,8.72654248046875,-0.0052204132080078125,-0.03332555294036865,-0.0007469654083251953
1761131757516542500,8.73654248046875,0.015915870666503906,-0.015288949012756348,-0.0004093050956726074
1761131757526542600,8.74654248046875,0.07529067993164062,-0.02816319465637207,0.013924121856689453
1761131757536542500,8.75654248046875,0.1130218505859375,0.016838550567626953,0.004165947437286377
1761131757546543400,8.76654345703125,0.10772037506103516,0.03295719623565674,0.025969386100769043
1761131757556543200,8.776543212890624,0.08352184295654297,-0.0022821426391601562,0.03385567665100098
1761131757566543400,8.78654345703125,0.031040191650390625,-0.03922772407531738,0.02873629331588745
1761131757576543500,8.79654345703125,-0.016284942626953125,-0.015221118927001953,-0.006099283695220947
1761131757586543400,8.80654345703125,-0.044284820556640625,-0.008618474006652832,-0.033241093158721924
1761131757596543500,8.81654345703125,-0.04356575012207031,-0.011702418327331543,-0.032142043113708496
1761131757606543400,8.82654345703125,-0.1100454330444336,-0.01182413101196289,-0.022076427936553955
1761131757616543200,8.836543212890625,-0.006885528564453125,-0.007897615432739258,-0.02645576000213623
1761131757626543400,8.84654345703125,0.005034446716308594,-0.005227088928222656,-0.011996924877166748
1761131757636543200,8.856543212890625,-0.0022449493408203125,-0.024107694625854492,-0.03410917520523071
1761131757646542600,8.86654248046875,-0.004740715026855469,-0.019048452377319336,-0.02279376983642578
1761131757656542500,8.87654248046875,0.014333724975585938,-0.0619502067565918,-0.004195213317871094
1761131757666542600,8.88654248046875,-0.024016380310058594,-0.06905293464660645,-0.006969094276428223
1761131757676542500,8.89654248046875,-0.07426643371582031,-0.07403397560119629,-0.014313757419586182
1761131757686542600,8.90654248046875,-0.08611774444580078,-0.04815506935119629,-0.02593141794204712
1761131757696542500,8.91654248046875,-0.13619327545166016,-0.027208566665649414,-0.029631495475769043
1761131757706542600,8.92654248046875,-0.17184925079345703,-0.013634443283081055,-0.035487592220306396
1761131757716542500,8.93654248046875,-0.1406106948852539,0.04120016098022461,-0.04892092943191528
1761131757726542600,8.94654248046875,-0.09769821166992188,0.05882668495178223,-0.010639369487762451
1761131757736542500,8.95654248046875,-0.05057239532470703,-0.012608885765075684,0.01316291093826294
1761131757746543400,8.96654345703125,0.027512550354003906,-0.004338979721069336,0.003144979476928711
1761131757756543200,8.976543212890626,0.11282920837402344,0.011266946792602539,-0.012928605079650879
1761131757766543400,8.98654345703125,0.1433420181274414,-0.00753474235534668,0.02000749111175537
1761131757776543200,8.996543212890625,0.10952186584472656,-0.022769570350646973,0.04416686296463013
1761131757786543400,9.00654345703125,0.03288078308105469,0.0015349388122558594,0.04726898670196533
1761131757796543200,9.016543212890625,-0.043567657470703125,0.032141685485839844,0.03612625598907471
1761131757806543400,9.02654345703125,-0.1127309799194336,0.040639400482177734,-0.020679056644439697
1761131757816543500,9.03654345703125,-0.11258125305175781,0.04006803035736084,-0.02022373676300049
1761131757826543400,9.04654345703125,-0.07439804077148438,0.07648372650146484,-0.034899234771728516
1761131757836543500,9.05654345703125,-0.050858497619628906,0.049239158630371094,-0.029058337211608887
1761131757846542600,9.06654248046875,-0.0705575942993164,0.029630064964294434,-0.002402186393737793
1761131757856542500,9.07654248046875,-0.025671958923339844,0.022292137145996094,-0.016407370567321777
1761131757866542600,9.08654248046875,0.043219566345214844,0.03661847114562988,-0.04591035842895508
1761131757876542500,9.09654248046875,0.08349418640136719,0.031623125076293945,-0.047937750816345215
1761131757886542600,9.10654248046875,0.11666202545166016,0.002309560775756836,-0.08350729942321777
1761131757896542500,9.11654248046875,0.11425590515136719,0.004927515983581543,-0.042320072650909424
1761131757906542300,9.126542236328126,-0.03886985778808594,-0.043575406074523926,0.024362921714782715
1761131757916542500,9.13654248046875,-0.0795755386352539,0.0038444995880126953,0.01811879873275757
1761131757926542600,9.14654248046875,0.004080772399902344,0.0711737871170044,-0.04530799388885498
1761131757936542500,9.15654248046875,0.020751953125,0.009302496910095215,-0.045442819595336914
1761131757946543400,9.16654345703125,-0.034313201904296875,-0.017006635665893555,0.012113034725189209
1761131757956543200,9.176543212890625,-0.11083602905273438,-0.08230149745941162,0.05937826633453369
1761131757966543400,9.18654345703125,-0.16816997528076172,-0.04253888130187988,0.056002795696258545
1761131757976543500,9.19654345703125,-0.13950443267822266,-0.02102494239807129,0.021434783935546875
1761131757986543400,9.20654345703125,-0.08231830596923828,0.02317178249359131,-0.022374451160430908
1761131757996543500,9.21654345703125,-0.058712005615234375,0.022263765335083008,0.0011518001556396484
1761131758006543400,9.22654345703125,-0.056674957275390625,0.011765122413635254,0.024313509464263916
1761131758016543500,9.23654345703125,-0.049884796142578125,-0.008153676986694336,0.045003294944763184
1761131758026543400,9.24654345703125,0.02865314483642578,0.01790142059326172,0.0037875771522521973
1761131758036543500,9.25654345703125,0.061659812927246094,0.022693991661071777,-0.010857939720153809
1761131758046542600,9.26654248046875,0.07556819915771484,0.020004987716674805,0.007912218570709229
1761131758056542700,9.276542724609374,0.09437751770019531,0.012018203735351562,0.01960885524749756
1761131758066542600,9.28654248046875,0.0964975357055664,0.03238070011138916,0.014447808265686035
1761131758076542700,9.296542724609376,0.048439979553222656,0.03562891483306885,0.007281124591827393
1761131758086542600,9.30654248046875,0.03640460968017578,0.08146381378173828,-0.04050940275192261
1761131758096542700,9.316542724609375,-0.04262256622314453,0.08633279800415039,-0.014216899871826172
1761131758106542600,9.32654248046875,-0.07368755340576172,0.09322047233581543,-0.042957305908203125
1761131758116542500,9.33654248046875,-0.07122802734375,0.0761955976486206,-0.03800678253173828
1761131758126542600,9.34654248046875,-0.01865100860595703,0.06466901302337646,-0.01651531457901001
1761131758136542500,9.35654248046875,0.10077285766601562,0.02769160270690918,-0.02870267629623413
1761131758146543400,9.36654345703125,0.11240673065185547,-0.023433446884155273,0.01888066530227661
1761131758156543500,9.37654345703125,0.04752922058105469,-0.09435641765594482,0.08518123626708984
1761131758166543400,9.38654345703125,-0.045998573303222656,-0.05078268051147461,0.08675462007522583
1761131758176543500,9.39654345703125,-0.10595035552978516,0.021293997764587402,0.0501713752746582
1761131758186543400,9.40654345703125,-0.012553215026855469,0.10020756721496582,-0.012018442153930664
1761131758196543500,9.41654345703125,-0.09163856506347656,0.16532492637634277,-0.24635356664657593
1761131758206543400,9.42654345703125,-0.016994476318359375,0.08222043514251709,-0.04411745071411133
1761131758216543500,9.43654345703125,0.06658554077148438,0.015827655792236328,0.0958777666091919
1761131758226543400,9.44654345703125,0.1118307113647461,-0.08394122123718262,0.08986026048660278
1761131758236543500,9.45654345703125,0.0973672866821289,-0.1171877384185791,0.09879714250564575
1761131758246542600,9.46654248046875,0.1093149185180664,-0.07399964332580566,0.07478600740432739
1761131758256542700,9.476542724609375,0.1762409210205078,-0.015849590301513672,-0.010982871055603027
1761131758266542600,9.48654248046875,0.1927776336669922,0.045163869857788086,-0.04427683353424072
