time,seconds_elapsed,z,y,x
1761131748904222000,0.124221923828125,-0.0071013085544109344,0.006490443367511034,0.027259862050414085
1761131748934156800,0.15415673828125,-0.0071013085544109344,0.006490443367511034,0.027259862050414085
1761131748944157000,0.164156982421875,-0.004046982154250145,0.002825251780450344,0.014431691728532314
1761131748954156800,0.17415673828125,0.00022907447419129312,-0.005726861767470837,0.008323038928210735
1761131748964157200,0.1841572265625,0.0069485921412706375,-0.0020616701804101467,0.005879578180611134
1761131748974157000,0.194156982421875,0.00939205288887024,0.005268712528049946,0.005879578180611134
1761131748984157200,0.2041572265625,0.010002918541431427,0.013820826075971127,0.007712173741310835
1761131748994157000,0.214156982421875,0.010002918541431427,0.01687515154480934,0.0034361169673502445
1761131749004157200,0.2241572265625,0.012446379289031029,0.01992947794497013,-0.01061378326267004
1761131749014157000,0.234156982421875,0.02038762718439102,0.011377365328371525,-0.03199406713247299
1761131749024157200,0.2441572265625,0.031383201479911804,0.0034361169673502445,-0.057039543986320496
1761131749034157000,0.254156982421875,0.042989641427993774,-0.004505131393671036,-0.07841982692480087
1761131749044155100,0.264155029296875,0.05520694702863693,-0.01061378326267004,-0.08941540122032166
1761131749054155300,0.2741552734375,0.05948300287127495,-0.012446379289031029,-0.08391761034727097
1761131749064155100,0.284155029296875,0.05520694702863693,-0.00939205288887024,-0.07108944654464722
1761131749074155300,0.2941552734375,0.04237877577543259,-0.00022907447419129312,-0.057039543986320496
1761131749084155100,0.304155029296875,0.028328875079751015,0.0071013085544109344,-0.0417679101228714
1761131749094155300,0.3141552734375,0.01488984003663063,0.014431691728532314,-0.025885414332151413
1761131749104155100,0.324155029296875,0.002672535367310047,0.025427265092730522,-0.008170322515070438
1761131749114155300,0.3341552734375,0.002672535367310047,0.02298380434513092,0.004046982154250145
1761131749124155100,0.344155029296875,0.0014508049935102463,0.011377365328371525,0.012599095702171326
1761131749134155300,0.3541552734375,-0.00038179077091626823,0.002825251780450344,0.007712173741310835
1761131749144155100,0.364155029296875,0.00022907447419129312,-0.0014508049935102463,-0.0032834007870405912
1761131749154155300,0.3741552734375,0.0032834007870405912,0.00038179077091626823,-0.01794416643679142
1761131749164155100,0.384155029296875,0.0032834007870405912,0.007712173741310835,-0.028328875079751015
1761131749174155300,0.3941552734375,0.008170322515070438,0.011988230049610138,-0.031383201479911804
1761131749184155100,0.404155029296875,0.016111571341753006,0.01687515154480934,-0.028328875079751015
1761131749194155300,0.4141552734375,0.012446379289031029,0.022372938692569733,-0.0264962799847126
1761131749204155100,0.424155029296875,0.0038942659739404917,0.023594669997692108,-0.019776761531829834
1761131749214155300,0.4341552734375,-0.00038179077091626823,0.02298380434513092,-0.014278975315392017
1761131749224155100,0.444155029296875,-0.004046982154250145,0.016264287754893303,-0.008170322515070438
1761131749234155300,0.4541552734375,-0.006490443367511034,0.019318614155054092,-0.000839939690195024
1761131749244154400,0.464154296875,-0.005268712528049946,0.021151209250092506,0.004046982154250145
1761131749254154500,0.474154541015625,-0.0009926559869199991,0.021762074902653694,0.014431691728532314
1761131749264154400,0.484154296875,0.002672535367310047,0.010155634954571724,0.018707748502492905
1761131749274154500,0.494154541015625,0.005115996580570936,0.013820826075971127,0.0009926559869199991
1761131749284154400,0.504154296875,0.005115996580570936,0.0071013085544109344,-0.028328875079751015
1761131749294154500,0.514154541015625,0.004505131393671036,0.0016035212902352214,-0.05093089118599892
1761131749304154400,0.524154296875,0.004505131393671036,-0.008781188167631626,-0.06131559982895851
1761131749314154500,0.534154541015625,0.005115996580570936,-0.006337726954370737,-0.0619264654815197
1761131749324154400,0.544154296875,0.004505131393671036,0.005268712528049946,-0.05337435007095337
1761131749334154500,0.554154541015625,0.002672535367310047,0.013209961354732513,-0.019165897741913795
1761131749344155100,0.564155029296875,0.00022907447419129312,0.011988230049610138,0.004046982154250145
1761131749354155300,0.5741552734375,-0.006490443367511034,0.007712173741310835,0.019318614155054092
1761131749364155100,0.584155029296875,-0.008323038928210735,0.008933904580771923,0.024205535650253296
1761131749374155300,0.5941552734375,-0.004657847341150045,0.006490443367511034,0.019318614155054092
1761131749384155100,0.604155029296875,-0.0016035212902352214,0.007712173741310835,0.0071013085544109344
1761131749394155300,0.6141552734375,0.000839939690195024,0.008933904580771923,-0.006337726954370737
1761131749404155100,0.624155029296875,0.0020616701804101467,0.008323038928210735,-0.011224648915231228
1761131749414155300,0.6341552734375,0.0032834007870405912,0.008933904580771923,-0.006337726954370737
1761131749424155100,0.644155029296875,0.0032834007870405912,0.008933904580771923,0.0022143865935504436
1761131749434155300,0.6541552734375,0.0032834007870405912,0.010155634954571724,0.010766499675810337
1761131749444154400,0.664154296875,0.0020616701804101467,0.0034361169673502445,0.015653422102332115
1761131749454154500,0.674154541015625,0.0014508049935102463,0.0009926559869199991,0.011988230049610138
1761131749464154400,0.684154296875,0.00022907447419129312,0.0016035212902352214,0.009544769302010536
1761131749474154500,0.694154541015625,0.0014508049935102463,0.004657847341150045,0.009544769302010536
1761131749484154400,0.704154296875,0.0020616701804101467,0.004046982154250145,0.011377365328371525
1761131749494154500,0.714154541015625,0.0020616701804101467,0.005879578180611134,0.013209961354732513
1761131749504154400,0.724154296875,0.000839939690195024,0.005268712528049946,0.01748601719737053
1761131749514154500,0.734154541015625,0.005115996580570936,0.00038179077091626823,0.019318614155054092
1761131749524154400,0.744154296875,0.00939205288887024,-0.005726861767470837,0.011988230049610138
1761131749534154500,0.754154541015625,0.01061378326267004,-0.005115996580570936,-0.0032834007870405912
1761131749544155100,0.764155029296875,0.005115996580570936,-0.0032834007870405912,-0.024052819237113
1761131749554155300,0.7741552734375,0.00022907447419129312,0.0022143865935504436,-0.036880988627672195
1761131749564155100,0.784155029296875,0.0032834007870405912,0.006490443367511034,-0.028328875079751015
1761131749574155300,0.7941552734375,0.0069485921412706375,0.0071013085544109344,-0.005726861767470837
1761131749584155100,0.804155029296875,0.00939205288887024,0.004657847341150045,0.02054034359753132
1761131749594155300,0.8141552734375,0.00939205288887024,-0.00022907447419129312,0.03703370690345764
1761131749604155100,0.824155029296875,0.007559457328170538,0.002825251780450344,0.04008803144097328
1761131749614155300,0.8341552734375,0.004505131393671036,0.005268712528049946,0.0290924571454525
1761131749624155100,0.844155029296875,0.005115996580570936,0.0071013085544109344,0.014431691728532314
1761131749634155300,0.8541552734375,0.0069485921412706375,0.005268712528049946,0.002825251780450344
1761131749644154400,0.864154296875,0.008170322515070438,0.005879578180611134,-0.002672535367310047
1761131749654154200,0.874154296875,0.005726861767470837,0.006490443367511034,-0.0038942659739404917
1761131749664154400,0.884154296875,0.0032834007870405912,0.004046982154250145,-0.002672535367310047
1761131749674154200,0.894154296875,0.005115996580570936,0.0022143865935504436,0.0009926559869199991
1761131749684154400,0.904154296875,0.0014508049935102463,0.00038179077091626823,0.004046982154250145
1761131749694154200,0.914154296875,-0.00038179077091626823,-0.000839939690195024,0.0071013085544109344
1761131749704154400,0.924154296875,-0.0016035212902352214,0.004046982154250145,0.010766499675810337
1761131749714154200,0.934154296875,-0.005879578180611134,0.007712173741310835,0.012599095702171326
1761131749724154400,0.944154296875,-0.008933904580771923,0.008933904580771923,0.010155634954571724
1761131749734154200,0.954154296875,-0.007712173741310835,0.004657847341150045,0.004046982154250145
1761131749744155100,0.964155029296875,-0.002825251780450344,0.0016035212902352214,-0.007559457328170538
1761131749754155000,0.974155029296875,-0.00038179077091626823,0.002825251780450344,-0.016722436994314194
1761131749764155100,0.984155029296875,-0.0009926559869199991,0.008933904580771923,-0.022831087931990623
1761131749774155000,0.994155029296875,-0.006490443367511034,0.014431691728532314,-0.022831087931990623
1761131749784155100,1.004155029296875,-0.013209961354732513,0.016264287754893303,-0.019776761531829834
1761131749794155000,1.014155029296875,-0.015042556449770927,0.009544769302010536,-0.0038942659739404917
1761131749804155100,1.024155029296875,-0.010155634954571724,0.004657847341150045,0.005268712528049946
1761131749814154800,1.03415478515625,-0.011377365328371525,0.004046982154250145,0.005879578180611134
1761131749824155000,1.04415478515625,-0.015653422102332115,0.005268712528049946,0.0016035212902352214
1761131749834155000,1.054155029296875,-0.02054034359753132,0.011377365328371525,-0.008781188167631626
1761131749844154000,1.064154052734375,-0.027259862050414085,0.014431691728532314,-0.01488984003663063
1761131749854154000,1.074154052734375,-0.024205535650253296,0.015653422102332115,-0.016722436994314194
1761131749864154000,1.084154052734375,-0.021762074902653694,0.013820826075971127,-0.014278975315392017
1761131749874154000,1.094154052734375,-0.02054034359753132,0.013209961354732513,-0.00939205288887024
1761131749884154000,1.104154052734375,-0.018096882849931717,0.008933904580771923,-0.0032834007870405912
1761131749894154000,1.114154052734375,-0.019318614155054092,0.005879578180611134,-0.0020616701804101467
1761131749904154000,1.124154052734375,-0.024205535650253296,0.008323038928210735,-0.006337726954370737
1761131749914154000,1.134154052734375,-0.03153591975569725,0.0071013085544109344,-0.01366810966283083
1761131749924153900,1.14415380859375,-0.030925052240490913,0.004657847341150045,-0.019776761531829834
1761131749934153700,1.15415380859375,-0.024816401302814484,0.0022143865935504436,-0.030161472037434578
1761131749944154600,1.164154541015625,-0.018707748502492905,0.0022143865935504436,-0.03749185428023338
1761131749954154800,1.17415478515625,-0.016264287754893303,0.0016035212902352214,-0.04237877577543259
1761131749964155000,1.18415478515625,-0.01748601719737053,-0.00022907447419129312,-0.04054617881774902
1761131749974154800,1.19415478515625,-0.015042556449770927,-0.0032834007870405912,-0.03443752974271774
1761131749984155000,1.20415478515625,-0.018096882849931717,-0.0069485921412706375,-0.025885414332151413
1761131749994154800,1.21415478515625,-0.02054034359753132,-0.005726861767470837,-0.02038762718439102
1761131750004155000,1.22415478515625,-0.023594669997692108,-0.000839939690195024,-0.02038762718439102
1761131750014154800,1.23415478515625,-0.027259862050414085,0.002825251780450344,-0.016722436994314194
1761131750024155000,1.24415478515625,-0.03214678168296814,0.005268712528049946,-0.0020616701804101467
1761131750034154800,1.25415478515625,-0.027259862050414085,0.00038179077091626823,0.010766499675810337
1761131750044154000,1.264154052734375,-0.01992947794497013,-0.0020616701804101467,0.016264287754893303
1761131750054154000,1.274154052734375,-0.015653422102332115,-0.0014508049935102463,0.013209961354732513
1761131750064154000,1.284154052734375,-0.011988230049610138,0.0009926559869199991,0.007712173741310835
1761131750074154000,1.294154052734375,-0.009544769302010536,-0.002672535367310047,-0.0038942659739404917
1761131750084154000,1.304154052734375,-0.014431691728532314,-0.004505131393671036,-0.021609358489513397
1761131750094154000,1.314154052734375,-0.01687515154480934,-0.006337726954370737,-0.03627012297511101
1761131750104154000,1.324154052734375,-0.015653422102332115,-0.00939205288887024,-0.03749185428023338
1761131750114154200,1.334154296875,-0.012599095702171326,-0.011835514567792416,-0.0264962799847126
1761131750124154400,1.344154296875,-0.014431691728532314,-0.011224648915231228,-0.007559457328170538
1761131750134154200,1.354154296875,-0.016264287754893303,-0.011224648915231228,0.009544769302010536
1761131750144155100,1.364155029296875,-0.013209961354732513,-0.004505131393671036,0.027870727702975273
1761131750154155000,1.374155029296875,-0.013209961354732513,0.002825251780450344,0.04008803144097328
1761131750164155100,1.384155029296875,-0.011988230049610138,0.0022143865935504436,0.041920628398656845
1761131750174155000,1.394155029296875,-0.005268712528049946,-0.002672535367310047,0.029703322798013687
1761131750184155100,1.404155029296875,-0.0009926559869199991,-0.012446379289031029,0.005268712528049946
1761131750194155000,1.414155029296875,-0.00038179077091626823,-0.017333300784230232,-0.022220224142074585
1761131750204155100,1.424155029296875,0.0014508049935102463,-0.014278975315392017,-0.039324451237916946
1761131750214155000,1.434155029296875,0.0069485921412706375,-0.011224648915231228,-0.04360050708055496
1761131750224155100,1.444155029296875,0.004505131393671036,-0.010002918541431427,-0.03443752974271774
1761131750234155300,1.4541552734375,-0.004046982154250145,-0.008170322515070438,-0.016111571341753006
1761131750244154400,1.464154296875,-0.010766499675810337,-0.0069485921412706375,0.006490443367511034
1761131750254154500,1.474154541015625,-0.0071013085544109344,-0.008170322515070438,0.027259862050414085
1761131750264154400,1.484154296875,0.0020616701804101467,-0.0069485921412706375,0.03764457255601883
1761131750274154500,1.494154541015625,0.01061378326267004,-0.0038942659739404917,0.03275764733552933
1761131750284154400,1.504154296875,0.016722436994314194,-0.004505131393671036,0.021762074902653694
1761131750294154500,1.514154541015625,0.017333300784230232,-0.0069485921412706375,0.005268712528049946
1761131750304154400,1.524154296875,0.01061378326267004,-0.004505131393671036,-0.0069485921412706375
1761131750314154500,1.534154541015625,0.007559457328170538,-0.0032834007870405912,-0.00939205288887024
1761131750324154400,1.544154296875,0.00939205288887024,-0.006337726954370737,-0.0014508049935102463
1761131750334154500,1.554154541015625,0.011224648915231228,-0.011835514567792416,0.010155634954571724
1761131750344155100,1.564155029296875,0.01366810966283083,-0.01488984003663063,0.018707748502492905
1761131750354155300,1.5741552734375,0.015500705689191818,-0.017333300784230232,0.021151209250092506
1761131750364155100,1.584155029296875,0.016722436994314194,-0.014278975315392017,0.018096882849931717
1761131750377543400,1.59754345703125,0.017333300784230232,-0.008781188167631626,0.013820826075971127
1761131750387543300,1.607543212890625,0.017333300784230232,-0.008781188167631626,0.010766499675810337
1761131750397543400,1.61754345703125,0.018555032089352608,-0.012446379289031029,0.013209961354732513
1761131750407543300,1.627543212890625,0.021609358489513397,-0.014278975315392017,0.015042556449770927
1761131750417543400,1.63754345703125,0.022831087931990623,-0.01488984003663063,0.012599095702171326
1761131750427543300,1.647543212890625,0.025885414332151413,-0.013057244941592216,0.005268712528049946
1761131750437543400,1.65754345703125,0.025885414332151413,-0.012446379289031029,-0.000839939690195024
1761131750447542500,1.66754248046875,0.024052819237113,-0.01366810966283083,-0.0038942659739404917
1761131750457542700,1.677542724609375,0.022220224142074585,-0.011835514567792416,-0.005115996580570936
1761131750467542500,1.68754248046875,0.022220224142074585,-0.01061378326267004,-0.005726861767470837
1761131750477542400,1.69754248046875,0.02038762718439102,-0.016111571341753006,-0.0038942659739404917
1761131750487542500,1.70754248046875,0.02038762718439102,-0.018555032089352608,-0.002672535367310047
1761131750497542400,1.71754248046875,0.016722436994314194,-0.016722436994314194,-0.002672535367310047
1761131750507542500,1.72754248046875,0.022831087931990623,-0.00939205288887024,-0.000839939690195024
1761131750517542400,1.73754248046875,0.028939740732312202,-0.005726861767470837,0.005268712528049946
1761131750527542500,1.74754248046875,0.027718011289834976,-0.000839939690195024,0.012599095702171326
1761131750537542400,1.75754248046875,0.02344195358455181,0.0016035212902352214,0.01992947794497013
1761131750547543300,1.767543212890625,0.019776761531829834,0.00038179077091626823,0.025427265092730522
1761131750557543200,1.777543212890625,0.019165897741913795,-0.0032834007870405912,0.030925052240490913
1761131750567543300,1.787543212890625,0.022831087931990623,-0.007559457328170538,0.0290924571454525
1761131750577543200,1.797543212890625,0.025885414332151413,-0.012446379289031029,0.018096882849931717
1761131750587543300,1.807543212890625,0.030161472037434578,-0.01061378326267004,0.005268712528049946
1761131750597543400,1.81754345703125,0.03260493278503418,-0.0069485921412706375,-0.0069485921412706375
1761131750607543300,1.827543212890625,0.031383201479911804,-0.008170322515070438,-0.015500705689191818
1761131750617543400,1.83754345703125,0.024663684889674187,-0.008781188167631626,-0.021609358489513397
1761131750627543300,1.847543212890625,0.019776761531829834,-0.016111571341753006,-0.02344195358455181
1761131750637543400,1.85754345703125,0.017333300784230232,-0.019165897741913795,-0.02710714563727379
1761131750647542500,1.86754248046875,0.012446379289031029,-0.016111571341753006,-0.027718011289834976
1761131750657542400,1.87754248046875,0.014278975315392017,-0.010002918541431427,-0.019776761531829834
1761131750667542500,1.88754248046875,0.019165897741913795,-0.006337726954370737,-0.0069485921412706375
1761131750677542400,1.89754248046875,0.01794416643679142,-0.0038942659739404917,0.008323038928210735
1761131750687542500,1.90754248046875,0.017333300784230232,-0.002672535367310047,0.019318614155054092
1761131750697542400,1.91754248046875,0.02038762718439102,0.0009926559869199991,0.021762074902653694
1761131750707542500,1.92754248046875,0.022220224142074585,0.00038179077091626823,0.012599095702171326
1761131750717542400,1.93754248046875,0.022220224142074585,-0.0014508049935102463,0.0022143865935504436
1761131750727542500,1.94754248046875,0.019776761531829834,-0.007559457328170538,-0.004505131393671036
1761131750737542400,1.95754248046875,0.019165897741913795,-0.008170322515070438,-0.0069485921412706375
1761131750747543300,1.967543212890625,0.014278975315392017,-0.008170322515070438,-0.0069485921412706375
1761131750757543200,1.977543212890625,0.010002918541431427,-0.01366810966283083,-0.0038942659739404917
1761131750767543300,1.987543212890625,0.004505131393671036,-0.02038762718439102,-0.000839939690195024
1761131750777543400,1.99754345703125,-0.0016035212902352214,-0.022220224142074585,0.0022143865935504436
1761131750787543300,2.007543212890625,-0.0016035212902352214,-0.019165897741913795,0.002825251780450344
1761131750797543400,2.01754345703125,0.000839939690195024,-0.008781188167631626,0.005879578180611134
1761131750807543300,2.027543212890625,0.005726861767470837,-0.00022907447419129312,0.012599095702171326
1761131750817543400,2.03754345703125,0.008170322515070438,0.004046982154250145,0.01992947794497013
1761131750827543300,2.047543212890625,0.00939205288887024,0.0016035212902352214,0.022372938692569733
1761131750837543400,2.05754345703125,0.0069485921412706375,-0.00939205288887024,0.016264287754893303
1761131750847542500,2.06754248046875,0.0032834007870405912,-0.021609358489513397,-0.00022907447419129312
1761131750857542700,2.077542724609375,-0.0022143865935504436,-0.0264962799847126,-0.022220224142074585
1761131750867542500,2.08754248046875,-0.005879578180611134,-0.022220224142074585,-0.039324451237916946
1761131750877542700,2.097542724609375,-0.012599095702171326,-0.019165897741913795,-0.04726569727063179
1761131750887542500,2.10754248046875,-0.01687515154480934,-0.017333300784230232,-0.039324451237916946
1761131750897542700,2.117542724609375,-0.016264287754893303,-0.015500705689191818,-0.02099849283695221
1761131750907542500,2.12754248046875,-0.015653422102332115,-0.016111571341753006,-0.00022907447419129312
1761131750917542700,2.137542724609375,-0.01748601719737053,-0.015500705689191818,0.016264287754893303
1761131750927542500,2.14754248046875,-0.018096882849931717,-0.01061378326267004,0.024205535650253296
1761131750937542700,2.157542724609375,-0.01748601719737053,-0.007559457328170538,0.024816401302814484
1761131750947543300,2.167543212890625,-0.015653422102332115,-0.008781188167631626,0.02054034359753132
1761131750957543400,2.17754345703125,-0.019318614155054092,-0.01061378326267004,0.008323038928210735
1761131750977543400,2.19754345703125,-0.01992947794497013,-0.01488984003663063,-0.008170322515070438
1761131750987543600,2.20754345703125,-0.02298380434513092,-0.01488984003663063,-0.015500705689191818
1761131750997543400,2.21754345703125,-0.024205535650253296,-0.013057244941592216,-0.016722436994314194
1761131751007543600,2.22754345703125,-0.021762074902653694,-0.011835514567792416,-0.015500705689191818
1761131751017543400,2.23754345703125,-0.022372938692569733,-0.013057244941592216,-0.012446379289031029
1761131751027543600,2.24754345703125,-0.02603813074529171,-0.011835514567792416,-0.006337726954370737
1761131751037543400,2.25754345703125,-0.025427265092730522,-0.01366810966283083,-0.0038942659739404917
1761131751047542800,2.267542724609375,-0.023594669997692108,-0.017333300784230232,-0.0032834007870405912
1761131751057542700,2.277542724609375,-0.02298380434513092,-0.014278975315392017,-0.01061378326267004
1761131751067542800,2.287542724609375,-0.024816401302814484,-0.011224648915231228,-0.01794416643679142
1761131751077542700,2.297542724609375,-0.021151209250092506,-0.013057244941592216,-0.018555032089352608
1761131751087542800,2.307542724609375,-0.01687515154480934,-0.01061378326267004,-0.016111571341753006
1761131751097542700,2.317542724609375,-0.016264287754893303,-0.005726861767470837,-0.00939205288887024
1761131751107542800,2.327542724609375,-0.015653422102332115,-0.005726861767470837,-0.0014508049935102463
1761131751117542700,2.337542724609375,-0.018707748502492905,-0.004505131393671036,0.0016035212902352214
1761131751127542800,2.347542724609375,-0.02054034359753132,-0.006337726954370737,-0.0020616701804101467
1761131751137542700,2.357542724609375,-0.021762074902653694,-0.011224648915231228,-0.01366810966283083
1761131751147543600,2.36754345703125,-0.022372938692569733,-0.007559457328170538,-0.019776761531829834
1761131751157543700,2.377543701171875,-0.018096882849931717,-0.0014508049935102463,-0.022831087931990623
1761131751167543600,2.38754345703125,-0.013209961354732513,-0.00022907447419129312,-0.016111571341753006
1761131751177543700,2.397543701171875,-0.010766499675810337,0.004046982154250145,-0.005726861767470837
1761131751187543600,2.40754345703125,-0.008323038928210735,0.006490443367511034,0.01748601719737053
1761131751197543700,2.417543701171875,-0.0034361169673502445,0.007712173741310835,0.027259862050414085
1761131751207543600,2.42754345703125,-0.004046982154250145,0.008323038928210735,0.0290924571454525
1761131751217543700,2.437543701171875,-0.005879578180611134,0.004046982154250145,0.01992947794497013
1761131751227543600,2.44754345703125,0.00022907447419129312,0.0034361169673502445,0.004046982154250145
1761131751237543700,2.457543701171875,0.0032834007870405912,-0.00022907447419129312,-0.01794416643679142
1761131751247542800,2.467542724609375,0.0014508049935102463,-0.0032834007870405912,-0.03565925732254982
1761131751257542700,2.477542724609375,-0.0022143865935504436,-0.0032834007870405912,-0.04787656292319298
1761131751267542800,2.487542724609375,-0.0034361169673502445,-0.002672535367310047,-0.04421137273311615
1761131751277542700,2.497542724609375,-0.005879578180611134,-0.0014508049935102463,-0.03260493278503418
1761131751287542800,2.507542724609375,-0.008323038928210735,0.0034361169673502445,-0.014278975315392017
1761131751297542700,2.517542724609375,-0.005268712528049946,0.009544769302010536,0.005879578180611134
1761131751307542800,2.527542724609375,0.0014508049935102463,0.015653422102332115,0.02298380434513092
1761131751317542700,2.537542724609375,0.005115996580570936,0.018096882849931717,0.030925052240490913
1761131751327542800,2.547542724609375,0.008781188167631626,0.018707748502492905,0.030925052240490913
1761131751337542700,2.557542724609375,0.01366810966283083,0.015042556449770927,0.018096882849931717
1761131751347543600,2.56754345703125,0.018555032089352608,0.018096882849931717,0.005879578180611134
1761131751357543400,2.57754345703125,0.02038762718439102,0.018096882849931717,-0.0038942659739404917
1761131751367543600,2.58754345703125,0.02099849283695221,0.015653422102332115,-0.006337726954370737
1761131751377543400,2.59754345703125,0.01794416643679142,0.012599095702171326,-0.0032834007870405912
1761131751387543600,2.60754345703125,0.015500705689191818,0.011988230049610138,0.0034361169673502445
1761131751397543400,2.61754345703125,0.01366810966283083,0.011988230049610138,0.006490443367511034
1761131751407543600,2.62754345703125,0.007559457328170538,0.013209961354732513,0.0071013085544109344
1761131751417543400,2.63754345703125,0.0020616701804101467,0.011988230049610138,0.00038179077091626823
1761131751427543600,2.64754345703125,0.0014508049935102463,0.005879578180611134,0.005268712528049946
1761131751437543400,2.65754345703125,0.011835514567792416,0.011377365328371525,0.014431691728532314
1761131751447542500,2.66754248046875,0.022831087931990623,0.018096882849931717,0.024205535650253296
1761131751457542700,2.677542724609375,0.027718011289834976,0.01687515154480934,0.029703322798013687
1761131751467542500,2.68754248046875,0.02344195358455181,0.014431691728532314,0.025427265092730522
1761131751477542700,2.697542724609375,0.019776761531829834,0.008933904580771923,0.014431691728532314
1761131751487542500,2.70754248046875,0.016722436994314194,0.005268712528049946,-0.00022907447419129312
1761131751497542700,2.717542724609375,0.010002918541431427,0.0016035212902352214,-0.01794416643679142
1761131751507542500,2.72754248046875,0.0020616701804101467,0.0071013085544109344,-0.027718011289834976
1761131751517542700,2.737542724609375,-0.002825251780450344,0.006490443367511034,-0.0264962799847126
1761131751527542500,2.74754248046875,-0.0016035212902352214,0.006490443367511034,-0.011835514567792416
1761131751537542700,2.757542724609375,-0.0009926559869199991,0.007712173741310835,0.005879578180611134
1761131751547543600,2.76754345703125,0.002672535367310047,0.008933904580771923,0.01748601719737053
1761131751557543400,2.77754345703125,0.004505131393671036,0.013209961354732513,0.024205535650253296
1761131751567543600,2.78754345703125,0.008170322515070438,0.015042556449770927,0.029703322798013687
1761131751577543400,2.79754345703125,0.008170322515070438,0.011988230049610138,0.02848159149289131
1761131751587543600,2.80754345703125,0.007559457328170538,0.010155634954571724,0.024816401302814484
1761131751597543400,2.81754345703125,0.0038942659739404917,0.007712173741310835,0.01992947794497013
1761131751607543600,2.82754345703125,-0.00038179077091626823,0.008323038928210735,0.011377365328371525
1761131751617543400,2.83754345703125,-0.008323038928210735,0.007712173741310835,0.00038179077091626823
1761131751627543600,2.84754345703125,-0.015042556449770927,0.0009926559869199991,-0.00939205288887024
1761131751637543400,2.85754345703125,-0.015042556449770927,-0.00022907447419129312,-0.011835514567792416
1761131751647542500,2.86754248046875,-0.012599095702171326,-0.002672535367310047,-0.005726861767470837
1761131751657542700,2.877542724609375,-0.008933904580771923,-0.005115996580570936,0.004657847341150045
1761131751667542500,2.88754248046875,-0.011377365328371525,-0.0020616701804101467,0.005268712528049946
1761131751677542700,2.897542724609375,-0.016264287754893303,-0.0014508049935102463,0.004046982154250145
1761131751687542500,2.90754248046875,-0.012599095702171326,-0.002672535367310047,0.005268712528049946
1761131751697542700,2.917542724609375,-0.010155634954571724,-0.006337726954370737,0.005268712528049946
1761131751707542500,2.92754248046875,-0.005879578180611134,-0.011224648915231228,-0.00022907447419129312
1761131751717542700,2.937542724609375,-0.004657847341150045,-0.010002918541431427,-0.012446379289031029
1761131751727542500,2.94754248046875,-0.006490443367511034,-0.004505131393671036,-0.019165897741913795
1761131751737542700,2.957542724609375,-0.009544769302010536,-0.004505131393671036,-0.024052819237113
1761131751747543300,2.967543212890625,-0.013209961354732513,-0.006337726954370737,-0.022831087931990623
1761131751757543400,2.97754345703125,-0.018096882849931717,-0.008170322515070438,-0.018555032089352608
1761131751767543300,2.987543212890625,-0.01992947794497013,-0.007559457328170538,-0.014278975315392017
1761131751777543400,2.99754345703125,-0.01687515154480934,-0.002672535367310047,-0.007559457328170538
1761131751787543300,3.007543212890625,-0.016264287754893303,-0.00022907447419129312,-0.0069485921412706375
1761131751797543400,3.01754345703125,-0.01687515154480934,-0.0014508049935102463,-0.010002918541431427
1761131751807543300,3.027543212890625,-0.015653422102332115,0.00038179077091626823,-0.011835514567792416
1761131751817543400,3.03754345703125,-0.015042556449770927,-0.000839939690195024,-0.013057244941592216
1761131751827543300,3.047543212890625,-0.014431691728532314,-0.0038942659739404917,-0.01488984003663063
1761131751837543400,3.05754345703125,-0.013209961354732513,-0.0020616701804101467,-0.013057244941592216
1761131751847542500,3.06754248046875,-0.009544769302010536,-0.005115996580570936,-0.014278975315392017
1761131751857542700,3.077542724609375,-0.008933904580771923,-0.00939205288887024,-0.017333300784230232
1761131751867542500,3.08754248046875,-0.009544769302010536,-0.01061378326267004,-0.02710714563727379
1761131751877542700,3.097542724609375,-0.009544769302010536,-0.01061378326267004,-0.03810271993279457
1761131751887542500,3.10754248046875,-0.005268712528049946,-0.0069485921412706375,-0.05337435007095337
1761131751897542700,3.117542724609375,-0.0009926559869199991,-0.010002918541431427,-0.054596081376075745
1761131751907542500,3.12754248046875,-0.0016035212902352214,-0.012446379289031029,-0.05398521572351456
1761131751917542700,3.137542724609375,-0.005879578180611134,-0.008781188167631626,-0.05276348441839218
1761131751927542500,3.14754248046875,-0.010155634954571724,-0.005726861767470837,-0.05032002553343773
1761131751937542700,3.157542724609375,-0.013820826075971127,-0.00022907447419129312,-0.04360050708055496
1761131751947543600,3.16754345703125,-0.013820826075971127,0.0022143865935504436,-0.03627012297511101
1761131751957543400,3.17754345703125,-0.009544769302010536,0.004657847341150045,-0.027718011289834976
1761131751967543600,3.18754345703125,-0.00038179077091626823,0.0034361169673502445,-0.02344195358455181
1761131751987543600,3.20754345703125,0.0038942659739404917,0.0009926559869199991,-0.02955060638487339
1761131751997543400,3.21754345703125,0.008781188167631626,-0.000839939690195024,-0.03443752974271774
1761131752007543600,3.22754345703125,0.00939205288887024,-0.0020616701804101467,-0.03565925732254982
1761131752017543400,3.23754345703125,0.010002918541431427,-0.006337726954370737,-0.02955060638487339
1761131752027543600,3.24754345703125,0.0069485921412706375,-0.013057244941592216,-0.025885414332151413
1761131752037543400,3.25754345703125,0.0014508049935102463,-0.013057244941592216,-0.024052819237113
1761131752047542500,3.26754248046875,-0.004657847341150045,-0.010002918541431427,-0.01794416643679142
1761131752057542700,3.277542724609375,-0.006490443367511034,-0.0032834007870405912,-0.008781188167631626
1761131752067542500,3.28754248046875,-0.0016035212902352214,0.0009926559869199991,0.0022143865935504436
1761131752077542700,3.297542724609375,0.0038942659739404917,0.005268712528049946,0.013209961354732513
1761131752087542800,3.307542724609375,0.01061378326267004,0.004657847341150045,0.02298380434513092
1761131752097542700,3.317542724609375,0.021609358489513397,-0.000839939690195024,0.02848159149289131
1761131752107542800,3.327542724609375,0.0264962799847126,-0.00939205288887024,0.019318614155054092
1761131752117542700,3.337542724609375,0.019776761531829834,-0.012446379289031029,-0.007559457328170538
1761131752127542800,3.347542724609375,0.011835514567792416,-0.01061378326267004,-0.030161472037434578
1761131752137542700,3.357542724609375,0.005726861767470837,-0.0069485921412706375,-0.03871358558535576
1761131752147543600,3.36754345703125,0.00022907447419129312,-0.0069485921412706375,-0.033826664090156555
1761131752157543400,3.37754345703125,-0.0016035212902352214,-0.008781188167631626,-0.01794416643679142
1761131752167543600,3.38754345703125,0.000839939690195024,-0.005726861767470837,0.0022143865935504436
1761131752177543400,3.39754345703125,0.006337726954370737,-0.0020616701804101467,0.021151209250092506
1761131752187543600,3.40754345703125,0.008781188167631626,0.0034361169673502445,0.033368512988090515
1761131752197543400,3.41754345703125,0.010002918541431427,0.0034361169673502445,0.035811975598335266
1761131752207543600,3.42754345703125,0.01366810966283083,0.0009926559869199991,0.03275764733552933
1761131752217543400,3.43754345703125,0.017333300784230232,-0.002672535367310047,0.026648996397852898
1761131752227543600,3.44754345703125,0.018555032089352608,-0.0069485921412706375,0.019318614155054092
1761131752237543400,3.45754345703125,0.018555032089352608,-0.005115996580570936,0.016264287754893303
1761131752247542500,3.46754248046875,0.016111571341753006,-0.0032834007870405912,0.015653422102332115
1761131752257542700,3.477542724609375,0.011224648915231228,-0.0014508049935102463,0.018096882849931717
1761131752267542500,3.48754248046875,0.007559457328170538,-0.0014508049935102463,0.02054034359753132
1761131752277542700,3.497542724609375,0.00939205288887024,0.00038179077091626823,0.021151209250092506
1761131752287542500,3.50754248046875,0.011224648915231228,-0.00022907447419129312,0.018096882849931717
1761131752297542700,3.517542724609375,0.011835514567792416,-0.0020616701804101467,0.011377365328371525
1761131752307542500,3.52754248046875,0.014278975315392017,-0.002672535367310047,0.006490443367511034
1761131752317542700,3.537542724609375,0.016111571341753006,-0.0014508049935102463,0.0022143865935504436
1761131752327542500,3.54754248046875,0.019776761531829834,-0.0020616701804101467,0.0022143865935504436
1761131752337542700,3.557542724609375,0.017333300784230232,-0.002672535367310047,0.004046982154250145
1761131752347543600,3.56754345703125,0.01488984003663063,-0.0014508049935102463,0.005879578180611134
1761131752357543400,3.57754345703125,0.01061378326267004,-0.002672535367310047,0.0009926559869199991
1761131752367543600,3.58754345703125,0.0032834007870405912,0.00038179077091626823,-0.008781188167631626
1761131752377543400,3.59754345703125,0.000839939690195024,-0.0020616701804101467,-0.01488984003663063
1761131752387543600,3.60754345703125,0.0014508049935102463,-0.005726861767470837,-0.015500705689191818
1761131752397543400,3.61754345703125,0.002672535367310047,-0.002672535367310047,-0.007559457328170538
1761131752407543600,3.62754345703125,0.0032834007870405912,0.0016035212902352214,0.002825251780450344
1761131752417543400,3.63754345703125,0.0032834007870405912,0.007712173741310835,0.01687515154480934
1761131752427543600,3.64754345703125,0.0032834007870405912,0.010766499675810337,0.030314188450574875
1761131752437543400,3.65754345703125,0.005726861767470837,0.009544769302010536,0.04314235970377922
1761131752447542500,3.66754248046875,0.0069485921412706375,0.004657847341150045,0.05047274008393288
1761131752457542700,3.677542724609375,0.006337726954370737,-0.0069485921412706375,0.04864014685153961
1761131752467542500,3.68754248046875,0.005726861767470837,-0.016111571341753006,0.03703370690345764
1761131752477542700,3.697542724609375,0.0038942659739404917,-0.016111571341753006,0.01687515154480934
1761131752487542500,3.70754248046875,0.005115996580570936,-0.01794416643679142,-0.000839939690195024
1761131752497542700,3.717542724609375,0.0038942659739404917,-0.016722436994314194,-0.01366810966283083
1761131752507542500,3.72754248046875,0.004505131393671036,-0.016111571341753006,-0.017333300784230232
1761131752517542700,3.737542724609375,0.004505131393671036,-0.01488984003663063,-0.01061378326267004
1761131752527542500,3.74754248046875,-0.00038179077091626823,-0.018555032089352608,-0.006337726954370737
1761131752537542700,3.757542724609375,-0.006490443367511034,-0.019776761531829834,-0.005115996580570936
1761131752547543600,3.76754345703125,-0.0071013085544109344,-0.01488984003663063,-0.006337726954370737
1761131752557543400,3.77754345703125,-0.004657847341150045,-0.00939205288887024,-0.005726861767470837
1761131752567543600,3.78754345703125,-0.0009926559869199991,-0.004505131393671036,-0.0020616701804101467
1761131752577543400,3.79754345703125,0.0014508049935102463,-0.0032834007870405912,0.011377365328371525
1761131752587543600,3.80754345703125,0.005726861767470837,-0.005115996580570936,0.018707748502492905
1761131752597543400,3.81754345703125,0.008781188167631626,-0.000839939690195024,0.024816401302814484
1761131752607543600,3.82754345703125,0.00939205288887024,-0.000839939690195024,0.026648996397852898
1761131752617543400,3.83754345703125,0.005115996580570936,-0.01061378326267004,0.027259862050414085
1761131752627543600,3.84754345703125,0.0020616701804101467,-0.012446379289031029,0.022372938692569733
1761131752637543400,3.85754345703125,-0.00038179077091626823,-0.007559457328170538,0.014431691728532314
1761131752647542500,3.86754248046875,0.0020616701804101467,-0.004505131393671036,0.0071013085544109344
1761131752657542700,3.877542724609375,0.0020616701804101467,-0.005115996580570936,0.0034361169673502445
1761131752667542500,3.88754248046875,0.002672535367310047,-0.005726861767470837,0.006490443367511034
1761131752677542700,3.897542724609375,0.0020616701804101467,-0.0032834007870405912,0.011377365328371525
1761131752687542500,3.90754248046875,0.0038942659739404917,0.0022143865935504436,0.019318614155054092
1761131752697542700,3.917542724609375,0.0038942659739404917,0.010155634954571724,0.025427265092730522
1761131752707542500,3.92754248046875,0.005726861767470837,0.010766499675810337,0.0290924571454525
1761131752717542700,3.937542724609375,0.004505131393671036,0.005879578180611134,0.02298380434513092
1761131752727542500,3.94754248046875,0.002672535367310047,0.0009926559869199991,0.013209961354732513
1761131752737542700,3.957542724609375,0.002672535367310047,-0.0020616701804101467,-0.000839939690195024
1761131752747543600,3.96754345703125,0.004505131393671036,0.00038179077091626823,-0.015500705689191818
1761131752757543400,3.97754345703125,0.002672535367310047,0.002825251780450344,-0.0264962799847126
1761131752767543300,3.987543212890625,-0.0022143865935504436,0.004046982154250145,-0.02955060638487339
1761131752777543400,3.99754345703125,-0.004657847341150045,0.006490443367511034,-0.01794416643679142
1761131752787543600,4.00754345703125,-0.0009926559869199991,0.007712173741310835,0.0016035212902352214
1761131752797543400,4.01754345703125,0.002672535367310047,0.009544769302010536,0.01748601719737053
1761131752807543300,4.027543212890625,0.0069485921412706375,0.014431691728532314,0.024205535650253296
1761131752817543400,4.03754345703125,0.011835514567792416,0.018096882849931717,0.024205535650253296
1761131752827543600,4.04754345703125,0.013057244941592216,0.015042556449770927,0.024205535650253296
1761131752837543400,4.05754345703125,0.014278975315392017,0.013209961354732513,0.018707748502492905
1761131752847542500,4.06754248046875,0.016722436994314194,0.018707748502492905,0.011988230049610138
1761131752857542700,4.077542724609375,0.01794416643679142,0.024205535650253296,0.008323038928210735
1761131752867542500,4.08754248046875,0.01488984003663063,0.025427265092730522,0.009544769302010536
1761131752877542700,4.097542724609375,0.01061378326267004,0.021762074902653694,0.011988230049610138
1761131752887542500,4.10754248046875,0.004505131393671036,0.018707748502492905,0.013820826075971127
1761131752897542700,4.117542724609375,0.004505131393671036,0.012599095702171326,0.008933904580771923
1761131752907542500,4.12754248046875,0.007559457328170538,0.013820826075971127,-0.000839939690195024
1761131752917542700,4.137542724609375,0.01061378326267004,0.018096882849931717,-0.011835514567792416
1761131752927542500,4.14754248046875,0.012446379289031029,0.022372938692569733,-0.01488984003663063
1761131752937542700,4.157542724609375,0.01366810966283083,0.02603813074529171,-0.011224648915231228
1761131752947543300,4.167543212890625,0.015500705689191818,0.027870727702975273,0.0016035212902352214
1761131752957543400,4.17754345703125,0.01488984003663063,0.026648996397852898,0.018096882849931717
1761131752967543600,4.18754345703125,0.01061378326267004,0.024205535650253296,0.027870727702975273
1761131752977543400,4.19754345703125,0.008170322515070438,0.02054034359753132,0.025427265092730522
1761131752987543600,4.20754345703125,0.002672535367310047,0.019318614155054092,0.014431691728532314
1761131752997543400,4.21754345703125,0.00022907447419129312,0.01992947794497013,-0.002672535367310047
1761131753007543600,4.22754345703125,-0.0022143865935504436,0.021762074902653694,-0.024052819237113
1761131753017543400,4.23754345703125,-0.004657847341150045,0.026648996397852898,-0.03627012297511101
1761131753027543600,4.24754345703125,-0.006490443367511034,0.029703322798013687,-0.030772335827350616
1761131753037543400,4.25754345703125,-0.0009926559869199991,0.029703322798013687,-0.011835514567792416
1761131753047542500,4.26754248046875,0.0032834007870405912,0.030314188450574875,0.021151209250092506
1761131753057542700,4.277542724609375,-0.0009926559869199991,0.027870727702975273,0.03275764733552933
1761131753067542500,4.28754248046875,0.000839939690195024,0.03275764733552933,0.036422841250896454
1761131753077542700,4.297542724609375,0.000839939690195024,0.030314188450574875,0.0339793786406517
1761131753087542500,4.30754248046875,-0.00038179077091626823,0.024205535650253296,0.023594669997692108
1761131753097542700,4.317542724609375,-0.004657847341150045,0.021151209250092506,0.0071013085544109344
1761131753107542500,4.32754248046875,-0.004657847341150045,0.019318614155054092,-0.005726861767470837
1761131753117542700,4.337542724609375,-0.0022143865935504436,0.015653422102332115,-0.011224648915231228
1761131753127542500,4.34754248046875,-0.0022143865935504436,0.011377365328371525,-0.014278975315392017
1761131753137542700,4.357542724609375,-0.004046982154250145,0.008323038928210735,-0.02099849283695221
1761131753147543600,4.36754345703125,-0.008323038928210735,0.004046982154250145,-0.030161472037434578
1761131753157543400,4.37754345703125,-0.010155634954571724,0.0022143865935504436,-0.03810271993279457
1761131753167543600,4.38754345703125,-0.012599095702171326,0.0071013085544109344,-0.039935316890478134
1761131753177543400,4.39754345703125,-0.013209961354732513,0.010766499675810337,-0.03749185428023338
1761131753187543600,4.40754345703125,-0.015042556449770927,0.01687515154480934,-0.02710714563727379
1761131753197543400,4.41754345703125,-0.015042556449770927,0.021151209250092506,-0.0069485921412706375
1761131753207543600,4.42754345703125,-0.011988230049610138,0.024205535650253296,0.01687515154480934
1761131753217543400,4.43754345703125,-0.007712173741310835,0.024205535650253296,0.033368512988090515
1761131753227543600,4.44754345703125,-0.009544769302010536,0.016264287754893303,0.03703370690345764
1761131753237543400,4.45754345703125,-0.004657847341150045,0.014431691728532314,0.029703322798013687
1761131753247542500,4.46754248046875,-0.002825251780450344,0.009544769302010536,0.021151209250092506
1761131753257542700,4.477542724609375,-0.0071013085544109344,0.0022143865935504436,0.010766499675810337
1761131753267542500,4.48754248046875,-0.01748601719737053,0.00038179077091626823,0.0016035212902352214
1761131753277542700,4.497542724609375,-0.026648996397852898,-0.0032834007870405912,0.00038179077091626823
1761131753287542500,4.50754248046875,-0.029703322798013687,-0.004505131393671036,0.010155634954571724
1761131753297542700,4.517542724609375,-0.02848159149289131,-0.005115996580570936,0.021762074902653694
1761131753307542500,4.52754248046875,-0.026648996397852898,-0.005115996580570936,0.030314188450574875
1761131753317542700,4.537542724609375,-0.023594669997692108,0.0022143865935504436,0.036422841250896454
1761131753327542500,4.54754248046875,-0.02298380434513092,0.006490443367511034,0.04130976274609566
1761131753337542700,4.557542724609375,-0.01748601719737053,0.005879578180611134,0.04864014685153961
1761131753347543600,4.56754345703125,-0.016264287754893303,-0.0032834007870405912,0.041920628398656845
1761131753357543400,4.57754345703125,-0.016264287754893303,-0.014278975315392017,0.023594669997692108
1761131753367543600,4.58754345703125,-0.019318614155054092,-0.02038762718439102,-0.0038942659739404917
1761131753377543400,4.59754345703125,-0.022372938692569733,-0.019776761531829834,-0.03199406713247299
1761131753387543300,4.607543212890625,-0.025427265092730522,-0.01488984003663063,-0.048487428575754166
1761131753397543400,4.61754345703125,-0.029703322798013687,-0.008170322515070438,-0.04726569727063179
1761131753407543300,4.627543212890625,-0.029703322798013687,-0.002672535367310047,-0.0264962799847126
1761131753417543400,4.63754345703125,-0.02848159149289131,0.0009926559869199991,0.0034361169673502445
1761131753427543300,4.647543212890625,-0.030925052240490913,-0.0020616701804101467,0.03214678168296814
1761131753437543400,4.65754345703125,-0.0290924571454525,-0.0069485921412706375,0.048029281198978424
1761131753447542500,4.66754248046875,-0.02603813074529171,-0.008170322515070438,0.04619668424129486
1761131753457542700,4.677542724609375,-0.01748601719737053,-0.0069485921412706375,0.030314188450574875
1761131753467542500,4.68754248046875,-0.010155634954571724,-0.008781188167631626,0.013820826075971127
1761131753477542700,4.697542724609375,-0.005879578180611134,-0.011224648915231228,0.0009926559869199991
1761131753487542500,4.70754248046875,-0.004657847341150045,-0.007559457328170538,0.00038179077091626823
1761131753497542700,4.717542724609375,-0.008933904580771923,-0.008781188167631626,0.002825251780450344
1761131753507542500,4.72754248046875,-0.013820826075971127,-0.010002918541431427,0.014431691728532314
1761131753517542700,4.737542724609375,-0.01687515154480934,-0.02038762718439102,0.02054034359753132
1761131753527542500,4.74754248046875,-0.01748601719737053,-0.024663684889674187,0.019318614155054092
1761131753537542700,4.757542724609375,-0.012599095702171326,-0.0264962799847126,0.012599095702171326
1761131753547543300,4.767543212890625,-0.005268712528049946,-0.021609358489513397,0.0016035212902352214
1761131753557543400,4.77754345703125,0.000839939690195024,-0.013057244941592216,-0.007559457328170538
1761131753567543300,4.787543212890625,0.005726861767470837,-0.00939205288887024,-0.010002918541431427
1761131753577543400,4.79754345703125,0.010002918541431427,-0.01366810966283083,-0.0069485921412706375
1761131753587543300,4.807543212890625,0.013057244941592216,-0.015500705689191818,-0.000839939690195024
1761131753597543400,4.81754345703125,0.016111571341753006,-0.018555032089352608,0.00038179077091626823
1761131753607543600,4.82754345703125,0.014278975315392017,-0.019776761531829834,-0.0020616701804101467
1761131753617543400,4.83754345703125,0.011224648915231228,-0.018555032089352608,-0.008170322515070438
1761131753627543600,4.84754345703125,0.006337726954370737,-0.015500705689191818,-0.01488984003663063
1761131753637543400,4.85754345703125,0.0032834007870405912,-0.014278975315392017,-0.02038762718439102
1761131753647542500,4.86754248046875,0.004505131393671036,-0.01366810966283083,-0.02038762718439102
1761131753657542700,4.877542724609375,0.0069485921412706375,-0.014278975315392017,-0.011835514567792416
1761131753667542500,4.88754248046875,0.01366810966283083,-0.013057244941592216,-0.002672535367310047
1761131753677542700,4.897542724609375,0.015500705689191818,-0.011835514567792416,0.0022143865935504436
1761131753687542500,4.90754248046875,0.016111571341753006,-0.012446379289031029,0.0034361169673502445
1761131753697542700,4.917542724609375,0.021609358489513397,-0.012446379289031029,0.00038179077091626823
1761131753707542500,4.92754248046875,0.024052819237113,-0.012446379289031029,-0.0032834007870405912
1761131753717542700,4.937542724609375,0.02344195358455181,-0.013057244941592216,-0.005726861767470837
1761131753727542500,4.94754248046875,0.01794416643679142,-0.01366810966283083,-0.00939205288887024
1761131753737542700,4.957542724609375,0.011835514567792416,-0.014278975315392017,-0.02038762718439102
1761131753747543300,4.967543212890625,0.013057244941592216,-0.013057244941592216,-0.030772335827350616
1761131753757543400,4.97754345703125,0.018555032089352608,-0.013057244941592216,-0.03627012297511101
1761131753767543300,4.987543212890625,0.02344195358455181,-0.02038762718439102,-0.03749185428023338
1761131753777543400,4.99754345703125,0.025274548679590225,-0.027718011289834976,-0.03871358558535576
1761131753787543300,5.007543212890625,0.024052819237113,-0.030161472037434578,-0.03871358558535576
1761131753797543400,5.01754345703125,0.019165897741913795,-0.02955060638487339,-0.03627012297511101
1761131753807543300,5.027543212890625,0.011835514567792416,-0.021609358489513397,-0.03321579843759537
1761131753817543400,5.03754345703125,0.005115996580570936,-0.01061378326267004,-0.022220224142074585
1761131753827543300,5.047543212890625,0.006337726954370737,-0.0032834007870405912,-0.008781188167631626
1761131753837543400,5.05754345703125,0.011835514567792416,-0.000839939690195024,0.0034361169673502445
1761131753847542500,5.06754248046875,0.01488984003663063,-0.000839939690195024,0.008933904580771923
1761131753857542700,5.077542724609375,0.016722436994314194,-0.0020616701804101467,0.005268712528049946
1761131753867542500,5.08754248046875,0.018555032089352608,-0.004505131393671036,-0.0032834007870405912
1761131753877542700,5.097542724609375,0.021609358489513397,-0.008170322515070438,-0.016111571341753006
1761131753887542500,5.10754248046875,0.021609358489513397,-0.011224648915231228,-0.030161472037434578
1761131753897542700,5.117542724609375,0.02038762718439102,-0.011224648915231228,-0.045433104038238525
1761131753907542500,5.12754248046875,0.01794416643679142,-0.007559457328170538,-0.054596081376075745
1761131753917542700,5.137542724609375,0.015500705689191818,-0.006337726954370737,-0.05642867833375931
1761131753927542500,5.14754248046875,0.012446379289031029,-0.005726861767470837,-0.05398521572351456
1761131753937542700,5.157542724609375,0.005115996580570936,-0.010002918541431427,-0.04237877577543259
1761131753947543300,5.167543212890625,-0.0016035212902352214,-0.030772335827350616,-0.030161472037434578
1761131753957543400,5.17754345703125,0.00022907447419129312,-0.04604396969079971,-0.019165897741913795
1761131753967543600,5.18754345703125,0.006337726954370737,-0.04360050708055496,-0.012446379289031029
1761131753977543400,5.19754345703125,0.025274548679590225,-0.007559457328170538,-0.022831087931990623
1761131753987543300,5.207543212890625,0.024052819237113,0.002825251780450344,-0.030772335827350616
1761131753997543400,5.21754345703125,0.019165897741913795,-0.0069485921412706375,-0.03443752974271774
1761131754007543300,5.227543212890625,0.015500705689191818,-0.0069485921412706375,-0.02955060638487339
1761131754017543400,5.23754345703125,0.013057244941592216,-0.008170322515070438,-0.025885414332151413
1761131754027543300,5.247543212890625,0.006337726954370737,-0.021609358489513397,-0.027718011289834976
1761131754037543400,5.25754345703125,-0.0009926559869199991,-0.016722436994314194,-0.027718011289834976
1761131754047542500,5.26754248046875,-0.006490443367511034,-0.005726861767470837,-0.031383201479911804
1761131754057542700,5.277542724609375,-0.007712173741310835,0.007712173741310835,-0.03749185428023338
1761131754077542700,5.297542724609375,-0.002825251780450344,-0.0020616701804101467,-0.022831087931990623
1761131754087542500,5.30754248046875,0.002672535367310047,-0.0038942659739404917,-0.005726861767470837
1761131754097542700,5.317542724609375,0.008781188167631626,0.0016035212902352214,0.009544769302010536
1761131754107542500,5.32754248046875,0.010002918541431427,0.006490443367511034,0.01687515154480934
1761131754117542700,5.337542724609375,0.005115996580570936,0.006490443367511034,0.018707748502492905
1761131754127542500,5.34754248046875,-0.00038179077091626823,-0.004505131393671036,0.015653422102332115
1761131754137542700,5.357542724609375,-0.007712173741310835,-0.010002918541431427,0.0016035212902352214
1761131754147543300,5.367543212890625,-0.011988230049610138,-0.011224648915231228,-0.016111571341753006
1761131754157543400,5.37754345703125,-0.007712173741310835,-0.008170322515070438,-0.0264962799847126
1761131754167543300,5.387543212890625,0.00022907447419129312,-0.005726861767470837,-0.027718011289834976
1761131754177543400,5.39754345703125,0.002672535367310047,-0.0069485921412706375,-0.01794416643679142
1761131754187543300,5.407543212890625,0.00022907447419129312,-0.008781188167631626,-0.005726861767470837
1761131754197543400,5.41754345703125,0.0014508049935102463,-0.01061378326267004,0.006490443367511034
1761131754207543300,5.427543212890625,-0.00038179077091626823,-0.004505131393671036,0.019318614155054092
1761131754217543400,5.43754345703125,0.000839939690195024,-0.000839939690195024,0.02054034359753132
1761131754227543300,5.447543212890625,-0.005268712528049946,0.0022143865935504436,0.015653422102332115
1761131754237543400,5.45754345703125,-0.006490443367511034,0.0022143865935504436,0.008323038928210735
1761131754247542500,5.46754248046875,-0.005268712528049946,-0.0032834007870405912,-0.002672535367310047
1761131754257542700,5.477542724609375,-0.0016035212902352214,-0.005726861767470837,-0.016111571341753006
1761131754267542500,5.48754248046875,0.0020616701804101467,-0.006337726954370737,-0.02710714563727379
1761131754277542700,5.497542724609375,-0.0009926559869199991,-0.00022907447419129312,-0.0264962799847126
1761131754287542500,5.50754248046875,-0.0071013085544109344,0.008323038928210735,-0.019165897741913795
1761131754297542700,5.517542724609375,-0.008323038928210735,0.004657847341150045,-0.0032834007870405912
1761131754307542500,5.52754248046875,-0.004657847341150045,-0.00939205288887024,0.013820826075971127
1761131754317542700,5.537542724609375,-0.0009926559869199991,-0.011835514567792416,0.022372938692569733
1761131754327542500,5.54754248046875,0.0014508049935102463,-0.000839939690195024,0.021762074902653694
1761131754337542700,5.557542724609375,0.0020616701804101467,0.013209961354732513,0.018707748502492905
1761131754347543600,5.56754345703125,0.000839939690195024,0.018707748502492905,0.01992947794497013
1761131754357543400,5.57754345703125,-0.005268712528049946,0.007712173741310835,0.019318614155054092
1761131754367543600,5.58754345703125,-0.004046982154250145,-0.0069485921412706375,0.021151209250092506
1761131754377543400,5.59754345703125,-0.004657847341150045,-0.008781188167631626,0.016264287754893303
1761131754387543300,5.607543212890625,-0.009544769302010536,0.004046982154250145,0.006490443367511034
1761131754397543400,5.61754345703125,-0.015042556449770927,0.015653422102332115,-0.00022907447419129312
1761131754407543300,5.627543212890625,-0.015653422102332115,0.012599095702171326,-0.0038942659739404917
1761131754417543400,5.63754345703125,-0.015653422102332115,0.0071013085544109344,-0.005115996580570936
1761131754427543600,5.64754345703125,-0.018096882849931717,0.006490443367511034,-0.010002918541431427
1761131754437543400,5.65754345703125,-0.012599095702171326,0.004046982154250145,-0.01488984003663063
1761131754447542500,5.66754248046875,-0.0071013085544109344,0.010155634954571724,-0.016722436994314194
1761131754457542700,5.677542724609375,-0.008933904580771923,0.013820826075971127,-0.01366810966283083
1761131754467542500,5.68754248046875,-0.0071013085544109344,0.015653422102332115,-0.0038942659739404917
1761131754477542700,5.697542724609375,-0.0016035212902352214,0.01687515154480934,0.011377365328371525
1761131754487542500,5.70754248046875,0.0020616701804101467,0.019318614155054092,0.027259862050414085
1761131754497542700,5.717542724609375,-0.0016035212902352214,0.01687515154480934,0.03703370690345764
1761131754507542500,5.72754248046875,-0.007712173741310835,0.011377365328371525,0.038866300135850906
1761131754517542700,5.737542724609375,-0.016264287754893303,0.0071013085544109344,0.0290924571454525
1761131754527542500,5.74754248046875,-0.022372938692569733,0.010155634954571724,0.012599095702171326
1761131754537542700,5.757542724609375,-0.022372938692569733,0.011377365328371525,-0.005726861767470837
1761131754547543600,5.76754345703125,-0.01992947794497013,0.015653422102332115,-0.017333300784230232
1761131754557543400,5.77754345703125,-0.02054034359753132,0.015653422102332115,-0.018555032089352608
1761131754567543600,5.78754345703125,-0.019318614155054092,0.015653422102332115,-0.008781188167631626
1761131754577543400,5.79754345703125,-0.011988230049610138,0.013209961354732513,0.008323038928210735
1761131754587543600,5.80754345703125,-0.005879578180611134,0.01748601719737053,0.027259862050414085
1761131754597543400,5.81754345703125,0.0020616701804101467,0.025427265092730522,0.04253149405121803
1761131754607543600,5.82754345703125,0.002672535367310047,0.030925052240490913,0.05230533704161644
1761131754617543400,5.83754345703125,-0.002825251780450344,0.033368512988090515,0.05841398984193802
1761131754627543600,5.84754345703125,-0.008933904580771923,0.0290924571454525,0.05841398984193802
1761131754637543400,5.85754345703125,-0.011988230049610138,0.023594669997692108,0.051083605736494064
1761131754647542500,5.86754248046875,-0.010766499675810337,0.02603813074529171,0.03825543448328972
1761131754657542700,5.877542724609375,-0.009544769302010536,0.0339793786406517,0.018096882849931717
1761131754667542500,5.88754248046875,-0.0016035212902352214,0.059635721147060394,-0.012446379289031029
1761131754677542700,5.897542724609375,0.01366810966283083,0.06207918003201485,-0.02099849283695221
1761131754687542500,5.90754248046875,0.024663684889674187,0.05719225853681564,-0.017333300784230232
1761131754697542700,5.917542724609375,0.02099849283695221,0.05230533704161644,-0.002672535367310047
1761131754707542500,5.92754248046875,0.008170322515070438,0.04619668424129486,0.008323038928210735
1761131754717542700,5.937542724609375,-0.0034361169673502445,0.047418415546417236,0.010766499675810337
1761131754727542500,5.94754248046875,-0.02603813074529171,0.06269004940986633,0.01687515154480934
1761131754737542700,5.957542724609375,-0.04130976274609566,0.07124216109514236,0.03764457255601883
1761131754747543300,5.967543212890625,-0.04864014685153961,0.07185302674770355,0.0541379339993
1761131754757543400,5.97754345703125,-0.06513350456953049,0.0749073475599289,0.0541379339993
1761131754767543300,5.987543212890625,-0.0797942727804184,0.08223773539066315,0.03703370690345764
1761131754777543400,5.99754345703125,-0.0694095641374588,0.06879869848489761,0.006490443367511034
1761131754787543300,6.007543212890625,-0.0339793786406517,0.04253149405121803,-0.019165897741913795
1761131754797543400,6.01754345703125,0.0032834007870405912,0.029703322798013687,-0.031383201479911804
1761131754807543300,6.027543212890625,0.01061378326267004,0.0290924571454525,-0.057039543986320496
1761131754817543400,6.03754345703125,0.015500705689191818,0.016264287754893303,-0.072311170399189
1761131754827543300,6.047543212890625,0.02099849283695221,0.022372938692569733,-0.06436992436647415
1761131754837543400,6.05754345703125,0.018555032089352608,0.03275764733552933,-0.04970915988087654
1761131754847542800,6.067542724609375,0.0014508049935102463,0.035811975598335266,-0.04360050708055496
1761131754857542700,6.077542724609375,-0.024205535650253296,0.06330090761184692,-0.04054617881774902
1761131754867542800,6.087542724609375,-0.04375322163105011,0.06757696717977524,-0.022831087931990623
1761131754877542700,6.097542724609375,-0.05841398984193802,0.044974952936172485,-0.01061378326267004
1761131754887542800,6.107542724609375,-0.060246583074331284,0.03764457255601883,-0.011224648915231228
1761131754897542700,6.117542724609375,-0.05047274008393288,0.03214678168296814,-0.016111571341753006
1761131754907542800,6.127542724609375,-0.05047274008393288,0.016264287754893303,-0.03749185428023338
1761131754917542700,6.137542724609375,-0.05047274008393288,0.0071013085544109344,-0.04970915988087654
1761131754927542800,6.147542724609375,-0.04375322163105011,0.018096882849931717,-0.051541756838560104
1761131754937542700,6.157542724609375,-0.04069889709353447,0.015653422102332115,-0.04115704447031021
1761131754947543600,6.16754345703125,-0.04558581858873367,0.008933904580771923,-0.031383201479911804
1761131754957543700,6.177543701171875,-0.044974952936172485,0.005879578180611134,-0.022831087931990623
1761131754967543600,6.18754345703125,-0.039477165788412094,0.004046982154250145,-0.016111571341753006
1761131754977543700,6.197543701171875,-0.03825543448328972,-0.00022907447419129312,-0.011835514567792416
1761131754987543600,6.20754345703125,-0.04558581858873367,-0.011835514567792416,-0.008170322515070438
1761131754997543700,6.217543701171875,-0.044974952936172485,-0.02955060638487339,0.00038179077091626823
1761131755007543600,6.22754345703125,-0.0492510087788105,-0.04482223838567734,0.005879578180611134
1761131755017543700,6.237543701171875,-0.051083605736494064,-0.057039543986320496,0.011988230049610138
1761131755027543600,6.24754345703125,-0.05719225853681564,-0.06253732740879059,0.02054034359753132
1761131755037543700,6.257543701171875,-0.06269004940986633,-0.057650405913591385,0.02298380434513092
1761131755047542800,6.267542724609375,-0.06879869848489761,-0.04970915988087654,0.024205535650253296
1761131755057542700,6.277542724609375,-0.07368562370538712,-0.039935316890478134,0.03214678168296814
1761131755067542800,6.287542724609375,-0.07307475805282593,-0.031383201479911804,0.036422841250896454
1761131755077542700,6.297542724609375,-0.06818783283233643,-0.031383201479911804,0.035811975598335266
1761131755087542800,6.307542724609375,-0.060246583074331284,-0.031383201479911804,0.03459024429321289
1761131755097543000,6.31754296875,-0.05169447138905525,-0.03321579843759537,0.035811975598335266
1761131755107542800,6.327542724609375,-0.04619668424129486,-0.03810271993279457,0.036422841250896454
1761131755117543000,6.33754296875,-0.044974952936172485,-0.039324451237916946,0.039477165788412094
1761131755127509500,6.347509521484375,-0.04680754989385605,-0.0466548316180706,0.03703370690345764
1761131755137476000,6.35747607421875,-0.05230533704161644,-0.05093089118599892,0.029703322798013687
1761131755147443500,6.367443359375,-0.05474879592657089,-0.057650405913591385,0.022372938692569733
1761131755157410000,6.37741015625,-0.0541379339993,-0.06742425262928009,0.018096882849931717
1761131755167377000,6.387376953125,-0.05047274008393288,-0.07353290170431137,0.01748601719737053
1761131755177343500,6.397343505859375,-0.05047274008393288,-0.07597636431455612,0.01992947794497013
1761131755187310000,6.40731005859375,-0.05230533704161644,-0.06314819306135178,0.02054034359753132
1761131755197276700,6.417276611328125,-0.051083605736494064,-0.05032002553343773,0.023594669997692108
1761131755207243500,6.427243408203125,-0.047418415546417236,-0.04054617881774902,0.02603813074529171
1761131755217210000,6.437210205078125,-0.04375322163105011,-0.04604396969079971,0.03275764733552933
1761131755227176700,6.4471767578125,-0.038866300135850906,-0.05520694702863693,0.035811975598335266
1761131755237143600,6.4571435546875,-0.03825543448328972,-0.06314819306135178,0.033368512988090515
1761131755247109400,6.467109375,-0.0443640872836113,-0.06925684958696365,0.027259862050414085
1761131755257076000,6.477075927734375,-0.04619668424129486,-0.07475463300943375,0.01748601719737053
1761131755267042600,6.48704248046875,-0.04680754989385605,-0.07170030474662781,0.010155634954571724
1761131755277009200,6.497009033203125,-0.05047274008393288,-0.06620252132415771,0.0034361169673502445
1761131755286976000,6.50697607421875,-0.04986187443137169,-0.05826127156615257,-0.000839939690195024
1761131755296942600,6.516942626953125,-0.04558581858873367,-0.04787656292319298,-0.000839939690195024
1761131755306909200,6.5269091796875,-0.03459024429321289,-0.03565925732254982,0.0016035212902352214
1761131755316876000,6.5368759765625,-0.02298380434513092,-0.028939740732312202,0.006490443367511034
1761131755326842600,6.546842529296875,-0.021151209250092506,-0.024663684889674187,0.015042556449770927
1761131755336809200,6.556809326171875,-0.021151209250092506,-0.022831087931990623,0.015653422102332115
1761131755346776800,6.56677685546875,-0.024205535650253296,-0.02710714563727379,0.010155634954571724
1761131755356743400,6.576743408203125,-0.022372938692569733,-0.04115704447031021,0.010766499675810337
1761131755366710300,6.586710205078125,-0.02298380434513092,-0.048487428575754166,0.015042556449770927
1761131755376676900,6.5966767578125,-0.027870727702975273,-0.031383201479911804,0.0009926559869199991
1761131755386643500,6.6066435546875,-0.024205535650253296,0.0022143865935504436,-0.028939740732312202
1761131755396610000,6.616610107421875,-0.009544769302010536,0.022372938692569733,-0.027718011289834976
1761131755406577000,6.626576904296875,-0.011988230049610138,-0.0032834007870405912,0.027870727702975273
1761131755416543500,6.63654345703125,-0.016264287754893303,-0.031383201479911804,0.06513350456953049
1761131755426543400,6.64654345703125,-0.005268712528049946,-0.024663684889674187,0.06696610152721405
1761131755436543500,6.65654345703125,0.01061378326267004,-0.01488984003663063,0.048029281198978424
1761131755446542600,6.66654248046875,0.019165897741913795,-0.019165897741913795,0.03825543448328972
1761131755456542500,6.67654248046875,0.01794416643679142,-0.025885414332151413,0.03520110994577408
1761131755466542600,6.68654248046875,0.022220224142074585,-0.030161472037434578,0.03275764733552933
1761131755476542500,6.69654248046875,0.030772335827350616,-0.02344195358455181,0.03520110994577408
1761131755486542600,6.70654248046875,0.030772335827350616,-0.017333300784230232,0.041920628398656845
1761131755496542500,6.71654248046875,0.0264962799847126,-0.011835514567792416,0.04680754989385605
1761131755506542600,6.72654248046875,0.02344195358455181,-0.01366810966283083,0.04619668424129486
1761131755516542500,6.73654248046875,0.025274548679590225,-0.01488984003663063,0.04558581858873367
1761131755526542600,6.74654248046875,0.03199406713247299,-0.01061378326267004,0.04680754989385605
1761131755536542500,6.75654248046875,0.03627012297511101,-0.011224648915231228,0.048029281198978424
1761131755546543400,6.76654345703125,0.03627012297511101,-0.008781188167631626,0.0492510087788105
1761131755556543500,6.77654345703125,0.033826664090156555,-0.002672535367310047,0.047418415546417236
1761131755566543400,6.78654345703125,0.033826664090156555,0.002825251780450344,0.039477165788412094
1761131755576543500,6.79654345703125,0.03810271993279457,0.0071013085544109344,0.026648996397852898
1761131755586543400,6.80654345703125,0.042989641427993774,0.0034361169673502445,0.013209961354732513
1761131755596543500,6.81654345703125,0.045433104038238525,-0.0020616701804101467,0.007712173741310835
1761131755606543400,6.82654345703125,0.05032002553343773,-0.011835514567792416,0.0022143865935504436
1761131755616543500,6.83654345703125,0.05398521572351456,-0.016111571341753006,-0.0014508049935102463
1761131755626543400,6.84654345703125,0.05032002553343773,-0.012446379289031029,-0.011224648915231228
1761131755636543500,6.85654345703125,0.04421137273311615,-0.011224648915231228,-0.019165897741913795
1761131755646542600,6.86654248046875,0.0417679101228714,-0.013057244941592216,-0.01061378326267004
1761131755656542500,6.87654248046875,0.03749185428023338,-0.011835514567792416,0.0009926559869199991
1761131755666542600,6.88654248046875,0.03810271993279457,-0.008170322515070438,0.006490443367511034
1761131755676542500,6.89654248046875,0.03565925732254982,0.002825251780450344,0.008933904580771923
1761131755686542600,6.90654248046875,0.03627012297511101,0.008933904580771923,0.011988230049610138
1761131755696542500,6.91654248046875,0.033826664090156555,0.008323038928210735,0.010155634954571724
1761131755706542600,6.92654248046875,0.03321579843759537,0.008323038928210735,0.006490443367511034
1761131755716542500,6.93654248046875,0.03565925732254982,0.013209961354732513,0.0016035212902352214
1761131755726542600,6.94654248046875,0.03871358558535576,0.019318614155054092,-0.008781188167631626
1761131755736542500,6.95654248046875,0.04115704447031021,0.023594669997692108,-0.015500705689191818
1761131755746543400,6.96654345703125,0.0417679101228714,0.02603813074529171,-0.02099849283695221
1761131755756543500,6.97654345703125,0.04054617881774902,0.02298380434513092,-0.022220224142074585
1761131755766543400,6.98654345703125,0.03871358558535576,0.016264287754893303,-0.021609358489513397
1761131755776543500,6.99654345703125,0.036880988627672195,0.0071013085544109344,-0.01794416643679142
1761131755786543400,7.00654345703125,0.033826664090156555,-0.000839939690195024,-0.012446379289031029
1761131755796543500,7.01654345703125,0.03199406713247299,-0.002672535367310047,-0.015500705689191818
1761131755806543000,7.026543212890625,0.031383201479911804,0.0034361169673502445,-0.02038762718439102
1761131755816543000,7.03654296875,0.03199406713247299,0.012599095702171326,-0.025274548679590225
1761131755826543000,7.046543212890625,0.03627012297511101,0.019318614155054092,-0.03199406713247299
1761131755836543000,7.05654296875,0.04421137273311615,0.019318614155054092,-0.03871358558535576
1761131755846542000,7.0665419921875,0.04787656292319298,0.015042556449770927,-0.05032002553343773
1761131755856542200,7.076542236328125,0.05520694702863693,0.004046982154250145,-0.06620252132415771
1761131755866542000,7.0865419921875,0.05948300287127495,-0.0020616701804101467,-0.08636107295751572
1761131755876542200,7.096542236328125,0.06742425262928009,0.0034361169673502445,-0.1077413558959961
1761131755886542000,7.1065419921875,0.06986771523952484,0.011988230049610138,-0.10529789328575134
1761131755896542200,7.116542236328125,0.06559165567159653,0.09017898142337799,-0.15050192177295685
1761131755906542000,7.1265419921875,0.057650405913591385,0.09506590664386749,-0.20975585281848907
1761131755916542000,7.1365419921875,0.05826127156615257,0.0895681157708168,-0.21036672592163086
1761131755926542000,7.1465419921875,0.06803511828184128,0.0492510087788105,-0.17127133905887604
1761131755936542000,7.1565419921875,0.06375905871391296,0.007712173741310835,-0.11568260937929153
1761131755946542800,7.16654296875,0.0417679101228714,0.009544769302010536,-0.06803511828184128
1761131755956543000,7.17654296875,0.018555032089352608,0.02054034359753132,-0.04054617881774902
1761131755966542800,7.18654296875,-0.002825251780450344,0.0339793786406517,-0.025885414332151413
1761131755976543000,7.19654296875,-0.01687515154480934,0.03214678168296814,-0.01488984003663063
1761131755986542800,7.20654296875,-0.019318614155054092,0.01687515154480934,-0.00022907447419129312
1761131755996543000,7.21654296875,-0.015653422102332115,0.005879578180611134,0.011988230049610138
1761131756006542800,7.22654296875,-0.016264287754893303,0.00038179077091626823,0.01687515154480934
1761131756016543000,7.23654296875,-0.015042556449770927,0.0022143865935504436,0.019318614155054092
1761131756026542800,7.24654296875,-0.012599095702171326,0.010766499675810337,0.015653422102332115
1761131756036543000,7.25654296875,-0.008933904580771923,0.012599095702171326,0.013209961354732513
1761131756046542000,7.2665419921875,-0.008323038928210735,0.009544769302010536,0.011377365328371525
1761131756056542200,7.276542236328125,-0.009544769302010536,0.004657847341150045,0.006490443367511034
1761131756066542000,7.2865419921875,-0.011377365328371525,-0.000839939690195024,0.0009926559869199991
1761131756076542200,7.296542236328125,-0.014431691728532314,-0.00022907447419129312,-0.0032834007870405912
1761131756086542000,7.3065419921875,-0.01748601719737053,-0.000839939690195024,-0.0069485921412706375
1761131756096542200,7.316542236328125,-0.01687515154480934,-0.0032834007870405912,-0.011224648915231228
1761131756106542600,7.32654248046875,-0.026648996397852898,-0.000839939690195024,-0.01488984003663063
1761131756116542500,7.33654248046875,-0.029703322798013687,0.005879578180611134,-0.011835514567792416
1761131756126542600,7.34654248046875,-0.030314188450574875,0.013209961354732513,-0.005726861767470837
1761131756136542500,7.35654248046875,-0.029703322798013687,0.01687515154480934,-0.0020616701804101467
1761131756146543400,7.36654345703125,-0.02848159149289131,0.016264287754893303,0.005879578180611134
1761131756156543500,7.37654345703125,-0.02054034359753132,0.01687515154480934,0.014431691728532314
1761131756166543400,7.38654345703125,-0.01687515154480934,0.015042556449770927,0.02298380434513092
1761131756176543500,7.39654345703125,-0.013820826075971127,0.015042556449770927,0.027259862050414085
1761131756186543400,7.40654345703125,-0.013209961354732513,0.016264287754893303,0.030314188450574875
1761131756196543500,7.41654345703125,-0.015042556449770927,0.015653422102332115,0.033368512988090515
1761131756206543400,7.42654345703125,-0.01748601719737053,0.012599095702171326,0.030314188450574875
1761131756216543500,7.43654345703125,-0.013209961354732513,0.0071013085544109344,0.023594669997692108
1761131756226543400,7.44654345703125,-0.010766499675810337,0.005879578180611134,0.011377365328371525
1761131756236543500,7.45654345703125,-0.014431691728532314,0.004046982154250145,-0.0032834007870405912
1761131756246542600,7.46654248046875,-0.012599095702171326,-0.0020616701804101467,-0.014278975315392017
1761131756256542700,7.476542724609375,-0.009544769302010536,-0.011835514567792416,-0.016722436994314194
1761131756266542600,7.48654248046875,-0.006490443367511034,-0.017333300784230232,-0.01488984003663063
1761131756276542500,7.49654248046875,-0.0071013085544109344,-0.018555032089352608,-0.010002918541431427
1761131756286542600,7.50654248046875,-0.008933904580771923,-0.016722436994314194,-0.002672535367310047
1761131756296542500,7.51654248046875,-0.005268712528049946,-0.012446379289031029,0.006490443367511034
1761131756306542600,7.52654248046875,-0.010766499675810337,-0.0038942659739404917,0.018707748502492905
1761131756316542700,7.536542724609375,-0.006490443367511034,0.006490443367511034,0.024205535650253296
1761131756326542600,7.54654248046875,0.005726861767470837,0.006490443367511034,0.030314188450574875
1761131756336542700,7.556542724609375,0.005726861767470837,0.0009926559869199991,0.013209961354732513
1761131756346543400,7.56654345703125,0.004505131393671036,-0.0014508049935102463,-0.0069485921412706375
1761131756356543500,7.57654345703125,0.0038942659739404917,-0.008781188167631626,-0.02099849283695221
1761131756366543400,7.58654345703125,0.0032834007870405912,-0.017333300784230232,-0.02710714563727379
1761131756376543500,7.59654345703125,0.0020616701804101467,-0.019776761531829834,-0.030161472037434578
1761131756386543400,7.60654345703125,0.0020616701804101467,-0.01366810966283083,-0.028939740732312202
1761131756396543500,7.61654345703125,-0.004657847341150045,-0.01061378326267004,-0.021609358489513397
1761131756406543400,7.62654345703125,-0.010766499675810337,-0.005115996580570936,-0.01366810966283083
1761131756416543500,7.63654345703125,-0.01687515154480934,0.0009926559869199991,-0.014278975315392017
1761131756426543400,7.64654345703125,-0.02054034359753132,0.005879578180611134,-0.012446379289031029
1761131756436543500,7.65654345703125,-0.012599095702171326,0.005879578180611134,-0.008781188167631626
1761131756446542600,7.66654248046875,-0.004657847341150045,0.008323038928210735,-0.0020616701804101467
1761131756456542500,7.67654248046875,0.0032834007870405912,0.008323038928210735,0.004657847341150045
1761131756466542600,7.68654248046875,0.002672535367310047,0.008323038928210735,0.004046982154250145
1761131756476542500,7.69654248046875,-0.0016035212902352214,0.0071013085544109344,-0.006337726954370737
1761131756486542600,7.70654248046875,-0.006490443367511034,0.009544769302010536,-0.016722436994314194
1761131756496542500,7.71654248046875,-0.011377365328371525,0.004657847341150045,-0.022220224142074585
1761131756506542600,7.72654248046875,-0.013820826075971127,-0.0020616701804101467,-0.02344195358455181
1761131756516542500,7.73654248046875,-0.014431691728532314,-0.0020616701804101467,-0.02038762718439102
1761131756526542600,7.74654248046875,-0.014431691728532314,0.0009926559869199991,-0.013057244941592216
1761131756536542500,7.75654248046875,-0.008323038928210735,0.011988230049610138,-0.0014508049935102463
1761131756546543400,7.76654345703125,-0.002825251780450344,0.024205535650253296,0.013209961354732513
1761131756556543200,7.776543212890625,0.0038942659739404917,0.030925052240490913,0.023594669997692108
1761131756566543400,7.78654345703125,0.00939205288887024,0.03459024429321289,0.016264287754893303
1761131756576543500,7.79654345703125,0.00939205288887024,0.026648996397852898,0.00038179077091626823
1761131756586543400,7.80654345703125,0.002672535367310047,0.01748601719737053,-0.017333300784230232
1761131756596543500,7.81654345703125,-0.0016035212902352214,0.007712173741310835,-0.03321579843759537
1761131756606543400,7.82654345703125,-0.004046982154250145,0.0022143865935504436,-0.039935316890478134
1761131756616543200,7.836543212890625,-0.0022143865935504436,0.005268712528049946,-0.033826664090156555
1761131756626543400,7.84654345703125,0.00022907447419129312,0.01687515154480934,-0.02099849283695221
1761131756636543200,7.856543212890625,0.0038942659739404917,0.02848159149289131,-0.00939205288887024
1761131756646542600,7.86654248046875,0.000839939690195024,0.03703370690345764,-0.002672535367310047
1761131756656542500,7.87654248046875,-0.00038179077091626823,0.04008803144097328,-0.0020616701804101467
1761131756666542600,7.88654248046875,-0.0016035212902352214,0.03214678168296814,-0.0014508049935102463
1761131756676542500,7.89654248046875,0.000839939690195024,0.022372938692569733,0.002825251780450344
1761131756686542600,7.90654248046875,0.00022907447419129312,0.011988230049610138,0.009544769302010536
1761131756696542500,7.91654248046875,-0.0009926559869199991,0.015653422102332115,0.019318614155054092
1761131756706542600,7.92654248046875,0.000839939690195024,0.024205535650253296,0.026648996397852898
1761131756716542500,7.93654248046875,-0.0009926559869199991,0.03520110994577408,0.0339793786406517
1761131756726542600,7.94654248046875,-0.0034361169673502445,0.03764457255601883,0.04008803144097328
1761131756736542500,7.95654248046875,-0.007712173741310835,0.03459024429321289,0.039477165788412094
1761131756746543400,7.96654345703125,-0.010155634954571724,0.03153591975569725,0.027870727702975273
1761131756756543500,7.97654345703125,-0.011377365328371525,0.026648996397852898,0.015653422102332115
1761131756766543400,7.98654345703125,-0.008933904580771923,0.024205535650253296,0.011377365328371525
1761131756776543500,7.99654345703125,-0.002825251780450344,0.02298380434513092,0.013820826075971127
1761131756786543400,8.00654345703125,0.0020616701804101467,0.03275764733552933,0.021151209250092506
1761131756796543500,8.01654345703125,0.0069485921412706375,0.05169447138905525,0.036422841250896454
1761131756806544000,8.0265439453125,0.00939205288887024,0.051083605736494064,0.04680754989385605
1761131756816544000,8.0365439453125,0.0069485921412706375,0.036422841250896454,0.05902485549449921
1761131756826543900,8.0465439453125,0.002672535367310047,0.012599095702171326,0.0645226389169693
1761131756836544000,8.0565439453125,0.00022907447419129312,-0.005726861767470837,0.06269004940986633
1761131756846543000,8.066543212890625,0.005726861767470837,0.00038179077091626823,0.04069889709353447
1761131756856543000,8.07654296875,0.011835514567792416,0.002825251780450344,0.013209961354732513
1761131756866543000,8.086543212890625,0.016111571341753006,-0.000839939690195024,-0.000839939690195024
1761131756876543000,8.09654296875,0.018555032089352608,-0.013057244941592216,-0.000839939690195024
1761131756886543000,8.106543212890625,0.019776761531829834,-0.014278975315392017,0.004046982154250145
1761131756896543000,8.11654296875,0.022220224142074585,-0.005115996580570936,0.010155634954571724
1761131756906543000,8.126543212890626,0.019165897741913795,0.0022143865935504436,0.018707748502492905
1761131756916543000,8.13654296875,0.015500705689191818,0.0034361169673502445,0.02603813074529171
1761131756926543000,8.146543212890625,0.016722436994314194,0.005268712528049946,0.03275764733552933
1761131756936543000,8.15654296875,0.02099849283695221,0.0034361169673502445,0.03520110994577408
1761131756946543900,8.1665439453125,0.025274548679590225,0.00038179077091626823,0.036422841250896454
1761131756956543700,8.176543701171875,0.027718011289834976,-0.000839939690195024,0.03153591975569725
1761131756966544000,8.1865439453125,0.025274548679590225,-0.000839939690195024,0.018707748502492905
1761131756976543700,8.196543701171874,0.024663684889674187,-0.00022907447419129312,0.011377365328371525
1761131756986543900,8.2065439453125,0.022831087931990623,-0.0032834007870405912,0.013820826075971127
1761131756996543700,8.216543701171876,0.02038762718439102,-0.005115996580570936,0.022372938692569733
1761131757006544000,8.2265439453125,0.01061378326267004,-0.007559457328170538,0.02848159149289131
1761131757016543700,8.236543701171875,0.0014508049935102463,-0.01061378326267004,0.03275764733552933
1761131757026543900,8.2465439453125,0.00022907447419129312,-0.01366810966283083,0.038866300135850906
1761131757036543700,8.256543701171875,-0.002825251780450344,-0.01061378326267004,0.039477165788412094
1761131757046543000,8.266543212890625,-0.00038179077091626823,-0.006337726954370737,0.03825543448328972
1761131757056543000,8.27654296875,0.0014508049935102463,0.0022143865935504436,0.038866300135850906
1761131757066543000,8.286543212890624,0.0069485921412706375,0.010766499675810337,0.04375322163105011
1761131757076543000,8.29654296875,0.010002918541431427,0.010155634954571724,0.04558581858873367
1761131757086543000,8.306543212890626,0.01366810966283083,0.002825251780450344,0.041920628398656845
1761131757096543000,8.31654296875,0.016111571341753006,-0.005726861767470837,0.0290924571454525
1761131757106542600,8.32654248046875,0.016111571341753006,-0.005115996580570936,0.010766499675810337
1761131757116542500,8.33654248046875,0.013057244941592216,-0.005726861767470837,-0.006337726954370737
1761131757126542600,8.34654248046875,0.01061378326267004,-0.006337726954370737,-0.011224648915231228
1761131757136542500,8.35654248046875,0.008781188167631626,-0.005115996580570936,-0.005726861767470837
1761131757146543400,8.36654345703125,0.010002918541431427,-0.0020616701804101467,0.005268712528049946
1761131757156543500,8.37654345703125,0.01366810966283083,0.005268712528049946,0.016264287754893303
1761131757166543400,8.38654345703125,0.01794416643679142,0.008323038928210735,0.029703322798013687
1761131757176543500,8.39654345703125,0.022220224142074585,0.005879578180611134,0.035811975598335266
1761131757186543400,8.40654345703125,0.02344195358455181,-0.0020616701804101467,0.033368512988090515
1761131757196543500,8.41654345703125,0.018555032089352608,-0.008170322515070438,0.030314188450574875
1761131757206543400,8.42654345703125,0.016722436994314194,-0.010002918541431427,0.025427265092730522
1761131757216543500,8.43654345703125,0.01488984003663063,-0.00939205288887024,0.021151209250092506
1761131757226543400,8.44654345703125,0.015500705689191818,-0.005115996580570936,0.01992947794497013
1761131757236543500,8.45654345703125,0.017333300784230232,-0.0020616701804101467,0.024205535650253296
1761131757246542600,8.46654248046875,0.016111571341753006,0.00038179077091626823,0.027259862050414085
1761131757256542700,8.476542724609375,0.01366810966283083,-0.00022907447419129312,0.026648996397852898
1761131757266542600,8.48654248046875,0.0069485921412706375,0.00038179077091626823,0.02603813074529171
1761131757276542500,8.49654248046875,-0.00038179077091626823,0.0022143865935504436,0.02054034359753132
1761131757286542600,8.50654248046875,-0.0022143865935504436,-0.00022907447419129312,0.015042556449770927
1761131757296542500,8.51654248046875,-0.004046982154250145,-0.0038942659739404917,0.009544769302010536
1761131757306542600,8.52654248046875,0.000839939690195024,-0.008781188167631626,0.005879578180611134
1761131757316542700,8.536542724609374,0.005115996580570936,-0.01488984003663063,0.006490443367511034
1761131757326542600,8.54654248046875,0.010002918541431427,-0.01488984003663063,0.013209961354732513
1761131757336542700,8.556542724609375,0.008781188167631626,-0.011835514567792416,0.018707748502492905
1761131757346543400,8.56654345703125,0.0020616701804101467,-0.00939205288887024,0.018096882849931717
1761131757356543500,8.57654345703125,-0.005268712528049946,-0.005726861767470837,0.013820826075971127
1761131757366543400,8.58654345703125,-0.011377365328371525,-0.007559457328170538,0.008323038928210735
1761131757376543500,8.59654345703125,-0.013820826075971127,-0.011224648915231228,0.004657847341150045
1761131757386543400,8.60654345703125,-0.013820826075971127,-0.01366810966283083,0.005268712528049946
1761131757396543500,8.61654345703125,-0.014431691728532314,-0.015500705689191818,0.010766499675810337
1761131757406543400,8.62654345703125,-0.01748601719737053,-0.0069485921412706375,0.019318614155054092
1761131757416543500,8.63654345703125,-0.018707748502492905,0.0009926559869199991,0.024816401302814484
1761131757426543400,8.64654345703125,-0.01992947794497013,0.0034361169673502445,0.0290924571454525
1761131757436543500,8.65654345703125,-0.02054034359753132,0.0022143865935504436,0.036422841250896454
1761131757446542600,8.66654248046875,-0.024816401302814484,0.005268712528049946,0.04008803144097328
1761131757456542500,8.67654248046875,-0.0290924571454525,0.009544769302010536,0.0339793786406517
1761131757466542600,8.68654248046875,-0.030925052240490913,0.0022143865935504436,0.027870727702975273
1761131757476542500,8.69654248046875,-0.015042556449770927,-0.0069485921412706375,0.01992947794497013
1761131757486542600,8.70654248046875,-0.0034361169673502445,-0.0069485921412706375,-0.0038942659739404917
1761131757496542500,8.71654248046875,0.008170322515070438,-0.01794416643679142,-0.016111571341753006
1761131757506542600,8.72654248046875,0.008170322515070438,-0.027718011289834976,-0.014278975315392017
1761131757516542500,8.73654248046875,0.004505131393671036,-0.030772335827350616,-0.016111571341753006
1761131757526542600,8.74654248046875,-0.002825251780450344,-0.03199406713247299,-0.019165897741913795
1761131757536542500,8.75654248046875,-0.010766499675810337,-0.027718011289834976,-0.017333300784230232
1761131757546543400,8.76654345703125,-0.01687515154480934,-0.022831087931990623,-0.005726861767470837
1761131757556543200,8.776543212890624,-0.01748601719737053,-0.007559457328170538,0.011988230049610138
1761131757566543400,8.78654345703125,-0.016264287754893303,0.007712173741310835,0.02603813074529171
1761131757576543500,8.79654345703125,-0.014431691728532314,0.013209961354732513,0.03275764733552933
1761131757586543400,8.80654345703125,-0.013209961354732513,0.008323038928210735,0.0339793786406517
1761131757596543500,8.81654345703125,-0.006490443367511034,0.0034361169673502445,0.027259862050414085
1761131757606543400,8.82654345703125,-0.005268712528049946,0.0022143865935504436,0.010155634954571724
1761131757616543200,8.836543212890625,-0.0071013085544109344,-0.000839939690195024,-0.0020616701804101467
1761131757626543400,8.84654345703125,-0.008323038928210735,-0.008170322515070438,-0.0020616701804101467
1761131757636543200,8.856543212890625,-0.011377365328371525,-0.010002918541431427,-0.0014508049935102463
1761131757646542600,8.86654248046875,-0.010766499675810337,-0.008781188167631626,-0.000839939690195024
1761131757656542500,8.87654248046875,-0.013209961354732513,-0.007559457328170538,0.0009926559869199991
1761131757666542600,8.88654248046875,-0.012599095702171326,-0.005115996580570936,0.004046982154250145
1761131757676542500,8.89654248046875,-0.013820826075971127,-0.00022907447419129312,0.007712173741310835
1761131757686542600,8.90654248046875,-0.012599095702171326,0.007712173741310835,0.008933904580771923
1761131757696542500,8.91654248046875,-0.006490443367511034,0.011377365328371525,0.010155634954571724
1761131757706542600,8.92654248046875,-0.0022143865935504436,0.008323038928210735,0.0034361169673502445
1761131757716542500,8.93654248046875,0.00022907447419129312,-0.0014508049935102463,-0.008781188167631626
1761131757726542600,8.94654248046875,0.000839939690195024,-0.027718011289834976,-0.02955060638487339
1761131757736542500,8.95654248046875,-0.0009926559869199991,-0.030772335827350616,-0.036880988627672195
1761131757746543400,8.96654345703125,-0.004657847341150045,-0.019776761531829834,-0.03810271993279457
1761131757756543200,8.976543212890626,-0.010155634954571724,-0.008781188167631626,-0.028328875079751015
1761131757766543400,8.98654345703125,-0.007712173741310835,0.00038179077091626823,-0.015500705689191818
1761131757776543200,8.996543212890625,-0.007712173741310835,0.005879578180611134,-0.0032834007870405912
1761131757786543400,9.00654345703125,-0.0071013085544109344,0.0071013085544109344,0.005879578180611134
1761131757796543200,9.016543212890625,-0.005268712528049946,0.005879578180611134,0.011377365328371525
1761131757806543400,9.02654345703125,-0.0016035212902352214,0.004657847341150045,0.005879578180611134
1761131757816543500,9.03654345703125,0.005726861767470837,-0.0020616701804101467,-0.006337726954370737
1761131757826543400,9.04654345703125,0.0069485921412706375,-0.013057244941592216,-0.01794416643679142
1761131757836543500,9.05654345703125,0.005726861767470837,-0.021609358489513397,-0.02344195358455181
1761131757846542600,9.06654248046875,0.0032834007870405912,-0.021609358489513397,-0.0264962799847126
1761131757856542500,9.07654248046875,0.0020616701804101467,-0.008781188167631626,-0.027718011289834976
1761131757866542600,9.08654248046875,0.0014508049935102463,0.002825251780450344,-0.025885414332151413
1761131757876542500,9.09654248046875,0.004505131393671036,0.002825251780450344,-0.022220224142074585
1761131757886542600,9.10654248046875,0.010002918541431427,0.002825251780450344,-0.0069485921412706375
1761131757896542500,9.11654248046875,0.005726861767470837,-0.006337726954370737,0.0034361169673502445
1761131757906542300,9.126542236328126,-0.0034361169673502445,-0.01794416643679142,0.004046982154250145
1761131757916542500,9.13654248046875,-0.011377365328371525,-0.016111571341753006,-0.0032834007870405912
1761131757926542600,9.14654248046875,-0.015653422102332115,-0.0069485921412706375,-0.005115996580570936
1761131757936542500,9.15654248046875,-0.0071013085544109344,-0.0032834007870405912,-0.0020616701804101467
1761131757946543400,9.16654345703125,0.0069485921412706375,-0.0069485921412706375,0.005268712528049946
1761131757956543200,9.176543212890625,0.00939205288887024,-0.008781188167631626,0.008933904580771923
1761131757966543400,9.18654345703125,0.0069485921412706375,-0.00939205288887024,-0.00022907447419129312
1761131757976543500,9.19654345703125,0.005115996580570936,-0.006337726954370737,-0.011835514567792416
1761131757986543400,9.20654345703125,0.006337726954370737,-0.0032834007870405912,-0.016111571341753006
1761131757996543500,9.21654345703125,0.0069485921412706375,-0.0069485921412706375,-0.016722436994314194
1761131758006543400,9.22654345703125,0.007559457328170538,-0.007559457328170538,-0.018555032089352608
1761131758016543500,9.23654345703125,0.006337726954370737,-0.0038942659739404917,-0.02344195358455181
1761131758026543400,9.24654345703125,0.005726861767470837,-0.0014508049935102463,-0.0264962799847126
1761131758036543500,9.25654345703125,0.008781188167631626,-0.0020616701804101467,-0.02344195358455181
1761131758046542600,9.26654248046875,0.012446379289031029,-0.00022907447419129312,-0.018555032089352608
1761131758056542700,9.276542724609374,0.010002918541431427,-0.0014508049935102463,-0.014278975315392017
1761131758066542600,9.28654248046875,0.004505131393671036,0.0016035212902352214,-0.010002918541431427
1761131758076542700,9.296542724609376,-0.0022143865935504436,0.0009926559869199991,-0.004505131393671036
1761131758086542600,9.30654248046875,-0.005268712528049946,-0.0014508049935102463,-0.002672535367310047
1761131758096542700,9.316542724609375,-0.0009926559869199991,-0.00022907447419129312,-0.000839939690195024
1761131758106542600,9.32654248046875,0.002672535367310047,0.0009926559869199991,-0.004505131393671036
1761131758116542500,9.33654248046875,0.01061378326267004,-0.000839939690195024,-0.01488984003663063
1761131758126542600,9.34654248046875,0.019165897741913795,-0.000839939690195024,-0.025885414332151413
1761131758136542500,9.35654248046875,0.021609358489513397,-0.0014508049935102463,-0.025885414332151413
1761131758146543400,9.36654345703125,0.01794416643679142,-0.005115996580570936,-0.01488984003663063
1761131758156543500,9.37654345703125,0.010002918541431427,-0.006337726954370737,-0.006337726954370737
1761131758166543400,9.38654345703125,-0.004657847341150045,-0.0069485921412706375,-0.002672535367310047
1761131758176543500,9.39654345703125,-0.015042556449770927,-0.000839939690195024,0.0009926559869199991
1761131758186543400,9.40654345703125,-0.018096882849931717,0.0009926559869199991,-0.006337726954370737
1761131758196543500,9.41654345703125,-0.004046982154250145,0.006490443367511034,0.009544769302010536
1761131758206543400,9.42654345703125,0.028328875079751015,-0.013057244941592216,-0.019165897741913795
1761131758216543500,9.43654345703125,0.03627012297511101,-0.0069485921412706375,-0.01794416643679142
1761131758226543400,9.44654345703125,0.0264962799847126,-0.000839939690195024,-0.006337726954370737
1761131758236543500,9.45654345703125,0.016722436994314194,0.004046982154250145,-0.0020616701804101467
1761131758246542600,9.46654248046875,0.00022907447419129312,0.007712173741310835,-0.005726861767470837
1761131758256542700,9.476542724609375,-0.016264287754893303,0.0016035212902352214,-0.00939205288887024
1761131758266542600,9.48654248046875,-0.014431691728532314,-0.006337726954370737,-0.0032834007870405912
