time,seconds_elapsed,z,y,x
1761133558470858000,0.07485791015625,-0.16767394542694092,0.0915500819683075,-0.10558108240365982
1761133558490704100,0.0947041015625,-0.14760799705982208,0.05219586193561554,-0.1485084593296051
1761133558510551300,0.11455126953125,-0.09827902168035507,0.06413357704877853,-0.16570232808589935
1761133558530398200,0.134398193359375,-0.03944961726665497,0.07768601924180984,-0.17652153968811035
1761133558550245000,0.1542451171875,0.02541992999613285,0.008214529603719711,-0.24914541840553284
1761133558570092300,0.17409228515625,0.20223204791545868,-0.10081347823143005,-0.3285945653915405
1761133558589939200,0.193939208984375,0.40512317419052124,-0.21670225262641907,-0.385729044675827
1761133558609785000,0.21378515625,0.568090558052063,-0.45088979601860046,-0.4593055248260498
1761133558629632300,0.23363232421875,0.5912865996360779,-0.5780337452888489,-0.5559147000312805
1761133558649479200,0.253479248046875,0.5368369817733765,-0.6579639911651611,-0.6182437539100647
1761133558669326000,0.273326171875,0.4952613413333893,-0.610203206539154,-0.5938199162483215
1761133558689173200,0.29317333984375,0.4658016264438629,-0.4295905828475952,-0.4253714680671692
1761133558709019100,0.31301904296875,0.5131853818893433,-0.14335446059703827,-0.287301242351532
1761133558728866000,0.332865966796875,0.6659916639328003,0.11313086003065109,-0.23072130978107452
1761133558748713200,0.352713134765625,0.9373368620872498,0.30251792073249817,-0.1831868588924408
1761133558768560000,0.37256005859375,1.0701993703842163,0.5248373746871948,-0.007378853391855955
1761133558788407000,0.392406982421875,0.866312563419342,0.6092179417610168,0.15126289427280426
1761133558808254200,0.412254150390625,0.6080975532531738,0.5173592567443848,0.22205670177936554
1761133558828100000,0.43210009765625,0.42513757944107056,0.3548613488674164,0.21324774622917175
1761133558847947000,0.451947021484375,0.3356277644634247,0.2554728388786316,0.1361946314573288
1761133558867794000,0.4717939453125,0.3108804225921631,0.23763494193553925,0.026185763999819756
1761133558887641000,0.49164111328125,0.2822880148887634,0.2785421907901764,-0.008440474048256874
1761133558907488000,0.511488037109375,0.2512678802013397,0.36196571588516235,0.05011220648884773
1761133558927334100,0.531334228515625,0.261029452085495,0.4360858201980591,0.09207699447870255
1761133558947181300,0.551181396484375,0.3038053810596466,0.4326384365558624,0.060993582010269165
1761133558967028200,0.5710283203125,0.32220473885536194,0.3589872419834137,-0.017045659944415092
1761133558986875100,0.590875244140625,0.3236311674118042,0.24266567826271057,-0.05219417065382004
1761133559006722300,0.610722412109375,0.2925737500190735,0.12025706470012665,-0.031719136983156204
1761133559026569200,0.6305693359375,0.2566623389720917,0.10587836056947708,0.0011803405359387398
1761133559046415000,0.6504150390625,0.171205073595047,0.22120146453380585,0.13055583834648132
1761133559066262300,0.67026220703125,0.019421055912971497,0.35712191462516785,0.3956961929798126
1761133559086109200,0.690109130859375,-0.0576118603348732,0.41506442427635193,0.5966295003890991
1761133559105956000,0.7099560546875,-0.015015272423624992,0.46294984221458435,0.6509617567062378
1761133559125803300,0.72980322265625,0.15840616822242737,0.510057806968689,0.5806273818016052
1761133559145650200,0.749650146484375,0.3731642961502075,0.4902324080467224,0.44996047019958496
1761133559165496000,0.76949609375,0.5066463947296143,0.34653446078300476,0.3259693682193756
1761133559185343200,0.78934326171875,0.57608562707901,0.11309126764535904,0.27489495277404785
1761133559205190100,0.809190185546875,0.5940120220184326,-0.12288368493318558,0.26695701479911804
1761133559225037000,0.829037109375,0.5708650350570679,-0.3182142972946167,0.2770240604877472
1761133559244884200,0.84888427734375,0.5249127149581909,-0.4387000501155853,0.3013259768486023
1761133559264729600,0.8687294921875,0.3733755350112915,-0.4254903495311737,0.352761834859848
1761133559284576500,0.888576416015625,0.21049687266349792,-0.3030044734477997,0.4206703007221222
1761133559304423700,0.908423583984375,0.10789155215024948,-0.11502066999673843,0.5243590474128723
1761133559324270600,0.9282705078125,0.0919639840722084,0.04080834239721298,0.6063162684440613
1761133559344117800,0.94811767578125,0.12883850932121277,0.0455036498606205,0.535620391368866
1761133559363964700,0.967964599609375,0.15035471320152283,-0.12881484627723694,0.39281976222991943
1761133559383810600,0.987810546875,0.2651538848876953,-0.31303930282592773,0.3108724355697632
1761133559403657500,1.007657470703125,0.3889206349849701,-0.3959759771823883,0.21369226276874542
1761133559423504600,1.027504638671875,0.48032596707344055,-0.47222965955734253,0.118153877556324
1761133559443351600,1.0473515625,0.3737104833126068,-0.6179155111312866,0.2263486534357071
1761133559463198500,1.067198486328125,0.15590022504329681,-0.7907129526138306,0.4796886742115021
1761133559483044600,1.087044677734375,0.08491804450750351,-0.8309751749038696,0.6823188662528992
1761133559502891500,1.1068916015625,0.23185481131076813,-0.5839459896087646,0.7119131088256836
1761133559522738400,1.126738525390625,0.5388022661209106,-0.189981147646904,0.6187190413475037
1761133559542585600,1.146585693359375,1.0274940729141235,0.42748507857322693,0.48749789595603943
1761133559562432500,1.1664326171875,2.128312349319458,0.7796631455421448,0.5801979303359985
1761133559582279400,1.186279541015625,3.9433023929595947,0.3987046480178833,0.7798455357551575
1761133559602125300,1.206125244140625,4.680441856384277,0.09628906100988388,0.6241769194602966
1761133559621972500,1.225972412109375,2.9323625564575195,-0.3041441738605499,0.5675747394561768
1761133559641819400,1.2458193359375,-0.24700285494327545,-0.3079317808151245,0.7612403035163879
1761133559661666600,1.26566650390625,-0.8854690194129944,1.300430178642273,0.2622614800930023
1761133559681513500,1.285513427734375,0.4100041091442108,2.277085542678833,-0.3739245533943176
1761133559701359600,1.305359619140625,1.1647586822509766,1.603446125984192,-0.6552028059959412
1761133559721206500,1.32520654296875,0.7989296913146973,0.20396171510219574,-0.5679759383201599
1761133559741053700,1.3450537109375,-0.0662885457277298,0.15041516721248627,-0.3348800241947174
1761133559760900600,1.364900634765625,-0.707260251045227,0.955790102481842,0.023536859080195427
1761133559780747500,1.38474755859375,-0.7452449798583984,0.9922769069671631,0.22601164877414703
1761133559800593700,1.40459375,-0.9595566391944885,0.64308762550354,0.1544395089149475
1761133559820440600,1.424440673828125,-1.156180739402771,0.21521207690238953,-0.02182338386774063
1761133559840287500,1.44428759765625,-1.0619174242019653,-0.422622412443161,-0.14477282762527466
1761133559860134700,1.464134765625,-0.7630152702331543,-0.8101077675819397,-0.11112122237682343
1761133559879981600,1.483981689453125,-0.4624650478363037,-0.958132266998291,0.039908844977617264
1761133559899828500,1.503828369140625,-0.2090393751859665,-0.877918541431427,0.10174480825662613
1761133559919674600,1.523674560546875,-0.04274163395166397,-0.6863182187080383,-0.06961342692375183
1761133559939521500,1.543521484375,0.06406068801879883,-0.5278997421264648,-0.3917228579521179
1761133559959368400,1.563368408203125,0.11806868761777878,-0.4224068820476532,-0.6959704756736755
1761133559979215600,1.583215576171875,0.013748198747634888,-0.4027777910232544,-0.7828921675682068
1761133559999062500,1.6030625,-0.11845021694898605,-0.4674038589000702,-0.6463479995727539
1761133560018908400,1.622908447265625,-0.13695676624774933,-0.5851615071296692,-0.38603469729423523
1761133560038755300,1.64275537109375,-0.06337853521108627,-0.5840163230895996,-0.1726701557636261
1761133560058602500,1.6626025390625,-0.15433365106582642,-0.42926204204559326,0.001641587819904089
1761133560078449400,1.682449462890625,-0.12128695845603943,-0.3314274549484253,0.20064811408519745
1761133560098296600,1.702296630859375,0.5397918224334717,0.34773507714271545,0.023285068571567535
1761133560118143500,1.7221435546875,0.9253363013267517,0.611703634262085,-0.32374051213264465
1761133560137989600,1.74198974609375,0.5514736771583557,0.11919602751731873,-0.2759540379047394
1761133560157836500,1.76183642578125,0.28279295563697815,0.08520737290382385,-0.6117907762527466
1761133560177683700,1.78168359375,0.3262377381324768,0.15482501685619354,-1.2092878818511963
1761133560197530600,1.801530517578125,0.3939812183380127,0.48432862758636475,-1.4015451669692993
1761133560217377500,1.82137744140625,0.3259149491786957,1.2282533645629883,-1.215866208076477
1761133560237223700,1.8412236328125,0.15847861766815186,1.7359933853149414,-1.0050517320632935
1761133560257070300,1.8610703125,0.28319159150123596,1.1660219430923462,-0.5071249604225159
1761133560276917200,1.880917236328125,0.4403510093688965,0.3270178735256195,-0.1356908529996872
1761133560296764400,1.900764404296875,0.23224516212940216,-0.1501244753599167,0.04065239429473877
1761133560316611300,1.920611328125,-0.03579655662178993,-0.29858189821243286,0.10078144073486328
1761133560336457200,1.940457275390625,-0.1925509124994278,-0.5063643455505371,0.12100028991699219
1761133560356304400,1.960304443359375,-0.4271985590457916,-0.6166943907737732,0.14077991247177124
1761133560376151300,1.9801513671875,-0.73306804895401,-0.5366585850715637,0.10056065022945404
1761133560395998200,1.999998291015625,-0.8048511743545532,-0.36776360869407654,-0.04873603582382202
1761133560415845400,2.019845458984375,-0.6777878999710083,-0.21524642407894135,-0.13464917242527008
1761133560435692300,2.0396923828125,-0.43339312076568604,-0.035652853548526764,-0.09772835671901703
1761133560455538200,2.0595380859375,-0.19747735559940338,0.17485745251178741,0.06987883895635605
1761133560475385300,2.07938525390625,-0.06518951803445816,0.4449712932109833,0.25183892250061035
1761133560495232300,2.099232177734375,0.14436955749988556,0.6367042660713196,0.30057376623153687
1761133560515079200,2.1190791015625,0.450819194316864,0.620392918586731,0.14811626076698303
1761133560534926300,2.13892626953125,0.5594998598098755,0.5194768905639648,-0.11562630534172058
1761133560554772500,2.1587724609375,0.40465760231018066,0.2582918405532837,-0.22986772656440735
1761133560574619400,2.178619384765625,0.1282275915145874,0.09234832227230072,-0.2680104076862335
1761133560594466300,2.19846630859375,-0.023570990189909935,0.014971744269132614,-0.17217937111854553
1761133560614313500,2.2183134765625,-0.013479521498084068,0.049626126885414124,-0.022677432745695114
1761133560634160400,2.238160400390625,0.031133703887462616,0.03665623813867569,0.04512575641274452
1761133560654006300,2.25800634765625,-0.08101595938205719,0.014039076864719391,0.11380648612976074
1761133560673853400,2.277853515625,-0.35616105794906616,-0.018861176446080208,0.2223585695028305
1761133560693700400,2.297700439453125,-0.5792221426963806,-0.10508851706981659,0.24430768191814423
1761133560713547300,2.31754736328125,-0.5373184680938721,-0.21404129266738892,0.03967537730932236
1761133560733394400,2.33739453125,-0.34986457228660583,-0.32570406794548035,-0.18035593628883362
1761133560753241300,2.357241455078125,-0.30155518651008606,-0.4463019073009491,-0.1735464632511139
1761133560773087200,2.377087158203125,-0.481511652469635,-0.4185314476490021,-0.06034908816218376
1761133560792934400,2.396934326171875,-0.6312164664268494,-0.05246223881840706,-0.1804042011499405
1761133560812781300,2.41678125,-0.5583165287971497,0.29805123805999756,-0.4449526369571686
1761133560832628200,2.436628173828125,-0.3323967456817627,0.28673771023750305,-0.6490796804428101
1761133560852475400,2.456475341796875,-0.3023785948753357,-0.4748280644416809,-0.3445548713207245
1761133560872321300,2.4763212890625,-0.5130794048309326,-1.2010506391525269,0.10093121975660324
1761133560892168200,2.496168212890625,-0.6086685061454773,-1.0639170408248901,0.09440330415964127
1761133560912015000,2.51601513671875,-0.14322224259376526,-0.7372352480888367,-0.13007433712482452
1761133560931862300,2.5358623046875,0.05565996468067169,-0.6250891089439392,0.3932288885116577
1761133560951709200,2.555709228515625,-0.11418786644935608,-0.26743143796920776,1.0232341289520264
1761133560971555300,2.575555419921875,0.07432667911052704,0.22348035871982574,0.794218897819519
1761133560991402500,2.595402587890625,0.31253108382225037,0.2560090124607086,0.2806868255138397
1761133561011249400,2.61524951171875,0.09335443377494812,-0.02825840748846531,0.19114206731319427
1761133561031096300,2.635096435546875,-0.5225204229354858,-0.36596065759658813,0.458702951669693
1761133561050943500,2.654943603515625,-1.0293885469436646,-0.504832923412323,0.8554649353027344
1761133561070789400,2.674789306640625,-1.0196092128753662,-0.4450831115245819,1.0669909715652466
1761133561090636300,2.69463623046875,-0.663281261920929,-0.15709012746810913,0.9817063212394714
1761133561110483500,2.7144833984375,-0.246540829539299,0.2276601940393448,0.8647761344909668
1761133561130330400,2.734330322265625,0.16543304920196533,0.48976123332977295,0.7806046605110168
1761133561150177300,2.75417724609375,0.5340951085090637,0.6407592296600342,0.6606835126876831
1761133561170023200,2.774023193359375,0.7392573356628418,0.5078222751617432,0.42184409499168396
1761133561189870300,2.793870361328125,0.7251417636871338,0.3095293939113617,0.05657973140478134
1761133561209717200,2.81371728515625,0.5103883743286133,0.23298946022987366,-0.35084205865859985
1761133561229564400,2.833564453125,0.31831151247024536,0.46002984046936035,-0.7594552040100098
1761133561249411300,2.853411376953125,0.0850662961602211,0.4362671673297882,-0.749281644821167
1761133561269258000,2.873258056640625,-0.3733062446117401,0.6564367413520813,-0.7899860143661499
1761133561289105000,2.89310498046875,-0.8569283485412598,0.8189278244972229,-0.9969040751457214
1761133561308951800,2.912951904296875,-1.2574763298034668,0.7319353222846985,-1.337721347808838
1761133561328799000,2.932799072265625,-1.0738896131515503,0.24087131023406982,-1.8132723569869995
1761133561348646000,2.95264599609375,-0.6109304428100586,-0.12616780400276184,-2.3298227787017822
1761133561368492800,2.972492919921875,-0.6727451682090759,-0.4074619710445404,-2.2240207195281982
1761133561388339000,2.9923388671875,-0.7951111197471619,-0.6686941981315613,-1.9536720514297485
1761133561408185900,3.012185791015625,-0.39878126978874207,-0.5176957845687866,-2.0327165126800537
1761133561428032800,3.03203271484375,0.2800195813179016,0.17583312094211578,-1.669484257698059
1761133561447880000,3.0518798828125,0.34745681285858154,1.1682298183441162,-1.034281611442566
1761133561467726800,3.071726806640625,0.07603820413351059,1.503287672996521,-0.5491581559181213
1761133561487573000,3.091572998046875,-0.13205792009830475,1.074889063835144,-0.33075422048568726
1761133561507420000,3.111419921875,-0.20319953560829163,0.4019426107406616,-0.14940722286701202
1761133561527267000,3.13126708984375,-0.0875503420829773,-0.10573571920394897,-0.03024096041917801
1761133561547114000,3.151114013671875,-0.17492389678955078,-0.2775585353374481,-0.13684433698654175
1761133561566961200,3.170961181640625,-0.34248968958854675,-0.30440467596054077,-0.2577621638774872
1761133561586807000,3.19080712890625,-0.3974085748195648,-0.22151051461696625,-0.1721443086862564
1761133561606654000,3.210654052734375,-0.3844233751296997,-0.23743245005607605,-0.018504519015550613
1761133561626500900,3.2305009765625,-0.5278629660606384,-0.0682339295744896,-0.19708359241485596
1761133561646348000,3.25034814453125,-0.6709898114204407,-0.04241389408707619,-0.4496959447860718
1761133561666195000,3.27019482421875,-0.5840960144996643,-0.1820768117904663,-0.558312714099884
1761133561686040800,3.290040771484375,-0.4613974988460541,-0.22004719078540802,-0.44036829471588135
1761133561705888000,3.309887939453125,-0.37673094868659973,-0.17196358740329742,-0.2856174111366272
1761133561725735000,3.32973486328125,-0.25603917241096497,-0.09903330355882645,-0.30034661293029785
1761133561745581800,3.349581787109375,-0.17336417734622955,-0.023389963433146477,-0.3343174457550049
1761133561765429000,3.369428955078125,-0.15155673027038574,0.006462850607931614,-0.3078274428844452
1761133561785275000,3.38927490234375,-0.23561213910579681,-0.005575110204517841,-0.2251797914505005
1761133561805121800,3.409121826171875,-0.3715147078037262,-0.09014014899730682,-0.08400402963161469
1761133561824969000,3.428968994140625,-0.4225730001926422,-0.08837636560201645,-0.027908071875572205
1761133561844816000,3.44881591796875,-0.41201305389404297,-0.03012329339981079,-0.007460129447281361
1761133561864662800,3.468662841796875,-0.41507765650749207,-0.021789707243442535,0.1320198029279709
1761133561884509000,3.488509033203125,-0.36427465081214905,0.028138555586338043,0.29322874546051025
1761133561904356000,3.508356201171875,-0.3075377345085144,0.2660317122936249,0.4102274775505066
1761133561924203000,3.528203125,-0.264248251914978,0.23184119164943695,0.551682710647583
1761133561944050000,3.5480498046875,-0.30360424518585205,0.0008906533475965261,0.8266171813011169
1761133561963897000,3.56789697265625,-0.3462606966495514,0.00044914986938238144,1.066381812095642
1761133561983743000,3.587742919921875,-0.1289096474647522,0.17737793922424316,0.9633074998855591
1761133562003590000,3.60758984375,0.0764661431312561,0.14070920646190643,0.7303940057754517
1761133562023437000,3.62743701171875,0.06535892188549042,-0.2930810749530792,0.6354775428771973
1761133562043284000,3.647283935546875,0.013902152888476849,-0.7030250430107117,0.4269232153892517
1761133562063131000,3.667130859375,0.06105794757604599,-0.6817189455032349,0.002557015512138605
1761133562082977000,3.68697705078125,0.2198680192232132,-0.21138571202754974,-0.3089196979999542
1761133562102824000,3.706823974609375,0.5567601323127747,0.32832691073417664,-0.2619768977165222
1761133562122670800,3.7266708984375,0.9666598439216614,0.6927599310874939,-0.1048181802034378
1761133562142518000,3.74651806640625,0.7454957962036133,0.745512843132019,-0.03687294200062752
1761133562162365000,3.766364990234375,0.19473135471343994,0.662360668182373,-0.05239850655198097
1761133562182210800,3.7862109375,0.2413189858198166,0.08644888550043106,0.038025155663490295
1761133562202057700,3.8060576171875,0.5583733916282654,-0.1348131150007248,0.1965646743774414
1761133562221905000,3.82590478515625,0.7739137411117554,0.2040168195962906,0.6809243559837341
1761133562241751800,3.845751708984375,0.8790703415870667,0.5522879958152771,1.4570332765579224
1761133562261599000,3.865598876953125,0.634774923324585,0.39725711941719055,2.044227361679077
1761133562281445400,3.8854453125,0.4389231204986572,-0.1904240846633911,2.1549570560455322
1761133562301292300,3.905292236328125,0.3639308512210846,-0.5710169076919556,1.7943806648254395
1761133562321139200,3.92513916015625,0.272687703371048,-0.8314696550369263,1.254869818687439
1761133562340986400,3.944986328125,0.08164748549461365,-0.9508854746818542,0.8677818179130554
1761133562360833300,3.964833251953125,-0.10983283072710037,-0.7806690335273743,0.7543453574180603
1761133562380679200,3.98467919921875,-0.12106873840093613,-0.4220992624759674,0.642835795879364
1761133562400526000,4.004526123046875,0.026950938627123833,-0.11190519481897354,0.3348888158798218
1761133562420373200,4.024373291015625,0.22013282775878906,-0.02842927724123001,-0.075767882168293
1761133562440220200,4.04422021484375,0.18601110577583313,-0.1484367996454239,-0.3178369104862213
1761133562460067000,4.064067138671875,-0.06786908209323883,-0.4080800414085388,-0.27345946431159973
1761133562479913200,4.083913330078125,-0.34039226174354553,-0.6190063953399658,-0.017887745052576065
1761133562499760000,4.103760009765625,-0.4760073721408844,-0.68868488073349,0.2091256082057953
1761133562519607000,4.12360693359375,-0.4983272850513458,-0.7143749594688416,0.33995530009269714
1761133562539454200,4.1434541015625,-0.5172339081764221,-0.721143364906311,0.2695992887020111
1761133562559301000,4.163301025390625,-0.4200352132320404,-0.4455429017543793,-0.09801042824983597
1761133562579147000,4.18314697265625,-0.10002221167087555,0.22688917815685272,-0.46894776821136475
1761133562598994200,4.202994140625,0.13093125820159912,0.6109352707862854,-0.6202628016471863
1761133562618841000,4.222841064453125,0.7729650139808655,1.0479624271392822,-1.195449948310852
1761133562638688000,4.24268798828125,1.2915042638778687,1.0434938669204712,-2.2392940521240234
1761133562658535200,4.26253515625,0.8471600413322449,-0.24368874728679657,-2.9286375045776367
1761133562678381300,4.28238134765625,0.07601164281368256,-0.7553545236587524,-2.826117753982544
1761133562698228200,4.302228271484375,-0.04001859948039055,0.1102057620882988,-2.0592169761657715
1761133562718075100,4.3220751953125,0.09492688626050949,0.9468609094619751,-0.7528644800186157
1761133562737922300,4.34192236328125,0.08664143830537796,0.9370622038841248,0.03391038998961449
1761133562757768200,4.361768310546875,-0.13682839274406433,0.3582165837287903,0.17500372231006622
1761133562777615000,4.381614990234375,-0.4353468120098114,-0.1089080199599266,0.15613949298858643
1761133562797463300,4.40146337890625,-0.5762929320335388,-0.3595259487628937,0.3863676190376282
1761133562817310200,4.421310302734375,-0.6148029565811157,-0.4044419825077057,0.8299600481987
1761133562837157400,4.441157470703125,-0.5544724464416504,-0.19822998344898224,1.0049331188201904
1761133562857004300,4.46100439453125,-0.5501680970191956,-0.13000087440013885,0.7387628555297852
1761133562876851200,4.480851318359375,-0.6497366428375244,-0.24612809717655182,0.31329044699668884
1761133562896697000,4.500697021484375,-0.6856194734573364,-0.21478745341300964,0.0536227710545063
1761133562916544300,4.520544189453125,-0.5821816921234131,0.0007209163159132004,0.03787994384765625
1761133562936391200,4.54039111328125,-0.3231714069843292,0.1261010468006134,0.07592061161994934
1761133562956238000,4.560238037109375,-0.2008848339319229,0.0374658927321434,0.11236459761857986
1761133562976085200,4.580085205078125,-0.30434292554855347,0.05409189313650131,0.1740097850561142
1761133562995931100,4.59993115234375,-0.3137627840042114,0.014499126933515072,-0.026507318019866943
1761133563015778000,4.619778076171875,-0.022809810936450958,-0.009491457603871822,-0.6023150086402893
1761133563035625200,4.639625244140625,0.15296851098537445,-0.06750569492578506,-0.9067685008049011
1761133563055472000,4.65947216796875,-0.0003030739026144147,-0.10643578320741653,-0.6487302780151367
1761133563075319000,4.679319091796875,-0.11539427936077118,0.07911001145839691,-0.2560512125492096
1761133563095165200,4.699165283203125,-0.055466122925281525,0.33049434423446655,0.0224540326744318
1761133563115012000,4.71901220703125,0.013660992495715618,0.42572376132011414,0.07684721797704697
1761133563134859000,4.73885888671875,-0.04067729786038399,0.30289772152900696,0.10172043740749359
1761133563154706200,4.7587060546875,-0.18966832756996155,0.1857178807258606,0.20448365807533264
1761133563174552300,4.77855224609375,-0.2736382782459259,0.12102876603603363,0.2336670160293579
1761133563194399200,4.798399169921875,-0.23453004658222198,0.07457928359508514,0.1796710044145584
1761133563214246100,4.81824609375,-0.09798410534858704,-0.023557128384709358,0.03258224204182625
1761133563234093300,4.83809326171875,0.012432284653186798,-0.1949889212846756,-0.19198594987392426
1761133563253939200,4.857939208984375,0.040737517178058624,-0.22624656558036804,-0.34817275404930115
1761133563273785000,4.87778515625,0.049834806472063065,-0.14454658329486847,-0.36304953694343567
1761133563293632000,4.897632080078125,0.056331731379032135,-0.04019425809383392,-0.3005177080631256
1761133563313479200,4.917479248046875,0.052016161382198334,0.03057452104985714,-0.24126747250556946
1761133563333326000,4.937326171875,0.054272208362817764,0.05792806297540665,-0.1987905353307724
1761133563353173200,4.95717333984375,0.08935287594795227,0.014077108353376389,-0.16436263918876648
1761133563373019100,4.97701904296875,0.1256505697965622,-0.09707488119602203,-0.1115524172782898
1761133563392866000,4.996865966796875,0.10491909831762314,-0.20831464231014252,0.039019327610731125
1761133563412713000,5.016712890625,0.0661839097738266,-0.26940926909446716,0.2575737535953522
1761133563432560000,5.03656005859375,0.024906963109970093,-0.3006111979484558,0.4948310852050781
1761133563452407000,5.056406982421875,-0.03498077392578125,-0.244648277759552,0.7062750458717346
1761133563472253200,5.076253173828125,-0.10041818022727966,-0.061949968338012695,0.7270576357841492
1761133563492100400,5.096100341796875,-0.16820713877677917,0.2851051688194275,0.44625627994537354
1761133563511947300,5.115947265625,-0.051872618496418,0.6922714710235596,0.007853761315345764
1761133563531794200,5.135794189453125,0.4160688817501068,0.9264615178108215,-0.2595938742160797
1761133563551640000,5.15564013671875,0.8834559917449951,0.92676842212677,-0.3308326005935669
1761133563571487200,5.1754873046875,0.6089528799057007,0.5290942192077637,-0.13038423657417297
1761133563591334100,5.195334228515625,-0.27114689350128174,-0.10975009948015213,-0.19912298023700714
1761133563611181300,5.215181396484375,-0.9319333434104919,-0.5863831639289856,-0.4264376759529114
1761133563631028200,5.2350283203125,-1.022552251815796,-0.2979171872138977,-0.19819433987140656
1761133563650874000,5.2548740234375,-0.18406645953655243,0.23089469969272614,0.8163918256759644
1761133563670721000,5.274720947265625,0.6575533747673035,0.8151476383209229,1.7558834552764893
1761133563690568200,5.294568115234375,0.6926645636558533,1.2049211263656616,2.169318914413452
1761133563710415000,5.3144150390625,0.6603690981864929,0.7147025465965271,2.565535068511963
1761133563730262000,5.334261962890625,0.8949303030967712,-0.10432769358158112,2.883373498916626
1761133563750108200,5.354108154296875,1.2955875396728516,-0.6786231994628906,2.690333127975464
1761133563769955000,5.373955078125,1.421744704246521,-0.6863245964050293,2.060878276824951
1761133563789802000,5.393802001953125,1.2765270471572876,-0.5107370018959045,1.3262611627578735
1761133563809649200,5.413649169921875,1.0762028694152832,-0.444589227437973,0.5204711556434631
1761133563829495300,5.433495361328125,0.8070288896560669,-0.4370291233062744,-0.2813533842563629
1761133563849342200,5.45334228515625,0.4591129720211029,-0.3205263316631317,-0.9070661067962646
1761133563869189400,5.473189453125,0.10531029105186462,-0.16076356172561646,-1.1998692750930786
1761133563889036300,5.493036376953125,-0.12155808508396149,-0.14228235185146332,-1.2039083242416382
1761133563908883200,5.51288330078125,-0.21516233682632446,-0.18358159065246582,-1.0301742553710938
1761133563928729000,5.53272900390625,-0.3023380935192108,-0.1549861580133438,-0.7397092580795288
1761133563948576300,5.552576171875,-0.40586817264556885,-0.0480136014521122,-0.40554940700531006
1761133563968423200,5.572423095703125,-0.4487757682800293,0.019836680963635445,-0.22542323172092438
1761133563988270000,5.59227001953125,-0.40107226371765137,-0.24065561592578888,-0.3881005048751831
1761133564008117200,5.6121171875,-0.2469915747642517,-0.13653609156608582,-0.8826784491539001
1761133564027963100,5.631963134765625,-0.02492113783955574,0.4129512310028076,-1.3549398183822632
1761133564047810000,5.65181005859375,-0.3821316659450531,0.5120812654495239,-1.079664945602417
1761133564067657200,5.6716572265625,-0.7681412696838379,0.052535928785800934,-0.5405157208442688
1761133564087504100,5.691504150390625,0.13340461254119873,-0.2952858805656433,-1.3439973592758179
1761133564107350000,5.71135009765625,0.6662119626998901,-0.5653455257415771,-2.3179452419281006
1761133564127197200,5.731197265625,0.2858735918998718,0.17663098871707916,-2.3461484909057617
1761133564147044000,5.751044189453125,0.05631183087825775,1.6392842531204224,-1.5001184940338135
1761133564166891000,5.77089111328125,0.3851752281188965,2.439187526702881,-0.7693161368370056
1761133564186738200,5.79073828125,0.4907090365886688,1.289459228515625,-0.432815819978714
1761133564206584300,5.810584228515625,-0.028691988438367844,-0.26951757073402405,-0.20098914206027985
1761133564226431200,5.83043115234375,-0.2142425924539566,-1.0866994857788086,0.1305496096611023
1761133564246278100,5.850278076171875,-0.009070326574146748,-1.0428131818771362,0.5655869245529175
1761133564266126000,5.8701259765625,0.1380303055047989,-0.6250187754631042,0.9183277487754822
1761133564285973200,5.88997314453125,-0.05194588750600815,-0.24913977086544037,1.036034107208252
1761133564305819400,5.9098193359375,-0.40937280654907227,-0.1387152075767517,0.7592609524726868
1761133564325666300,5.929666259765625,-0.6477583646774292,-0.3263814151287079,0.14803172647953033
1761133564345513200,5.94951318359375,-0.6932968497276306,-0.5200894474983215,-0.4025070071220398
1761133564365360400,5.9693603515625,-0.6800115704536438,-0.6113253831863403,-0.5349707007408142
1761133564385206300,5.989206298828125,-0.6282378435134888,-0.5109187364578247,-0.3598586320877075
1761133564405053400,6.009053466796875,-0.5782415270805359,-0.2526581585407257,-0.029099872335791588
1761133564424900400,6.028900390625,-0.5431917905807495,-0.2080555260181427,0.3587706983089447
1761133564444747300,6.048747314453125,-0.36474916338920593,-0.17924383282661438,0.4784710109233856
1761133564464594400,6.068594482421875,-0.20279188454151154,-0.23098953068256378,0.3245442509651184
1761133564484440300,6.0884404296875,-0.1342487931251526,-0.32881760597229004,0.16997824609279633
1761133564504287200,6.108287353515625,-0.0930386558175087,-0.29639557003974915,0.1452910155057907
1761133564524134100,6.128134033203125,0.020630167797207832,0.11171606928110123,0.059249430894851685
1761133564543981300,6.147981201171875,0.17109477519989014,0.4603891670703888,-0.09571464359760284
1761133564563827200,6.1678271484375,0.10761627554893494,0.44732964038848877,-0.234181746840477
1761133564583674000,6.187674072265625,-0.182931050658226,0.11966907978057861,-0.26466330885887146
1761133564603521300,6.207521240234375,-0.4133813679218292,-0.023140905424952507,-0.15874837338924408
1761133564623368200,6.2273681640625,-0.32077038288116455,0.13831770420074463,0.1173325851559639
1761133564643215000,6.247215087890625,0.0041671087965369225,0.4341460168361664,0.5118913054466248
1761133564663061500,6.2670615234375,0.10149916261434555,0.5561068654060364,0.8663638234138489
1761133564682908400,6.286908447265625,0.01814831979572773,0.583721399307251,0.8738852739334106
1761133564702755300,6.30675537109375,0.06043367460370064,0.2784525156021118,0.456097275018692
1761133564722602200,6.326602294921875,0.002912693191319704,0.07298483699560165,-0.047822631895542145
1761133564742448400,6.346448486328125,-0.004696080461144447,0.06695234030485153,-0.3503609001636505
1761133564762295300,6.36629541015625,-0.03283458203077316,0.19603322446346283,-0.33334746956825256
1761133564782142200,6.38614208984375,-0.11127086728811264,0.3396010994911194,-0.23028936982154846
1761133564801989400,6.4059892578125,-0.09450571984052658,0.2836185097694397,-0.20423279702663422
1761133564821836300,6.425836181640625,0.05045270547270775,0.10938291251659393,-0.19991301000118256
1761133564841682200,6.44568212890625,0.09856536984443665,0.019643176347017288,-0.08462236076593399
1761133564861529300,6.465529296875,0.06029258295893669,-0.010321267880499363,0.0961349755525589
1761133564881376300,6.485376220703125,0.02952197566628456,0.02973068132996559,0.11106371879577637
1761133564901223200,6.50522314453125,-0.008554981090128422,0.043202806264162064,0.043675024062395096
1761133564921069300,6.5250693359375,-0.06892460584640503,0.05262807384133339,-0.05959172546863556
1761133564940916200,6.544916259765625,-0.07950776070356369,0.04295467585325241,-0.19646725058555603
1761133564960763100,6.56476318359375,-0.05512828007340431,0.0012788604944944382,-0.30418944358825684
1761133564980610300,6.5846103515625,-0.026895178481936455,0.031742289662361145,-0.3734544515609741
1761133565000457200,6.604457275390625,0.01705029606819153,0.06767808645963669,-0.3539910316467285
1761133565020303400,6.624303466796875,0.07372166216373444,0.08249615877866745,-0.3087388873100281
1761133565040150300,6.644150390625,0.11502373218536377,0.02504745125770569,-0.2597619295120239
1761133565059997400,6.66399755859375,0.09058225154876709,-0.011932490393519402,-0.21891248226165771
1761133565079844400,6.68384423828125,0.04609158635139465,-0.0457543283700943,-0.1922551691532135
1761133565099690200,6.703690185546875,0.02934787981212139,-0.058528464287519455,-0.17663288116455078
1761133565119537400,6.723537353515625,0.009078369475901127,-0.05957840755581856,-0.16424208879470825
1761133565139384300,6.74338427734375,-0.018620269373059273,-0.07902801781892776,-0.2280525118112564
1761133565159231200,6.763231201171875,-0.05073131248354912,-0.14609555900096893,-0.2980464994907379
1761133565179078400,6.783078369140625,-0.10417260974645615,-0.13764971494674683,-0.36312952637672424
1761133565198924300,6.80292431640625,-0.14707878232002258,-0.16685189306735992,-0.38759827613830566
1761133565218771200,6.822771240234375,-0.1644485890865326,-0.27464190125465393,-0.3860104978084564
1761133565238618400,6.842618408203125,-0.0874500647187233,-0.3057841956615448,-0.4346798360347748
1761133565258464300,6.86246435546875,0.06446359306573868,-0.2339138239622116,-0.46126776933670044
1761133565278310400,6.882310302734375,0.24973361194133759,-0.13878443837165833,-0.4850701093673706
1761133565298157600,6.902157470703125,0.5939311981201172,0.28971216082572937,-0.5188716650009155
1761133565318004500,6.92200439453125,0.9888651371002197,0.8316639065742493,-0.593387246131897
1761133565337851400,6.941851318359375,0.6403228640556335,0.4882289171218872,-0.331748902797699
1761133565357697500,6.961697509765625,-0.15001322329044342,-0.3936063051223755,-0.13800759613513947
1761133565377544400,6.98154443359375,-0.3636329472064972,-0.7898553013801575,0.004516876768320799
1761133565397391400,7.001391357421875,-0.16765595972537994,-0.2412615865468979,0.5176315903663635
1761133565417238500,7.021238525390625,0.12341651320457458,0.5517510771751404,0.8890422582626343
1761133565437085400,7.04108544921875,0.15768665075302124,0.8230095505714417,0.9483442902565002
1761133565456931300,7.060931396484375,-0.30911195278167725,0.7228606343269348,1.3455442190170288
1761133565476778500,7.080778564453125,-0.5930765271186829,0.4706713855266571,1.736807942390442
1761133565496625400,7.10062548828125,-0.47686195373535156,-0.3493344187736511,1.449720859527588
1761133565516472300,7.120472412109375,-0.29737451672554016,-1.0590715408325195,1.1653790473937988
1761133565536318200,7.140318115234375,-0.21884576976299286,-1.1873841285705566,1.2635197639465332
1761133565556165400,7.160165283203125,-0.04674971476197243,-0.9240795373916626,1.466210961341858
1761133565576012300,7.18001220703125,0.3823736310005188,-0.3700696527957916,1.2425532341003418
1761133565595859200,7.199859130859375,0.6443066596984863,-0.03481586277484894,0.6032341122627258
1761133565615706400,7.219706298828125,0.26102006435394287,0.12006174027919769,-0.2350401133298874
1761133565635552500,7.239552490234375,-0.5594192147254944,0.16728632152080536,-0.840670645236969
1761133565655399400,7.2593994140625,-1.0315780639648438,0.17931723594665527,-1.063460350036621
1761133565675246600,7.27924658203125,-0.6568182110786438,-0.155748188495636,-0.9217420816421509
1761133565695093500,7.299093505859375,-0.08541252464056015,-0.2823871374130249,-0.5131890773773193
1761133565714939400,7.318939453125,0.32073846459388733,-0.2304040938615799,-0.3468938171863556
1761133565734786600,7.33878662109375,0.4781549870967865,-0.3586832284927368,-0.46906259655952454
1761133565754633500,7.358633544921875,0.32265424728393555,-0.38008588552474976,-0.4865778684616089
1761133565774480400,7.37848046875,0.20424005389213562,-0.3362084627151489,-0.5619403719902039
1761133565794326300,7.398326171875,0.34122470021247864,-0.29693934321403503,-0.9788089394569397
1761133565814173400,7.41817333984375,0.17778152227401733,-0.2433457374572754,-1.0641509294509888
1761133565834020400,7.438020263671875,-0.15081360936164856,-0.17074668407440186,-0.7947754859924316
1761133565853867300,7.4578671875,0.6772337555885315,-0.7047727108001709,-1.2395739555358887
1761133565873714400,7.47771435546875,1.2909064292907715,-1.456128478050232,-2.0061964988708496
1761133565893560300,7.497560302734375,1.9131852388381958,-0.7841601967811584,-2.467315435409546
1761133565913407200,7.5174072265625,2.1184520721435547,1.1061444282531738,-1.964501142501831
1761133565933254400,7.53725439453125,1.729460597038269,1.957291603088379,-1.3756818771362305
1761133565953101300,7.557101318359375,0.6118278503417969,1.0753196477890015,-1.195330262184143
1761133565972947500,7.576947509765625,-0.2245725393295288,-0.3164359927177429,-1.0661228895187378
1761133565992794600,7.596794677734375,-0.38408374786376953,-0.6985008716583252,-0.7555297613143921
1761133566012641500,7.6166416015625,-0.08949675410985947,-0.4887833595275879,-0.2200174331665039
1761133566032488400,7.636488525390625,0.19316060841083527,0.039536379277706146,0.10794363915920258
1761133566052335600,7.656335693359375,0.189115971326828,0.28754693269729614,0.17385776340961456
1761133566072181500,7.676181396484375,0.002086165826767683,0.10112564265727997,0.09441699087619781
1761133566092028400,7.6960283203125,-0.2736061215400696,-0.07494357228279114,0.15105225145816803
1761133566111875300,7.715875244140625,-0.4068824350833893,-0.06704064458608627,0.31711581349372864
1761133566131722500,7.735722412109375,-0.32931917905807495,-0.10803787410259247,0.4287909269332886
1761133566151568400,7.755568359375,-0.1342923492193222,-0.14029118418693542,0.38494089245796204
1761133566171415300,7.775415283203125,0.029500767588615417,-0.15377463400363922,0.36302077770233154
1761133566191262500,7.795262451171875,0.021688148379325867,-0.13454684615135193,0.44494372606277466
1761133566211109400,7.815109375,-0.06358353793621063,-0.053522802889347076,0.3790246844291687
1761133566230955300,7.834955322265625,-0.18398192524909973,0.0008805652614682913,0.14689947664737701
1761133566250802400,7.854802490234375,-0.2853151857852936,0.0911724865436554,-0.000018527265638113022
1761133566270649900,7.87464990234375,-0.25142577290534973,0.2578217387199402,0.006600767374038696
1761133566290497000,7.8944970703125,-0.13165885210037231,0.41054242849349976,-0.021242016926407814
1761133566310344000,7.914343994140625,-0.13082553446292877,0.4258304834365845,-0.10984932631254196
1761133566330189800,7.93418994140625,-0.20018161833286285,0.3604724109172821,-0.19951462745666504
1761133566350037000,7.954037109375,-0.28032800555229187,0.2989960014820099,-0.1361064314842224
1761133566369884000,7.9738837890625,-0.3186117708683014,0.20408126711845398,0.05198090150952339
1761133566389730800,7.993730712890625,-0.2691550552845001,0.05186532810330391,0.1833774894475937
1761133566409576000,8.013575927734376,-0.16812898218631744,-0.04134513437747955,0.20777171850204468
1761133566429423000,8.033423095703125,0.014813893474638462,-0.009817774407565594,0.183258518576622
1761133566449270000,8.05327001953125,0.15832427144050598,0.06079909950494766,0.24946817755699158
1761133566469116000,8.073115966796875,0.14440442621707916,0.1812516450881958,0.3322865664958954
1761133566488963000,8.092963134765625,0.030811309814453125,0.2738057076931,0.32404646277427673
1761133566508810000,8.11281005859375,-0.1586463898420334,0.27327796816825867,0.23404566943645477
1761133566528657000,8.132656982421874,-0.33552032709121704,0.2215273529291153,0.17113682627677917
1761133566548503000,8.1525029296875,-0.4349827766418457,0.14699824154376984,0.2307736575603485
1761133566568350000,8.172349853515625,-0.5059706568717957,0.19382281601428986,0.3142912983894348
1761133566588197000,8.192197021484375,-0.5137795209884644,0.21352428197860718,0.35657989978790283
1761133566608044000,8.2120439453125,-0.4258376955986023,0.21158923208713531,0.39675796031951904
1761133566627891000,8.231890869140624,-0.3544631004333496,0.29461196064949036,0.5455422401428223
1761133566647737000,8.251737060546875,-0.31350240111351013,0.3820599317550659,0.7012946009635925
1761133566667584000,8.271583984375,-0.2520284354686737,0.4315283000469208,0.7516435980796814
1761133566687431200,8.29143115234375,-0.24843616783618927,0.4561010003089905,0.8502691984176636
1761133566707278000,8.311278076171876,-0.3478809893131256,0.46832117438316345,1.0451465845108032
1761133566727124000,8.3311240234375,-0.4779287278652191,0.3521345555782318,1.1181881427764893
1761133566746971100,8.35097119140625,-0.6089581847190857,0.216158926486969,1.0647331476211548
1761133566766818000,8.370818115234375,-0.6436862349510193,0.04221915453672409,0.979138970375061
1761133566786665000,8.3906650390625,-0.5792685151100159,-0.14501354098320007,0.8458779454231262
1761133566806512000,8.41051220703125,-0.4466322362422943,-0.344958633184433,0.7129830121994019
1761133566826358000,8.43035791015625,-0.3253975212574005,-0.445114403963089,0.5688593983650208
1761133566846205000,8.450204833984374,-0.2553834021091461,-0.39651164412498474,0.3936750888824463
1761133566866051800,8.4700517578125,-0.2048180103302002,-0.3229537308216095,0.25734439492225647
1761133566885899000,8.48989892578125,-0.12956134974956512,-0.27248886227607727,0.11444790661334991
1761133566905745200,8.5097451171875,-0.05098310858011246,-0.10228424519300461,-0.04330560564994812
1761133566925592000,8.529592041015626,0.03937959298491478,0.38575583696365356,-0.24286261200904846
1761133566945439000,8.54943896484375,0.11002034693956375,1.0434011220932007,-0.4987688660621643
1761133566965286100,8.5692861328125,0.11130758374929428,1.252303957939148,-0.5835698246955872
1761133566985133000,8.589133056640625,0.10275294631719589,0.8702782988548279,-0.21571378409862518
1761133567004979200,8.608979248046875,0.008131833747029305,0.1413128674030304,0.3383488059043884
1761133567024826000,8.628826171875,-0.01933637075126171,-0.46310704946517944,0.5032728314399719
1761133567044673000,8.648673095703124,0.17713867127895355,-0.3692282736301422,0.4975074827671051
1761133567064520200,8.668520263671875,0.4209437072277069,0.07533086836338043,0.9189145565032959
1761133567084366000,8.688365966796875,0.5210393667221069,0.07265033572912216,1.4426281452178955
1761133567104213000,8.708212890625,0.3360622227191925,-0.19260179996490479,1.6317533254623413
1761133567124060000,8.728059814453125,0.10744243860244751,-0.5918521285057068,1.5637128353118896
1761133567143907000,8.747906982421876,0.079939104616642,-0.9948890209197998,1.2297980785369873
1761133567163753000,8.7677529296875,0.12999217212200165,-1.2096211910247803,0.8485950827598572
1761133567183599900,8.787599853515625,0.020346369594335556,-1.1387816667556763,0.6763026714324951
1761133567203447000,8.807447021484375,-0.23108310997486115,-0.9438367486000061,0.6606965065002441
1761133567223294000,8.8272939453125,-0.3698687255382538,-0.6565264463424683,0.599767804145813
1761133567243140900,8.847140869140626,-0.2752052843570709,-0.21774345636367798,0.35017749667167664
1761133567262987300,8.8669873046875,-0.13077189028263092,0.017212357372045517,-0.04392469674348831
1761133567282834200,8.886834228515625,-0.05767562612891197,-0.07770601660013199,-0.4379516541957855
1761133567302681000,8.90668115234375,-0.2170201539993286,-0.31235554814338684,-0.541941225528717
1761133567322528000,8.926528076171875,-0.4915911853313446,-0.5839506983757019,-0.369428426027298
1761133567342374100,8.9463740234375,-0.5317609906196594,-0.6623736023902893,0.03090154007077217
1761133567362221300,8.96622119140625,-0.15207478404045105,-0.5102850198745728,0.42223048210144043
1761133567382068200,8.986068115234374,0.3972834646701813,-0.03784108906984329,0.5607736110687256
1761133567401915100,9.0059150390625,0.8680142760276794,0.2319512814283371,0.5529128313064575
1761133567421761000,9.025760986328125,1.2250231504440308,0.5231171250343323,0.36300596594810486
1761133567441608200,9.045608154296875,1.2623472213745117,0.5128714442253113,0.34153953194618225
1761133567461455000,9.065455078125,1.0296703577041626,0.523758053779602,0.9798219799995422
1761133567481302300,9.08530224609375,1.5978178977966309,1.7945352792739868,-0.8599727749824524
1761133567501149200,9.105149169921875,1.7679966688156128,0.4758789837360382,-2.9424400329589844
1761133567520995000,9.1249951171875,0.3977634906768799,-0.3462909758090973,-2.432749032974243
1761133567540842000,9.144842041015625,-0.06848140060901642,0.8387312293052673,-1.3752195835113525
1761133567560689200,9.164689208984376,0.5973058938980103,2.2743945121765137,-0.6409065127372742
1761133567580536000,9.1845361328125,1.1027190685272217,2.066802740097046,-0.15727736055850983
1761133567600382200,9.20438232421875,0.3069254457950592,1.0268566608428955,0.39432403445243835
1761133567620229000,9.22422900390625,-0.2854585349559784,-0.19524453580379486,0.5215916633605957
1761133567640076300,9.244076171875,0.027968021109700203,-0.41895008087158203,-1.3375364542007446
1761133567659923200,9.263923095703126,0.8122988939285278,-0.8458899855613708,-0.5886331796646118
1761133567679769000,9.28376904296875,0.6246467232704163,-0.18073801696300507,1.5664947032928467
1761133567699616300,9.3036162109375,-0.0643506571650505,0.871073842048645,2.3279874324798584
1761133567719463200,9.323463134765625,-0.316072940826416,0.9169213175773621,1.8750410079956055
1761133567739310300,9.343310302734375,-0.1264558881521225,0.7793560028076172,0.8721523284912109
1761133567759157200,9.3631572265625,-0.015815967693924904,0.41205212473869324,0.24907903373241425
1761133567779003100,9.383003173828126,-0.06283175200223923,-0.8003087043762207,-0.6232603192329407
1761133567798850000,9.40285009765625,0.07677744328975677,-0.27885469794273376,-0.005893361289054155
1761133567818697200,9.422697265625,0.2843703627586365,0.19839726388454437,0.5582028031349182
1761133567838544100,9.442544189453125,0.42066648602485657,0.5719068646430969,0.8545480370521545
1761133567858390000,9.46239013671875,0.34930503368377686,0.37817129492759705,0.6457297801971436
1761133567878237200,9.4822373046875,0.14654919505119324,0.16393043100833893,0.2154107242822647
1761133567898084000,9.502083984375,0.0500413179397583,0.037956174463033676,-0.05645272508263588
1761133567917931000,9.521930908203124,0.03283489868044853,0.06610383838415146,-0.10995397716760635
1761133567937777200,9.541777099609375,0.051274433732032776,0.08042477071285248,-0.04283294081687927
1761133567957624300,9.561624267578125,0.12866084277629852,0.1559048742055893,0.1271776705980301
1761133567977471200,9.58147119140625,0.22128993272781372,0.25097349286079407,0.359905481338501
1761133567997318100,9.601318115234376,0.15422563254833221,0.2990047335624695,0.4551660716533661
1761133568017165300,9.621165283203124,-0.026543157175183296,0.2463969588279724,0.4459090828895569
1761133568037011200,9.64101123046875,-0.1007220521569252,0.08936399966478348,0.33193105459213257
1761133568056858000,9.660858154296875,-0.09203378111124039,0.05039643868803978,0.26451578736305237
1761133568076705300,9.680705322265625,0.024278312921524048,0.00006704824045300484,0.22796820104122162
1761133568096552200,9.70055224609375,0.004064044915139675,-0.22408613562583923,-0.009052608162164688
1761133568116398000,9.720398193359374,-0.11513984203338623,-0.44430041313171387,-0.29212334752082825
1761133568136245200,9.740245361328125,-0.17018625140190125,-0.495674729347229,-0.2601839601993561
1761133568156092200,9.760092041015625,-0.12840339541435242,-0.27840012311935425,0.04818452149629593
