time,seconds_elapsed,z,y,x
1761132143643264300,0.11726416015625,0.027475357055664062,-0.002338498830795288,-0.006549358367919922
1761132143673265400,0.147265380859375,0.02987194061279297,-0.021520394831895828,-0.006723970174789429
1761132143683265300,0.157265380859375,0.032265663146972656,0.002418622374534607,-0.009176738560199738
1761132143693265400,0.167265380859375,0.0226898193359375,-0.002511359751224518,-0.011641077697277069
1761132143703265300,0.177265380859375,0.017902374267578125,-0.00251881405711174,-0.009364515542984009
1761132143713265400,0.187265380859375,0.03226947784423828,-0.007251851260662079,0.012121126055717468
1761132143723265500,0.197265625,0.010721206665039062,-0.016906477510929108,0.012125939130783081
1761132143733265700,0.207265625,0.03705883026123047,-0.01697193831205368,0.016800425946712494
1761132143743265500,0.217265625,0.032268524169921875,-0.0026818029582500458,0.014469526708126068
1761132143753265400,0.227265380859375,0.032268524169921875,-0.002698507159948349,0.014529220759868622
1761132143763265500,0.237265625,0.032268524169921875,-0.0002462230622768402,0.004948846995830536
1761132143773266000,0.247265869140625,0.03226947784423828,-0.00021030381321907043,0.004887863993644714
1761132143783266000,0.25726611328125,0.025087356567382812,-0.0169108584523201,0.0000960230827331543
1761132143793266000,0.267265869140625,0.025089263916015625,-0.007282532751560211,-0.007207624614238739
1761132143803266000,0.27726611328125,0.013116836547851562,0.0022790804505348206,-0.014330171048641205
1761132143813264400,0.287264404296875,0.013117790222167969,-0.0000028461217880249023,0.014295607805252075
1761132143823264500,0.297264404296875,0.04903221130371094,-0.00720607116818428,0.00230620801448822
1761132143833264400,0.307264404296875,0.037059783935546875,-0.014463379979133606,-0.0024187713861465454
1761132143843264500,0.317264404296875,0.02509021759033203,-0.0047708190977573395,0.014294728636741638
1761132143853264400,0.327264404296875,0.03706169128417969,-0.01668604090809822,0.019020937383174896
1761132143863264500,0.337264404296875,0.02987957000732422,-0.0024025030434131622,0.014178499579429626
1761132143873264400,0.347264404296875,0.025092124938964844,0.014470770955085754,0.0021417364478111267
1761132143883264500,0.357264404296875,0.029880523681640625,0.012177659198641777,-0.016958899796009064
1761132143893264400,0.367264404296875,-0.0012454986572265625,0.01218089647591114,0.009435974061489105
1761132143903264500,0.377264404296875,0.03466796875,0.00018933415412902832,-0.00013999640941619873
1761132143913264400,0.387264404296875,0.03706169128417969,-0.016589783132076263,-0.004927277565002441
1761132143923264500,0.397264404296875,0.037059783935546875,-0.01648327335715294,-0.004795879125595093
1761132143933264400,0.407264404296875,0.015514373779296875,0.000390615314245224,0.014292195439338684
1761132143943264500,0.417264404296875,0.02748584747314453,-0.001947309821844101,-0.01689443737268448
1761132143953264400,0.427264404296875,0.046637535095214844,0.0027114972472190857,-0.011980265378952026
1761132143963264500,0.437264404296875,0.013117790222167969,-0.009275849908590317,0.014415763318538666
1761132143973264400,0.447264404296875,0.01790904998779297,-0.006652697920799255,-0.00008051842451095581
1761132143983264500,0.457264404296875,0.037064552307128906,-0.0018123984336853027,0.018952175974845886
1761132143993264400,0.467264404296875,0.0370635986328125,-0.023558955639600754,0.009328305721282959
1761132144003264500,0.477264404296875,0.037062644958496094,0.005116460844874382,0.006996408104896545
1761132144013263600,0.487263671875,0.013120651245117188,-0.002082858234643936,0.02142159640789032
1761132144023263500,0.497263427734375,0.013119697570800781,-0.0020423084497451782,0.021540336310863495
1761132144033263600,0.507263671875,0.03466796875,0.01238119788467884,0.0047757551074028015
1761132144043263500,0.517263427734375,0.03945732116699219,0.0005067549645900726,0.021418504416942596
1761132144053263600,0.527263671875,0.037064552307128906,0.01253083162009716,0.018903926014900208
1761132144063263500,0.537263427734375,0.034668922424316406,0.007608138024806976,0.01418071985244751
1761132144073263400,0.547263427734375,0.017911911010742188,0.010115083307027817,0.01405777782201767
1761132144083263200,0.55726318359375,0.0418548583984375,-0.009121324867010117,0.016357697546482086
1761132144093263400,0.567263427734375,0.03227710723876953,-0.009018689393997192,0.0020859315991401672
1761132144103263200,0.57726318359375,0.03227710723876953,0.0006561949849128723,0.004475623369216919
1761132144113264000,0.58726416015625,0.022701263427734375,-0.03035207837820053,0.0020369812846183777
1761132144123264300,0.59726416015625,0.02748870849609375,-0.004033342003822327,0.004490658640861511
1761132144133264100,0.60726416015625,0.03227710723876953,-0.006428159773349762,0.006884671747684479
1761132144143264300,0.61726416015625,0.013126373291015625,-0.013560466468334198,0.00670565664768219
1761132144153264000,0.62726416015625,0.034674644470214844,0.015149325132369995,0.011475332081317902
1761132144163264300,0.63726416015625,0.02270221710205078,-0.011323131620883942,0.004299253225326538
1761132144173264100,0.64726416015625,0.04425048828125,0.005436772480607033,0.021058842539787292
1761132144183264300,0.65726416015625,0.04425239562988281,-0.011328224092721939,-0.017365992069244385
1761132144193264000,0.66726416015625,0.027492523193359375,0.0006256774067878723,0.0018472373485565186
1761132144203264300,0.67726416015625,0.013124465942382812,0.0006147660315036774,0.00681304931640625
1761132144213263400,0.687263427734375,0.010729789733886719,-0.006465986371040344,0.006886936724185944
1761132144223263500,0.697263427734375,0.03706645965576172,0.0008315593004226685,0.009216934442520142
1761132144233263400,0.707263427734375,0.029885292053222656,-0.013677038252353668,-0.0052790045738220215
1761132144243263500,0.717263427734375,0.04185771942138672,-0.025590848177671432,0.006650164723396301
1761132144253263400,0.727263427734375,0.02988719940185547,-0.020744282752275467,-0.007717989385128021
1761132144263263500,0.737263427734375,0.025098800659179688,-0.02565176412463188,0.004238694906234741
1761132144273263400,0.747263427734375,0.03706932067871094,0.005433795973658562,0.0018463581800460815
1761132144283263500,0.757263427734375,0.020308494567871094,-0.006495419889688492,0.009085886180400848
1761132144293263400,0.767263427734375,0.029888153076171875,-0.003988269716501236,-0.014978870749473572
1761132144303263500,0.777263427734375,0.029885292053222656,-0.0041198283433914185,0.018663913011550903
1761132144313264000,0.78726416015625,0.03227806091308594,0.01262570358812809,0.002023041248321533
1761132144323264300,0.79726416015625,0.02988433837890625,0.007958073168992996,0.009259134531021118
1761132144333264100,0.80726416015625,0.017912864685058594,-0.00882076844573021,0.009259961545467377
1761132144343264300,0.81726416015625,0.027489662170410156,-0.001657918095588684,0.011655151844024658
1761132144353264000,0.82726416015625,0.013125419616699219,-0.01357349380850792,-0.01713697612285614
1761132144363264300,0.83726416015625,0.017912864685058594,0.005443098023533821,0.01159985363483429
1761132144373264400,0.847264404296875,0.01791095733642578,0.005429090932011604,0.011718347668647766
1761132144383264300,0.85726416015625,0.037064552307128906,0.010099086910486221,0.014117740094661713
1761132144393264400,0.867264404296875,0.020305633544921875,-0.009015221148729324,-0.00982605665922165
1761132144403264300,0.87726416015625,0.03466987609863281,0.005332881584763527,0.011781372129917145
1761132144413263600,0.887263671875,0.04424571990966797,0.010068461298942566,-0.007251821458339691
1761132144423263700,0.897263671875,0.020302772521972656,-0.009162865579128265,0.0023287013173103333
1761132144433263600,0.907263671875,0.04903125762939453,-0.011690989136695862,0.019153423607349396
1761132144443263500,0.917263427734375,0.049030303955078125,0.00014767423272132874,-0.002289973199367523
1761132144453263600,0.927263671875,0.015511512756347656,0.002601318061351776,0.007303617894649506
1761132144463263500,0.937263427734375,0.04663658142089844,0.00018491223454475403,0.009639985859394073
1761132144473263600,0.947263671875,0.04184722900390625,-0.02369510382413864,-0.009457424283027649
1761132144483263700,0.957263671875,0.022695541381835938,-0.021207787096500397,0.004785872995853424
1761132144493263600,0.967263671875,0.032273292541503906,0.00033704936504364014,-0.009638190269470215
1761132144503263700,0.977263671875,0.032273292541503906,0.002712152898311615,-0.00006031990051269531
1761132144513264400,0.987264404296875,0.02987957000732422,-0.01176999881863594,0.011916354298591614
1761132144523264500,0.997264404296875,0.02748584747314453,-0.025980670005083084,0.009456142783164978
1761132144533264400,1.007264404296875,0.02269744873046875,0.00041493773460388184,0.019030414521694183
1761132144543264500,1.017264404296875,0.022698402404785156,0.007654085755348206,0.0022096633911132812
1761132144553264400,1.027264404296875,0.0370635986328125,-0.013913195580244064,0.004604808986186981
1761132144563264500,1.037264404296875,0.04424571990966797,-0.0187218114733696,-0.0049712806940078735
1761132144573264400,1.047264404296875,0.010725975036621094,0.02198532223701477,0.014299951493740082
1761132144583264500,1.057264404296875,0.0107269287109375,0.0028710179030895233,-0.007249645888805389
1761132144593264400,1.067264404296875,0.039455413818359375,-0.009175878018140793,0.007177919149398804
1761132144603264500,1.077264404296875,0.034667015075683594,-0.001993391662836075,0.014360480010509491
1761132144613263600,1.087263671875,0.02509021759033203,-0.006800904870033264,0.004784733057022095
1761132144623263500,1.097263427734375,0.05382251739501953,0.0028293468058109283,0.011847101151943207
1761132144633263600,1.107263671875,0.03945732116699219,-0.001981619745492935,0.0046065449714660645
1761132144643263500,1.117263427734375,0.03467082977294922,-0.0066545866429805756,-0.0002458915114402771
1761132144653263600,1.127263671875,0.039458274841308594,0.005299312993884087,0.004602119326591492
1761132144663263500,1.137263427734375,0.03227424621582031,-0.02815660461783409,0.019043125212192535
1761132144673263600,1.147263671875,0.020305633544921875,-0.008966289460659027,0.011800013482570648
1761132144683263500,1.157263427734375,0.020305633544921875,0.005457812920212746,0.004614710807800293
1761132144693263600,1.167263671875,0.027487754821777344,0.000646103173494339,-0.007414467632770538
1761132144703263500,1.177263427734375,0.025094985961914062,-0.018393300473690033,-0.021844126284122467
1761132144713264000,1.18726416015625,0.025094985961914062,-0.018351510167121887,-0.021787196397781372
1761132144723264300,1.19726416015625,0.015517234802246094,-0.00873340293765068,-0.004971027374267578
1761132144733264100,1.20726416015625,0.01791095733642578,-0.00394488126039505,0.016576819121837616
1761132144743264300,1.21726416015625,0.022699356079101562,-0.004023123532533646,0.007003702223300934
1761132144753263900,1.227263916015625,0.025094985961914062,-0.006360664963722229,0.018913395702838898
1761132144763263700,1.237263671875,0.025096893310546875,-0.003912650048732758,-0.0003603324294090271
1761132144773264000,1.247263916015625,-0.0084228515625,-0.006385095417499542,0.014008551836013794
1761132144783263700,1.257263671875,0.015519142150878906,-0.0015576332807540894,-0.005146913230419159
1761132144793263900,1.267263916015625,0.03946208953857422,-0.008681338280439377,0.0020330026745796204
1761132144803263700,1.277263671875,0.025094985961914062,0.008123375475406647,-0.009802773594856262
1761132144813262800,1.287262939453125,0.02270030975341797,-0.0013952665030956268,0.0021653026342391968
1761132144823263000,1.297262939453125,0.020308494567871094,0.020247243344783783,-0.012263260781764984
1761132144843263000,1.317262939453125,0.03467369079589844,-0.013174112886190414,-0.00987377017736435
1761132144853262800,1.327262939453125,0.03706645965576172,-0.013072393834590912,0.004565298557281494
1761132144863263000,1.337262939453125,0.017915725708007812,-0.0033244788646698,0.02598746120929718
1761132144873262800,1.347262939453125,0.025099754333496094,-0.008115854114294052,0.016351789236068726
1761132144883263000,1.357262939453125,0.03228187561035156,0.0015175305306911469,0.004319310188293457
1761132144893262800,1.367262939453125,0.020311355590820312,-0.012807872146368027,0.021077126264572144
1761132144903263000,1.377262939453125,0.0251007080078125,-0.003191765397787094,0.006710134446620941
1761132144913263900,1.387263916015625,0.03228187561035156,-0.010429557412862778,-0.00041069090366363525
1761132144923263700,1.397263671875,0.03706932067871094,-0.012899518013000488,0.004440084099769592
1761132144933264000,1.407263916015625,0.03706932067871094,-0.0034009553492069244,-0.007527247071266174
1761132144943263700,1.417263671875,0.022703170776367188,-0.003340069204568863,-0.005077198147773743
1761132144953263900,1.427263916015625,0.04185771942138672,-0.010427318513393402,-0.0003520771861076355
1761132144963263700,1.437263671875,0.020311355590820312,0.006447160616517067,-0.007598839700222015
1761132144973264000,1.447263916015625,0.02031421661376953,0.006615964695811272,-0.0077638402581214905
1761132144983263700,1.457263671875,0.015527725219726562,-0.01960567757487297,-0.0006455481052398682
1761132144993263900,1.467263916015625,0.034684181213378906,-0.017043210566043854,0.01592940092086792
1761132145003263700,1.477263671875,0.04186534881591797,0.0068203154951334,0.011144593358039856
1761132145013263000,1.48726318359375,0.049048423767089844,0.0043478719890117645,0.018330872058868408
1761132145023263000,1.497262939453125,0.049050331115722656,-0.009964268654584885,0.01581631600856781
1761132145033262800,1.507262939453125,0.01792621612548828,-0.007454998791217804,-0.015372470021247864
1761132145043263000,1.517262939453125,0.0131378173828125,0.006949892267584801,-0.017768308520317078
1761132145053263400,1.527263427734375,0.025109291076660156,0.021256446838378906,-0.008188731968402863
1761132145063263200,1.53726318359375,0.029897689819335938,0.00447806715965271,-0.010581813752651215
1761132145073263400,1.547263427734375,0.025107383728027344,-0.000383865088224411,0.013481169939041138
1761132145086307800,1.560307861328125,0.03229045867919922,-0.009963277727365494,0.013422444462776184
1761132145096307700,1.5703076171875,0.02510833740234375,-0.007588919252157211,0.030182674527168274
1761132145106307800,1.580307861328125,0.02750110626220703,-0.0148472860455513,0.023062437772750854
1761132145116308700,1.590308837890625,0.022713661193847656,-0.02927643433213234,0.013390213251113892
1761132145126308600,1.60030859375,0.013136863708496094,-0.0005272068083286285,0.008581355214118958
1761132145136308700,1.610308837890625,0.02750110626220703,-0.0005626343190670013,-0.005703642964363098
1761132145146308600,1.62030859375,0.029895782470703125,0.0018698424100875854,-0.029647648334503174
1761132145156308700,1.630308837890625,0.025107383728027344,-0.010300051420927048,-0.020120590925216675
1761132145166308600,1.64030859375,0.02750110626220703,0.004065282642841339,0.008609876036643982
1761132145176308700,1.650308837890625,0.02750110626220703,-0.010377679020166397,-0.01772250235080719
1761132145186308600,1.66030859375,0.020318031311035156,0.013548007234930992,0.018250226974487305
1761132145196308700,1.670308837890625,0.013134002685546875,-0.0007552020251750946,0.00872965157032013
1761132145206308600,1.68030859375,0.015529632568359375,-0.0055076442658901215,0.03500509262084961
1761132145216308000,1.690307861328125,0.015529632568359375,-0.00539034977555275,0.03499956429004669
1761132145226307800,1.700307861328125,-1.3012809753417969,-0.06770095974206924,0.022972553968429565
1761132145236308000,1.710307861328125,2.1008682250976562,0.22648854553699493,-0.01932414621114731
1761132145246307800,1.720307861328125,0.48956298828125,-0.10416991263628006,-0.00022399425506591797
1761132145256308000,1.730307861328125,-1.00439453125,-0.2882819175720215,-0.010944388806819916
1761132145266307800,1.740307861328125,-0.31006336212158203,0.1271781474351883,0.0003200918436050415
1761132145276308000,1.750307861328125,0.1065216064453125,0.1460178792476654,0.015092939138412476
1761132145286307800,1.760307861328125,0.2860841751098633,-0.04053974896669388,-0.03489956259727478
1761132145296308000,1.770307861328125,0.19031620025634766,-0.028210707008838654,0.0107107013463974
1761132145306307800,1.780307861328125,-0.2765541076660156,-0.06246431544423103,0.08474916219711304
1761132145316308700,1.790308837890625,-0.113739013671875,-0.009745314717292786,0.038589268922805786
1761132145326308900,1.800308837890625,-0.11374568939208984,-0.00980432704091072,0.03902384638786316
1761132145336308700,1.810308837890625,0.07060718536376953,-0.016987305134534836,0.017456471920013428
1761132145346308900,1.820308837890625,-0.15923118591308594,-0.033564697951078415,-0.0020001977682113647
1761132145356308700,1.830308837890625,-0.12092018127441406,0.0308670811355114,0.00005066394805908203
1761132145366308900,1.840308837890625,0.19750690460205078,0.026009907945990562,-0.0404510423541069
1761132145376308700,1.850308837890625,0.13046646118164062,-0.00027831271290779114,-0.06900675594806671
1761132145386308900,1.860308837890625,-0.10895156860351562,-0.01937885954976082,-0.03560829162597656
1761132145396308700,1.870308837890625,-0.04909324645996094,-0.019312452524900436,0.016825199127197266
1761132145406308900,1.880308837890625,0.2214498519897461,0.028554096817970276,0.01209627091884613
1761132145416308000,1.890307861328125,0.0873708724975586,-0.00025996938347816467,0.017183169722557068
1761132145426307800,1.900307861328125,-0.12810516357421875,-0.03827555477619171,0.012322530150413513
1761132145436308000,1.910307861328125,0.020339012145996094,-0.01901555433869362,0.052783310413360596
1761132145446307800,1.920307861328125,0.11610889434814453,0.01696917787194252,0.023912161588668823
1761132145456308000,1.930307861328125,-0.010786056518554688,0.007403044030070305,0.02412775158882141
1761132145466307800,1.940307861328125,-0.2693614959716797,-0.021464232355356216,0.02175930142402649
1761132145476308000,1.950307861328125,-1.3730907440185547,-0.07921506464481354,-0.04995521903038025
1761132145486307800,1.960307861328125,2.005112648010254,0.2746649980545044,-0.03933604806661606
1761132145496308000,1.970307861328125,2.005107879638672,0.2721365988254547,-0.03967011719942093
1761132145506307800,1.980307861328125,-0.8990306854248047,-0.17972290515899658,-0.04819181561470032
1761132145516308700,1.990308837890625,-0.326812744140625,0.1465943157672882,0.030784249305725098
1761132145526308600,2.00030859375,0.05386066436767578,0.10102079808712006,0.03347708284854889
1761132145536308700,2.010308837890625,0.4728412628173828,-0.06396263837814331,0.031504854559898376
1761132145546308600,2.02030859375,0.13047409057617188,-0.04212900623679161,0.06483373045921326
1761132145556308700,2.030308837890625,-0.32442283630371094,-0.05713898316025734,0.12195141613483429
1761132145566308600,2.04030859375,0.05387115478515625,-0.013960625976324081,0.05655793845653534
1761132145576308700,2.050308837890625,0.05386638641357422,-0.013960827142000198,0.056989654898643494
1761132145586308600,2.06030859375,0.04907798767089844,0.010039929300546646,-0.07231926172971725
1761132145596308700,2.070308837890625,-0.20470428466796875,-0.006671376526355743,-0.0486149936914444
1761132145606308600,2.08030859375,-0.10174942016601562,0.0458659827709198,-0.056164465844631195
1761132145616307700,2.0903076171875,0.27892589569091797,0.02907911315560341,-0.06307131052017212
1761132145626307800,2.100307861328125,0.09696483612060547,-0.025822479277849197,-0.05332539975643158
1761132145636307700,2.1103076171875,-0.15203189849853516,-0.037777286022901535,-0.019885778427124023
1761132145646307800,2.120307861328125,-0.07541561126708984,-0.001988425850868225,0.06617371737957001
1761132145656307700,2.1303076171875,0.2166767120361328,0.04354344308376312,0.05904810130596161
1761132145666307800,2.140307861328125,0.05386924743652344,-0.008963067084550858,0.04964070022106171
1761132145676307700,2.1503076171875,-0.1400604248046875,-0.06624889373779297,0.06635290384292603
1761132145686307600,2.1603076171875,0.013170242309570312,-0.02084314078092575,0.0422968864440918
1761132145696307700,2.1703076171875,0.10654258728027344,0.029381539672613144,0.02324405312538147
1761132145706307600,2.1803076171875,-0.025140762329101562,0.0341760590672493,-0.0005609095096588135
1761132145716308500,2.19030859375,-0.34117603302001953,-0.04516814649105072,-0.02213253080844879
1761132145726308600,2.20030859375,-0.07781982421875,-0.04083915054798126,-0.10806690156459808
1761132145736308700,2.210308837890625,1.4807891845703125,0.18801385164260864,-0.08543270826339722
1761132145746308600,2.22030859375,-0.4585113525390625,-0.1740606427192688,-0.025984324514865875
1761132145756308700,2.230308837890625,-0.4584827423095703,-0.17108331620693207,-0.027398906648159027
1761132145766308600,2.24030859375,0.041904449462890625,0.07065916061401367,0.04694288969039917
1761132145776308700,2.250308837890625,0.12329959869384766,-0.008603259921073914,0.033021584153175354
1761132145786308600,2.26030859375,0.32441043853759766,-0.034647367894649506,0.05492895841598511
1761132145796308700,2.270308837890625,-0.09218025207519531,-0.04448680579662323,0.1218021810054779
1761132145806308600,2.28030859375,-0.2621622085571289,-0.07120192795991898,0.10927943885326385
1761132145816307700,2.2903076171875,0.2909059524536133,-0.008802883327007294,0.0033776015043258667
1761132145826307800,2.300307861328125,0.21907901763916016,0.05861780047416687,-0.04907707870006561
1761132145836307700,2.3103076171875,-0.04188728332519531,0.0397353395819664,-0.05395640432834625
1761132145846307800,2.320307861328125,-0.15680503845214844,0.00859643705189228,-0.06622150540351868
1761132145856307700,2.3303076171875,0.11374092102050781,0.0060749053955078125,-0.07838305830955505
1761132145866307800,2.340307861328125,0.20471668243408203,0.027661187574267387,-0.08756883442401886
1761132145876308000,2.350307861328125,0.013177871704101562,-0.0009014531970024109,-0.0490337610244751
1761132145886307800,2.360307861328125,-0.13765907287597656,-0.03686622902750969,0.025345876812934875
1761132145896308000,2.370307861328125,-0.1568136215209961,-0.012999191880226135,0.09964804351329803
1761132145906307800,2.380307861328125,-1.6364355087280273,-0.07531328499317169,0.054455697536468506
1761132145916308700,2.390308837890625,2.158355712890625,0.28794029355049133,0.0749359279870987
1761132145926308900,2.400308837890625,-0.2621726989746094,-0.3490262031555176,0.06869275867938995
1761132145936308700,2.410308837890625,-0.8942041397094727,-0.2368496209383011,-0.011975161731243134
1761132145946308900,2.420308837890625,-0.2669200897216797,0.22590160369873047,0.004812449216842651
1761132145956308700,2.430308837890625,0.010801315307617188,0.11327514052391052,-0.013963006436824799
1761132145966308900,2.440308837890625,0.4106302261352539,-0.10947418957948685,-0.06643500924110413
1761132145976308700,2.450308837890625,0.1329021453857422,-0.05941769853234291,-0.03783169388771057
1761132145986308900,2.460308837890625,-0.3603048324584961,0.026105452328920364,0.02201518416404724
1761132145996308700,2.470308837890625,0.1089630126953125,0.052482277154922485,-0.0023408085107803345
1761132146006308900,2.480308837890625,0.34119224548339844,0.02368639037013054,0.010339975357055664
1761132146016308000,2.490307861328125,0.34119224548339844,0.023782402276992798,0.010296180844306946
1761132146026307800,2.500307861328125,-0.1831340789794922,0.021435802802443504,0.01724088191986084
1761132146036308000,2.510307861328125,-0.03708362579345703,0.07391668111085892,-0.002218112349510193
1761132146046307800,2.520307861328125,0.21190929412841797,0.023747876286506653,-0.006775915622711182
1761132146056307700,2.5303076171875,0.11614131927490234,-0.055119745433330536,-0.05937626212835312
1761132146066307800,2.540307861328125,-0.0969400405883789,-0.04782674461603165,-0.04038479924201965
1761132146076307700,2.5503076171875,-0.1208791732788086,0.05515558272600174,-0.004630431532859802
1761132146086307800,2.560307861328125,0.19515705108642578,0.04585278779268265,0.004914283752441406
1761132146096307700,2.5703076171875,0.015590667724609375,-0.04492499679327011,0.005022913217544556
1761132146106307800,2.580307861328125,-0.10890388488769531,-0.08312584459781647,0.02872428297996521
1761132146116308700,2.590308837890625,0.017991065979003906,0.007825788110494614,0.04770238697528839
1761132146126308600,2.60030859375,0.07544898986816406,0.0364469476044178,0.04547072947025299
1761132146136308700,2.610308837890625,-0.13284873962402344,-0.0066590458154678345,0.03848502039909363
1761132146146308600,2.62030859375,-1.832733154296875,-0.14564146101474762,-0.026172660291194916
1761132146156308700,2.630308837890625,2.270914077758789,0.2535880208015442,-0.02041374146938324
1761132146166308600,2.64030859375,0.22866344451904297,-0.2399972379207611,-0.0405379980802536
1761132146176308700,2.650308837890625,-1.0378398895263672,-0.18088221549987793,-0.056073009967803955
1761132146186308600,2.66030859375,-0.46083831787109375,0.2122517228126526,-0.0055223554372787476
1761132146196308700,2.670308837890625,0.11376190185546875,0.06346030533313751,0.006897270679473877
1761132146206308600,2.68030859375,0.5926008224487305,-0.07260292768478394,-0.016749508678913116
1761132146216307700,2.6903076171875,0.21671009063720703,0.023226236924529076,0.05990158021450043
1761132146226307800,2.700307861328125,-0.4297199249267578,-0.02532859519124031,0.1168828159570694
1761132146236308000,2.710307861328125,-0.07297325134277344,-0.015552323311567307,0.051464468240737915
1761132146246307800,2.720307861328125,0.48486900329589844,0.015555497258901596,-0.003130108118057251
1761132146256308000,2.730307861328125,0.12334537506103516,-0.0008305422961711884,-0.034232914447784424
1761132146266307800,2.740307861328125,-0.19268321990966797,0.02323639951646328,-0.017753966152668
1761132146276308000,2.750307861328125,-0.13761329650878906,0.018198611214756966,-0.037210047245025635
1761132146286307800,2.760307861328125,0.28854942321777344,0.013325240463018417,-0.06564226746559143
1761132146296308000,2.770307861328125,0.1640481948852539,-0.0007715113461017609,-0.07254278659820557
1761132146306307800,2.780307861328125,-0.16874408721923828,-0.017438113689422607,-0.05351130664348602
1761132146316308700,2.790308837890625,-0.10170650482177734,0.008757546544075012,0.006291240453720093
1761132146326308900,2.800308837890625,-0.10170841217041016,0.00890342891216278,0.006461247801780701
1761132146336308700,2.810308837890625,0.06827640533447266,-0.014943867921829224,0.05228082835674286
1761132146346308900,2.820308837890625,-0.15916919708251953,-0.06272177398204803,0.05922268331050873
1761132146356308700,2.830308837890625,-0.02509021759033203,-0.024567443877458572,0.061290234327316284
1761132146366308900,2.840308837890625,0.053915977478027344,0.013491198420524597,0.05186229944229126
1761132146376308700,2.850308837890625,0.053913116455078125,0.013537954539060593,0.05201718211174011
1761132146386308900,2.860308837890625,1.385085105895996,0.051442161202430725,-0.09381420910358429
1761132146396308700,2.870308837890625,0.6548395156860352,0.023305121809244156,-0.07412547618150711
1761132146406308900,2.880308837890625,-0.7529325485229492,-0.18346339464187622,-0.05111819505691528
1761132146416308000,2.890307861328125,-0.4033632278442383,0.17035970091819763,-0.008659139275550842
1761132146426307800,2.900307861328125,0.2023611068725586,0.09309865534305573,-0.00823606550693512
1761132146436308000,2.910307861328125,0.17362594604492188,-0.14410802721977234,-0.017470799386501312
1761132146446307800,2.920307861328125,0.3172750473022461,-0.019360922276973724,0.0355038195848465
1761132146456308000,2.930307861328125,-0.2214183807373047,0.04272093623876572,0.10470792651176453
1761132146466307800,2.940307861328125,-0.2046499252319336,-0.0051110126078128815,0.049069687724113464
1761132146476308000,2.950307861328125,0.24306488037109375,-0.07222546637058258,0.027564585208892822
1761132146486307800,2.960307861328125,0.1736307144165039,-0.009810913354158401,-0.02252519130706787
1761132146496308000,2.970307861328125,-0.1471881866455078,0.06695001572370529,-0.02993067353963852
1761132146506307800,2.980307861328125,-0.1208505630493164,0.06430993229150772,-0.039731621742248535
1761132146516308700,2.990308837890625,0.1329336166381836,-0.031617727130651474,-0.03499476611614227
1761132146526308600,3.00030859375,0.16645050048828125,-0.036238353699445724,-0.056314706802368164
1761132146536308700,3.010308837890625,0.006039619445800781,0.009490340948104858,-0.05864141136407852
1761132146546308600,3.02030859375,-0.16634273529052734,0.05011209845542908,0.015543490648269653
1761132146556308700,3.030308837890625,0.08025932312011719,-0.026540767401456833,0.03471846878528595
1761132146566308600,3.04030859375,0.1257467269897461,-0.052888646721839905,0.010953575372695923
1761132146576308700,3.050308837890625,-0.03945159912109375,-0.03357960656285286,0.05639714002609253
1761132146586308600,3.06030859375,-0.049027442932128906,-0.007407516241073608,0.0658244639635086
1761132146596308700,3.070308837890625,-0.008325576782226562,0.006879456341266632,0.03230932354927063
1761132146606308600,3.08030859375,-0.8989706039428711,-0.019469428807497025,-0.010648220777511597
1761132146616308000,3.090307861328125,1.7298545837402344,0.07590799033641815,-0.0580626055598259
1761132146626308000,3.10030810546875,0.5590763092041016,0.01155763864517212,-0.048074059188365936
1761132146636308000,3.110307861328125,-0.8271474838256836,-0.21179485321044922,-0.034652069211006165
1761132146646308000,3.12030810546875,-0.3889932632446289,0.15629717707633972,-0.006533801555633545
1761132146656308000,3.130307861328125,0.19997215270996094,0.11744597554206848,0.02750156819820404
1761132146666308000,3.14030810546875,0.21193981170654297,-0.0958254337310791,-0.0201776921749115
1761132146676308000,3.150307861328125,0.2837638854980469,-0.021443255245685577,0.023028120398521423
1761132146686307800,3.160307861328125,-0.1998615264892578,0.023621251806616783,0.07301221787929535
1761132146696308000,3.170307861328125,-0.15915393829345703,0.011703426018357277,0.024595335125923157
1761132146706307800,3.180307861328125,0.25504016876220703,-0.014543261379003525,-0.02543206512928009
1761132146716308700,3.190308837890625,0.1353282928466797,-0.014316622167825699,-0.034764304757118225
1761132146726308900,3.200308837890625,0.1353302001953125,-0.014145493507385254,-0.034889936447143555
1761132146736309000,3.21030908203125,-0.16154766082763672,0.10064868628978729,-0.020754173398017883
1761132146746308900,3.220308837890625,0.14251327514648438,-0.0024940185248851776,-0.006301417946815491
1761132146756309000,3.23030908203125,0.1640605926513672,-0.04791935905814171,-0.03489765524864197
1761132146766308900,3.240308837890625,0.02040863037109375,-0.012026704847812653,-0.013368479907512665
1761132146776309000,3.25030908203125,0.020409584045410156,-0.012094438076019287,-0.013561628758907318
1761132146786308900,3.260308837890625,0.12814903259277344,0.009432226419448853,0.015130624175071716
1761132146796309000,3.27030908203125,0.10659980773925781,-0.04073624685406685,0.022544100880622864
1761132146806308900,3.280308837890625,-0.03705310821533203,-0.050270628184080124,0.027389660477638245
1761132146816308000,3.290307861328125,-0.05620574951171875,0.004715178161859512,0.03212301433086395
1761132146826308000,3.30030810546875,0.04434967041015625,0.019040422514081,0.01534588634967804
1761132146836308000,3.310307861328125,-0.06818199157714844,0.02125069499015808,0.01800377666950226
1761132146846308000,3.32030810546875,-0.6332130432128906,-0.017255734652280807,-0.029930002987384796
1761132146856308000,3.330307861328125,1.3180532455444336,0.04695674404501915,-0.08695846796035767
1761132146866308000,3.34030810546875,0.4226102828979492,0.007373210042715073,-0.041036590933799744
1761132146876308000,3.350307861328125,-0.685887336730957,-0.11315666139125824,-0.013066373765468597
1761132146886308000,3.36030810546875,-0.2668895721435547,0.1081811934709549,0.02222779393196106
1761132146896308000,3.370307861328125,0.12335872650146484,0.002400290220975876,0.024936974048614502
1761132146906308000,3.38030810546875,0.26940250396728516,-0.07877551019191742,0.04433518648147583
1761132146916308700,3.390308837890625,0.19039630889892578,0.010103531181812286,0.06586942076683044
1761132146926308600,3.40030859375,-0.21422195434570312,-0.021327905356884003,0.0919254869222641
1761132146936308700,3.410308837890625,-0.08013725280761719,-0.0451635867357254,0.02900393307209015
1761132146946308600,3.42030859375,0.2574434280395508,-0.013894680887460709,-0.021123960614204407
1761132146956308700,3.430308837890625,0.025206565856933594,0.04616047441959381,-0.04499664157629013
1761132146966308600,3.44030859375,-0.13280963897705078,0.051121786236763,-0.030698485672473907
1761132146976308700,3.450308837890625,-0.060982704162597656,0.012612929567694664,-0.009259238839149475
1761132146986308600,3.46030859375,0.16167640686035156,-0.004163477569818497,-0.0546894371509552
1761132146996308700,3.470308837890625,0.13294315338134766,0.0271889790892601,-0.04247352480888367
1761132147006308600,3.48030859375,-0.04422569274902344,0.024811776354908943,-0.016196943819522858
1761132147016308000,3.490307861328125,-0.06577396392822266,0.015118110924959183,0.04126943647861481
1761132147026307800,3.500307861328125,0.15449142456054688,-0.03761245310306549,0.02932065725326538
1761132147036307700,3.5103076171875,0.0946340560913086,-0.01841134950518608,0.02710101008415222
1761132147046307800,3.520307861328125,-0.07056522369384766,0.0032345540821552277,0.03906752169132233
1761132147056307700,3.5303076171875,-0.03225517272949219,0.015138864517211914,0.03889402747154236
1761132147066307800,3.540307861328125,0.07787609100341797,0.02456374652683735,0.03183600306510925
1761132147076307700,3.5503076171875,-0.8175582885742188,-0.008989591151475906,0.03193582594394684
1761132147086307800,3.560307861328125,1.784937858581543,0.0650787353515625,-0.09243809431791306
1761132147096307700,3.5703076171875,0.79132080078125,0.14189907908439636,-0.038701847195625305
1761132147106307800,3.580307861328125,-0.9205198287963867,-0.2929210662841797,-0.02750077098608017
1761132147116308700,3.590308837890625,-0.37940120697021484,0.13350097835063934,-0.0072734057903289795
1761132147126308600,3.60030859375,0.18082714080810547,0.08463088423013687,0.03176712989807129
1761132147136308700,3.610308837890625,0.010838508605957031,-0.09002181142568588,-0.001619979739189148
1761132147146308600,3.62030859375,0.3412342071533203,-0.018081050366163254,0.04902578890323639
1761132147156308700,3.630308837890625,-0.15915584564208984,0.00985584408044815,0.08954809606075287
1761132147166308600,3.64030859375,-0.3099832534790039,-0.004634719341993332,0.05784021317958832
1761132147176308700,3.650308837890625,0.29335784912109375,-0.014217235147953033,-0.02607448399066925
1761132147186308600,3.66030859375,0.12336540222167969,0.016900647431612015,-0.08565428853034973
1761132147196308700,3.670308837890625,-0.07774829864501953,0.007365487515926361,-0.07123221457004547
1761132147206308600,3.68030859375,-0.1567535400390625,0.05266730859875679,-0.04276752471923828
1761132147216274700,3.690274658203125,0.0754842758178711,-0.0025220736861228943,-0.02610085904598236
1761132147226241300,3.7002412109375,0.17603683471679688,-0.01914874091744423,-0.018590740859508514
1761132147236207900,3.710207763671875,0.034778594970703125,-0.01180291548371315,-0.023249223828315735
1761132147246174500,3.720174560546875,-0.21661376953125,0.031216425821185112,0.048619747161865234
1761132147256141300,3.730141357421875,0.10660648345947266,-0.009433846920728683,0.04125814139842987
1761132147266108000,3.74010791015625,0.13054466247558594,-0.030931826680898666,0.03670293092727661
1761132147276074500,3.750074462890625,-0.17351913452148438,-0.04052840918302536,0.034309715032577515
1761132147286041000,3.760041015625,-0.06817340850830078,-0.026266343891620636,-0.013667963445186615
1761132147296008000,3.770008056640625,0.6788139343261719,0.09788870811462402,-0.0326092466711998
1761132147305974500,3.779974609375,-0.04663562774658203,-0.027162615209817886,-0.03943249583244324
1761132147315942100,3.789942138671875,-0.3147764205932617,-0.02381102740764618,-0.04236173629760742
1761132147325908700,3.79990869140625,-0.056194305419921875,-0.0019099228084087372,-0.028425179421901703
1761132147335875300,3.809875244140625,0.01802349090576172,0.0003113187849521637,-0.009204372763633728
1761132147345842200,3.81984228515625,0.20716285705566406,0.03645245358347893,-0.0017382651567459106
1761132147355808800,3.829808837890625,0.07547855377197266,0.026546351611614227,0.060604825615882874
1761132147365775400,3.839775390625,-0.10408306121826172,-0.06941283494234085,0.04593425989151001
1761132147375742200,3.8497421875,0.03717613220214844,-0.06450805813074112,0.04110144078731537
1761132147385708800,3.859708740234375,0.15688419342041016,0.031505756080150604,0.0269603431224823
1761132147395675400,3.86967529296875,0.0036554336547851562,0.04599180445075035,0.017436906695365906
1761132147405642000,3.87964208984375,-0.08492755889892578,0.012464934960007668,-0.0042871832847595215
1761132147415607800,3.88960791015625,0.037174224853515625,-0.018795669078826904,-0.030597351491451263
1761132147425574700,3.89957470703125,0.11618328094482422,0.0242221150547266,-0.028199337422847748
1761132147435541200,3.909541259765625,0.03238487243652344,0.05527174472808838,-0.025742486119270325
1761132147445507800,3.9195078125,-0.03704547882080078,0.00016294047236442566,-0.021011129021644592
1761132147455474400,3.929474365234375,0.049144744873046875,0.00006562843918800354,-0.0018334835767745972
1761132147465441300,3.939441162109375,0.10660552978515625,0.0049918293952941895,0.005362257361412048
1761132147475408000,3.949407958984375,-0.001132965087890625,0.0026936419308185577,0.029260501265525818
1761132147485374500,3.95937451171875,-0.020285606384277344,0.00023754313588142395,0.026790842413902283
1761132147495341000,3.969341064453125,0.06351184844970703,-0.00217650830745697,0.019609063863754272
1761132147505308000,3.979307861328125,0.10181808471679688,0.014645960181951523,0.007713928818702698
1761132147515308800,3.989308837890625,0.010838508605957031,-0.011651337146759033,0.007712021470069885
1761132147525308700,3.99930859375,0.01802349090576172,-0.013992082327604294,-0.0091676265001297
1761132147535308800,4.009308837890625,0.029994964599609375,0.00035054609179496765,-0.03795599937438965
1761132147545308700,4.01930859375,0.03957176208496094,0.04111412540078163,-0.00916929543018341
1761132147555308800,4.029308837890625,0.039569854736328125,0.02918749302625656,-0.02341887354850769
1761132147565308700,4.03930859375,-0.015498161315917969,-0.004428643733263016,-0.013818018138408661
1761132147575308800,4.049308837890625,0.0180206298828125,-0.02840866893529892,0.0029629021883010864
1761132147585308700,4.05930859375,0.04675006866455078,0.021972324699163437,0.015046671032905579
1761132147595308800,4.069308837890625,0.05393218994140625,0.03871538117527962,0.010318145155906677
1761132147605308700,4.07930859375,0.02520275115966797,-0.009152039885520935,0.01025836169719696
1761132147615307800,4.089307861328125,0.008441925048828125,-0.03548475354909897,0.005548298358917236
1761132147625308000,4.099307861328125,0.05393218994140625,0.007650189101696014,0.007940724492073059
1761132147635307800,4.109307861328125,0.010835647583007812,0.02918126806616783,-0.013547368347644806
1761132147645308000,4.119307861328125,0.008442878723144531,-0.011464372277259827,-0.004032149910926819
1761132147655307800,4.129307861328125,0.03238487243652344,-0.013799149543046951,-0.016005657613277435
1761132147665308000,4.139307861328125,0.04435443878173828,0.014914531260728836,-0.006369113922119141
1761132147675307800,4.149307861328125,0.027594566345214844,0.007771629840135574,-0.011159136891365051
1761132147685308000,4.159307861328125,0.010837554931640625,0.022131647914648056,-0.0040940046310424805
1761132147695307800,4.169307861328125,0.010837554931640625,0.022174112498760223,-0.0040369778871536255
1761132147705308000,4.179307861328125,0.03956890106201172,-0.018471524119377136,0.024631842970848083
1761132147715308800,4.189308837890625,0.020415306091308594,0.01742217317223549,0.01984444260597229
1761132147725308700,4.19930859375,0.027597427368164062,0.022267136722803116,0.0197831392288208
1761132147735308800,4.209308837890625,0.0443572998046875,-0.0088738352060318,0.012660399079322815
1761132147745308700,4.21930859375,0.053933143615722656,-0.008871238678693771,-0.004040271043777466
1761132147755308800,4.229308837890625,0.03717231750488281,0.012601060792803764,0.0032047778367996216
1761132147765308700,4.23930859375,0.022806167602539062,-0.020937610417604446,-0.013553820550441742
1761132147775309300,4.249309326171875,0.03238391876220703,-0.01603139564394951,-0.013539902865886688
1761132147785309200,4.25930908203125,0.0395660400390625,0.007834326475858688,-0.011102795600891113
1761132147795309300,4.269309326171875,0.034778594970703125,0.007932554930448532,-0.011087968945503235
1761132147805309200,4.27930908203125,0.02280712127685547,0.00793268159031868,-0.006299525499343872
1761132147815308300,4.289308349609375,0.034778594970703125,0.0007897727191448212,-0.0015127509832382202
1761132147825308400,4.299308349609375,0.04195976257324219,-0.0016629472374916077,0.0008842796087265015
1761132147835308300,4.309308349609375,0.03717041015625,0.017475880682468414,0.0033966898918151855
1761132147845308400,4.319308349609375,0.025200843811035156,0.0007522404193878174,0.008124381303787231
1761132147855308300,4.329308349609375,0.032382965087890625,-0.0015830062329769135,-0.011032015085220337
1761132147865308400,4.339308349609375,0.03238201141357422,0.003247123211622238,0.020149633288383484
1761132147875308300,4.349308349609375,0.02998828887939453,0.005641888827085495,-0.003792315721511841
1761132147885308400,4.359308349609375,0.03717231750488281,0.007952399551868439,-0.001511991024017334
1761132147895308300,4.369308349609375,0.03477668762207031,0.0006947927176952362,-0.03496815264225006
1761132147905308400,4.379308349609375,0.039565086364746094,-0.01612326130270958,-0.013417579233646393
1761132147915309000,4.38930908203125,0.03477668762207031,0.0007369592785835266,-0.0013922899961471558
1761132147925309200,4.39930908203125,0.027593612670898438,-0.003990069031715393,-0.008518874645233154
1761132147935309000,4.40930908203125,0.02998638153076172,0.0007815919816493988,-0.027612783014774323
1761132147945309200,4.41930908203125,0.04195690155029297,-0.003966588526964188,0.008318081498146057
1761132147955309000,4.42930908203125,0.02998638153076172,-0.001631416380405426,-0.006044492125511169
1761132147965309200,4.43930908203125,0.02998828887939453,-0.003991633653640747,0.012989833950996399
1761132147975309000,4.44930908203125,0.03238201141357422,0.003132712095975876,0.0034159570932388306
1761132147985309200,4.45930908203125,0.03956317901611328,-0.025613494217395782,0.010658472776412964
1761132147995309000,4.46930908203125,0.027591705322265625,0.010283175855875015,0.017900973558425903
1761132148005309200,4.47930908203125,0.027591705322265625,0.0007052868604660034,-0.0036349743604660034
1761132148015308300,4.489308349609375,0.0347747802734375,-0.016057107597589493,-0.013270638883113861
1761132148025308400,4.499308349609375,0.027593612670898438,0.010256949812173843,-0.02292466163635254
1761132148035308300,4.509308349609375,0.03477668762207031,0.005528364330530167,-0.022907748818397522
1761132148045308200,4.51930810546875,0.022805213928222656,0.017539065331220627,0.0034268349409103394
1761132148055308300,4.529308349609375,0.0132293701171875,-0.006406325846910477,-0.013391591608524323
1761132148065308200,4.53930810546875,0.018016815185546875,-0.0017557218670845032,-0.011010512709617615
1761132148075307800,4.549307861328125,0.0395660400390625,0.007798891514539719,-0.0014915168285369873
1761132148085308000,4.559307861328125,0.027596473693847656,0.0006669983267784119,-0.013641543686389923
1761132148095307800,4.569307861328125,0.020415306091308594,-0.01124497875571251,0.0007210373878479004
1761132148105308000,4.579307861328125,0.03717327117919922,-0.006534811109304428,-0.0016694813966751099
1761132148115308500,4.58930859375,0.04914665222167969,0.0007016211748123169,0.010181441903114319
1761132148125308700,4.59930859375,0.032385826110839844,-0.00164872407913208,0.0030757635831832886
1761132148135308500,4.60930859375,0.037174224853515625,0.0007487200200557709,-0.0016536861658096313
1761132148145308700,4.61930859375,0.04675102233886719,0.0031226910650730133,0.01271219551563263
1761132148155308500,4.62930859375,0.049144744873046875,-0.001623157411813736,-0.006384223699569702
1761132148165308700,4.63930859375,0.03717327117919922,0.0032241493463516235,0.000795707106590271
1761132148175308500,4.64930859375,0.018018722534179688,-0.006369337439537048,-0.0015389025211334229
1761132148185308700,4.65930859375,0.015626907348632812,-0.0063153766095638275,0.0007352679967880249
1761132148195308500,4.66930859375,0.02759838104248047,0.003259211778640747,0.010253474116325378
1761132148205308700,4.67930859375,0.03957080841064453,0.012931374832987785,-0.011357605457305908
1761132148215307800,4.689307861328125,0.03478240966796875,-0.008615799248218536,-0.006568968296051025
1761132148225308000,4.699307861328125,0.03717613220214844,0.010577131062746048,-0.013753347098827362
1761132148235307800,4.709307861328125,0.04436016082763672,0.00572696328163147,-0.018597878515720367
1761132148245308000,4.719307861328125,0.020417213439941406,-0.011049050837755203,-0.0017786920070648193
1761132148255307800,4.729307861328125,0.032385826110839844,0.005637969821691513,0.022284701466560364
1761132148265308000,4.739307861328125,0.03478050231933594,-0.01353548839688301,-0.004050701856613159
1761132148275307800,4.749307861328125,0.020417213439941406,-0.0015114247798919678,-0.0041710734367370605
1761132148285308000,4.759307861328125,0.025206565856933594,-0.006302688270807266,-0.009018301963806152
1761132148295307800,4.769307861328125,0.027599334716796875,-0.003866054117679596,-0.013749562203884125
1761132148305308000,4.779307861328125,0.010842323303222656,-0.006323929876089096,-0.0018933117389678955
1761132148315308800,4.789308837890625,0.049147605895996094,0.017543867230415344,0.012534841895103455
1761132148325308700,4.79930859375,0.03238964080810547,0.000778738409280777,0.012417197227478027
1761132148335308800,4.809308837890625,0.022813796997070312,-0.0231858529150486,0.005176633596420288
1761132148345308700,4.81930859375,0.022813796997070312,0.012724312022328377,-0.01643001288175583
1761132148355308800,4.829308837890625,0.013235092163085938,0.007863517850637436,0.007633388042449951
1761132148365308700,4.83930859375,0.027601242065429688,-0.0017919205129146576,-0.013930149376392365
1761132148375308800,4.849308837890625,0.0467529296875,0.01980079896748066,0.014935389161109924
1761132148385308700,4.85930859375,0.01562976837158203,0.007823683321475983,-0.011518627405166626
1761132148395308800,4.869308837890625,0.05154228210449219,0.012671379372477531,0.0028440356254577637
1761132148405308700,4.87930859375,0.03478240966796875,0.01983647607266903,0.010086074471473694
1761132148415307800,4.889307861328125,0.025205612182617188,-0.032914068549871445,0.019666627049446106
1761132148425308000,4.899307861328125,0.032387733459472656,-0.006519336253404617,-0.0018840283155441284
1761132148435307800,4.909307861328125,0.034783363342285156,0.003035280853509903,0.010029181838035583
1761132148445308000,4.919307861328125,0.03717613220214844,0.022171903401613235,-0.009064808487892151
1761132148455307800,4.929307861328125,0.025205612182617188,0.012597138062119484,0.014935880899429321
1761132148465308000,4.939307861328125,0.037174224853515625,0.01742801070213318,-0.0017665177583694458
1761132148475307800,4.949307861328125,0.03717327117919922,0.0029878057539463043,-0.008886471390724182
1761132148485308000,4.959307861328125,0.03478050231933594,-0.001861967146396637,-0.01851927489042282
1761132148495307800,4.969307861328125,0.02280902862548828,0.007636073976755142,-0.006564021110534668
1761132148505308000,4.979307861328125,0.041960716247558594,-0.009195603430271149,-0.025596216320991516
1761132148515308500,4.98930859375,0.04435539245605469,0.0004410669207572937,0.0031509846448898315
1761132148525308700,4.99930859375,0.03956794738769531,0.010054022073745728,0.000696226954460144
1761132148535308500,5.00930859375,0.022808074951171875,-0.009158585220575333,-0.008897334337234497
1761132148545308700,5.01930859375,0.034778594970703125,-0.009175706654787064,-0.004049345850944519
1761132148555308500,5.02930859375,0.03238391876220703,-0.004347074776887894,-0.004031538963317871
1761132148565308700,5.03930859375,0.032382965087890625,-0.001888517290353775,-0.00631086528301239
1761132148575308800,5.049308837890625,0.03238201141357422,-0.0019082389771938324,-0.006310001015663147
1761132148585308700,5.05930859375,0.032382965087890625,-0.011429302394390106,0.0008111447095870972
1761132148595308800,5.069308837890625,0.03717327117919922,-0.009057678282260895,0.0007531940937042236
1761132148605308700,5.07930859375,0.0395660400390625,0.01967564783990383,0.007994472980499268
1761132148615307800,5.089307861328125,0.02519989013671875,0.021993644535541534,-0.003914177417755127
1761132148625308000,5.099307861328125,0.020412445068359375,0.010000061243772507,-0.018337346613407135
1761132148635307800,5.109307861328125,0.02519989013671875,-0.0066973306238651276,-0.018281109631061554
1761132148645308000,5.119307861328125,0.015625,0.015004746615886688,-0.023135483264923096
1761132148655307800,5.129307861328125,0.025203704833984375,0.012586535885930061,0.0007095485925674438
1761132148665308000,5.139307861328125,0.039566993713378906,0.002935558557510376,0.01755101978778839
1761132148675307800,5.149307861328125,0.022808074951171875,0.005308091640472412,-0.011237025260925293
1761132148685307600,5.1593076171875,0.034778594970703125,-0.004227455705404282,-0.008786097168922424
1761132148695307800,5.169307861328125,0.013230323791503906,0.005290709435939789,-0.0016007274389266968
1761132148705307600,5.1793076171875,0.02041339874267578,-0.01142939180135727,-0.020756110548973083
1761132148715308500,5.18930859375,0.02999114990234375,0.012509768828749657,0.0007328838109970093
1761132148725308700,5.19930859375,0.02999114990234375,-0.018634699285030365,-0.0016605108976364136
1761132148735308500,5.20930859375,0.02520275115966797,-0.00666317343711853,-0.004054516553878784
1761132148745308700,5.21930859375,0.03478050231933594,-0.01381218433380127,0.010191276669502258
1761132148755308500,5.22930859375,0.041962623596191406,0.0004943758249282837,-0.008959561586380005
1761132148765308700,5.23930859375,0.022809982299804688,-0.0018048472702503204,0.007736429572105408
1761132148775308800,5.249308837890625,0.03957080841064453,0.017405852675437927,-0.011459052562713623
1761132148785308700,5.25930859375,0.032387733459472656,0.010261867195367813,0.007692694664001465
1761132148795308800,5.269308837890625,0.03238868713378906,0.005470912903547287,0.014816448092460632
1761132148805308700,5.27930859375,0.03478431701660156,-0.0088554248213768,-0.0019447654485702515
1761132148815307800,5.289307861328125,0.022812843322753906,-0.004008501768112183,0.005235031247138977
1761132148825308000,5.299307861328125,0.03238868713378906,0.005610480904579163,-0.01386154443025589
1761132148835307800,5.309307861328125,0.022809982299804688,-0.0015861354768276215,-0.006560429930686951
1761132148845308000,5.319307861328125,0.04436016082763672,-0.008712511509656906,0.002954810857772827
1761132148855307800,5.329307861328125,0.032387733459472656,0.005574587732553482,-0.018589280545711517
1761132148865308000,5.339307861328125,0.015628814697265625,0.005633104592561722,-0.001832708716392517
1761132148875307800,5.349307861328125,0.027601242065429688,-0.0014972612261772156,0.01241198182106018
1761132148885308000,5.359307861328125,0.04436206817626953,0.012845361605286598,-0.0020111948251724243
1761132148895307800,5.369307861328125,0.03957366943359375,0.027269601821899414,0.014745593070983887
1761132148905308000,5.379307861328125,0.04436206817626953,0.0033700205385684967,-0.006745085120201111
1761132148915308800,5.389308837890625,0.02520751953125,0.008142594248056412,-0.004271551966667175
1761132148925308700,5.39930859375,0.029994964599609375,0.027416232973337173,-0.013795144855976105
1761132148935308800,5.409308837890625,0.02999401092529297,0.00814848393201828,-0.006548196077346802
1761132148945308700,5.41930859375,0.049147605895996094,-0.0015257559716701508,0.0006391555070877075
1761132148955308800,5.429308837890625,0.039569854736328125,-0.006333626806735992,-0.01611930876970291
1761132148965308700,5.43930859375,0.015628814697265625,0.00575609877705574,0.0054427385330200195
1761132148975308800,5.449308837890625,0.020418167114257812,-0.013341724872589111,0.007775351405143738
1761132148985308700,5.45930859375,0.03478240966796875,0.001007135957479477,-0.013712592422962189
1761132148995308800,5.469308837890625,0.032387733459472656,0.012900041416287422,0.01262734830379486
1761132149005308700,5.47930859375,0.03477954864501953,0.007980898022651672,0.0007804632186889648
1761132149015307800,5.489307861328125,0.02999114990234375,0.0055895522236824036,0.008021891117095947
1761132149025308000,5.499307861328125,0.032382965087890625,0.00796714797616005,-0.013466142117977142
1761132149035307800,5.509307861328125,0.03717327117919922,-0.01107151061296463,-0.01592453569173813
1761132149045308000,5.519307861328125,0.037174224853515625,0.003329891711473465,0.015139400959014893
1761132149055307800,5.529307861328125,0.02520275115966797,-0.008598946034908295,0.015196457505226135
1761132149065308000,5.539307861328125,0.025203704833984375,0.012887110933661461,0.005563512444496155
1761132149075307800,5.549307861328125,0.037174224853515625,0.005684658885002136,0.0055643171072006226
1761132149085308000,5.559307861328125,0.037174224853515625,-0.01353076845407486,-0.013645313680171967
1761132149095307800,5.569307861328125,0.044358253479003906,-0.013612896203994751,-0.001749083399772644
1761132149105308000,5.579307861328125,0.034781455993652344,-0.013613156974315643,0.003039240837097168
1761132149115308500,5.58930859375,0.025205612182617188,0.02233659103512764,-0.004184603691101074
1761132149125308700,5.59930859375,0.029994964599609375,0.01993849314749241,-0.009051471948623657
1761132149135308500,5.60930859375,0.03717613220214844,-0.006357375532388687,-0.016216211020946503
1761132149145308700,5.61930859375,0.0228118896484375,-0.008811131119728088,-0.004262030124664307
1761132149155308500,5.62930859375,0.027599334716796875,0.00793154165148735,0.012557119131088257
1761132149165308700,5.63930859375,0.03478240966796875,0.0007296055555343628,0.002981320023536682
1761132149175308500,5.64930859375,0.020416259765625,0.0006705671548843384,-0.006592854857444763
1761132149185308700,5.65930859375,0.02999401092529297,0.0006479956209659576,-0.00425662100315094
1761132149195308500,5.66930859375,0.029994964599609375,0.0029786154627799988,0.00999400019645691
1761132149205308700,5.67930859375,0.03238964080810547,-0.01386215165257454,-0.004426434636116028
1761132149215307800,5.689307861328125,0.032390594482421875,0.0029526613652706146,0.005088642239570618
1761132149225308000,5.699307861328125,0.04675579071044922,0.019709864631295204,-0.004546761512756348
1761132149235307800,5.709307861328125,0.032390594482421875,-0.0018576793372631073,-0.0045458972454071045
1761132149245308000,5.719307861328125,0.022813796997070312,-0.006665538996458054,0.005031868815422058
1761132149255307800,5.729307861328125,0.04196739196777344,-0.009059615433216095,0.00742611289024353
1761132149265308000,5.739307861328125,0.020420074462890625,0.0195919219404459,0.01940058171749115
1761132149275307800,5.749307861328125,0.025208473205566406,-0.004409264773130417,0.01459549367427826
1761132149285308000,5.759307861328125,0.027602195739746094,-0.0069400854408741,0.0026310384273529053
1761132149295307800,5.769307861328125,0.010842323303222656,-0.002170190215110779,0.0026322007179260254
1761132149305308000,5.779307861328125,0.032390594482421875,0.0026159994304180145,0.0025736093521118164
1761132149315308800,5.789308837890625,0.025208473205566406,0.004948832094669342,0.002517610788345337
1761132149325308700,5.79930859375,0.029996871948242188,-0.023860085755586624,-0.011844024062156677
1761132149335308800,5.809308837890625,0.029996871948242188,-0.024057552218437195,-0.011854752898216248
1761132149345308700,5.81930859375,0.039572715759277344,-0.019464939832687378,-0.014239825308322906
1761132149355308800,5.829308837890625,0.02999591827392578,-0.0027683712542057037,-0.002325192093849182
1761132149365308700,5.83930859375,0.025208473205566406,0.01630258932709694,0.004782438278198242
1761132149375308800,5.849308837890625,0.010845184326171875,0.013845063745975494,-0.024062469601631165
1761132149385308700,5.85930859375,0.05872917175292969,0.004204288125038147,0.011735811829566956
1761132149395308800,5.869308837890625,0.06591224670410156,0.018427418544888496,-0.00034618377685546875
1761132149405308700,5.87930859375,0.05633735656738281,-0.010310016572475433,-0.014848776161670685
1761132149415307800,5.889307861328125,0.02042675018310547,-0.005346845835447311,-0.010107636451721191
1761132149425308000,5.899307861328125,0.008458137512207031,0.001945260912179947,-0.017471976578235626
1761132149435307800,5.909307861328125,0.015642166137695312,0.0021585673093795776,-0.0031753629446029663
1761132149445308000,5.919307861328125,0.025221824645996094,0.009451974183321,0.015816256403923035
1761132149455307800,5.929307861328125,0.044379234313964844,-0.009533625096082687,0.05393892526626587
1761132149465308000,5.939307861328125,0.03719902038574219,0.0048239342868328094,0.04658019542694092
1761132149475307800,5.949307861328125,0.03719806671142578,-0.026320941746234894,0.027427256107330322
1761132149485308000,5.959307861328125,0.041988372802734375,0.012058941647410393,0.02970018982887268
1761132149495307800,5.969307861328125,0.0395965576171875,0.007385626435279846,0.015270829200744629
1761132149505308000,5.979307861328125,0.010868072509765625,0.014718335121870041,-0.0088157057762146
1761132149515308500,5.98930859375,0.018052101135253906,0.0029023736715316772,-0.030409924685955048
1761132149525308700,5.99930859375,0.0419921875,-0.006808582693338394,-0.037527307868003845
1761132149535308500,6.00930859375,0.03720378875732422,-0.0020200535655021667,-0.03513304144144058
1761132149545308700,6.01930859375,0.015657424926757812,-0.023530881851911545,-0.016039840877056122
1761132149555308500,6.02930859375,0.0180511474609375,-0.0020415782928466797,-0.016037024557590485
1761132149565308700,6.03930859375,0.0132598876953125,-0.0068979039788246155,0.020075902342796326
1761132149575308500,6.04930859375,0.037201881408691406,-0.009233597666025162,0.02486148476600647
1761132149585308700,6.05930859375,0.02762603759765625,0.0075033679604530334,0.015226766467094421
1761132149595308800,6.069308837890625,0.03241443634033203,-0.009317807853221893,0.027141615748405457
1761132149605308700,6.07930859375,0.030019760131835938,-0.00699910894036293,0.008050456643104553
1761132149615307800,6.089307861328125,0.022833824157714844,0.026449259370565414,-0.010923266410827637
1761132149625308000,6.099307861328125,0.02283191680908203,0.026435375213623047,-0.010804712772369385
1761132149635307800,6.109307861328125,0.030014991760253906,0.026355918496847153,-0.02756074070930481
1761132149645308000,6.119307861328125,0.02043628692626953,0.009582940489053726,-0.044201627373695374
1761132149655307800,6.129307861328125,0.04198646545410156,0.00009799003601074219,-0.04194903373718262
1761132149665308000,6.139307861328125,0.03240776062011719,-0.00478590652346611,-0.01554957777261734
1761132149675307800,6.149307861328125,0.010860443115234375,0.00955992192029953,-0.010740786790847778
1761132149685307600,6.1593076171875,0.027619361877441406,-0.004903513938188553,0.010811477899551392
1761132149695307800,6.169307861328125,0.044379234313964844,0.002140391618013382,0.029932379722595215
1761132149705307600,6.1793076171875,0.03959083557128906,-0.01929013431072235,0.03710941970348358
1761132149715308500,6.18930859375,0.041985511779785156,-0.016781367361545563,0.017891496419906616
1761132149725308700,6.19930859375,0.025226593017578125,-0.00015936419367790222,0.010715141892433167
1761132149735308800,6.209308837890625,0.03719806671142578,-0.014587748795747757,-0.013341307640075684
1761132149745308700,6.21930859375,0.0348052978515625,0.01178739033639431,-0.022920027375221252
1761132149755308800,6.229308837890625,0.022833824157714844,-0.0049918778240680695,-0.0061598122119903564
1761132149765308700,6.23930859375,0.020440101623535156,0.009374037384986877,-0.0061597079038619995
1761132149775308800,6.249308837890625,0.04198741912841797,-0.004951074719429016,-0.013343796133995056
1761132149785308700,6.25930859375,0.05156421661376953,0.002230878919363022,-0.001373007893562317
1761132149795308800,6.269308837890625,0.02043914794921875,0.009334985166788101,0.0010247677564620972
1761132149805308700,6.27930859375,0.03001689910888672,-0.00994284451007843,0.01525832712650299
1761132149815307800,6.289307861328125,0.022833824157714844,-0.0003862939774990082,0.0056821852922439575
1761132149825308000,6.299307861328125,0.05156421661376953,0.006778795272111893,0.029683664441108704
1761132149835307800,6.309307861328125,0.015651702880859375,-0.01237495243549347,-0.0014410018920898438
1761132149845308000,6.319307861328125,0.03719902038574219,-0.007607944309711456,-0.01346956193447113
1761132149855307800,6.329307861328125,0.022833824157714844,0.0067573972046375275,0.00568409264087677
1761132149865308000,6.339307861328125,0.05156421661376953,0.002071283757686615,0.008152216672897339
1761132149875307800,6.349307861328125,0.03719806671142578,-0.019534777849912643,-0.0301520898938179
1761132149885308000,6.359307861328125,0.032408714294433594,0.009178906679153442,0.003426477313041687
1761132149895307800,6.369307861328125,0.0563507080078125,0.02113097906112671,-0.010937586426734924
1761132149905308000,6.379307861328125,0.051563262939453125,-0.009996630251407623,-0.0038138777017593384
1761132149915308800,6.389308837890625,0.01565074920654297,0.004407506436109543,-0.010998383164405823
1761132149925308700,6.39930859375,0.0348052978515625,0.006916258484125137,0.01048511266708374
1761132149935308800,6.409308837890625,0.02283477783203125,0.009307999163866043,0.01760903000831604
1761132149945308700,6.41930859375,0.018045425415039062,-0.009862743318080902,0.005697622895240784
1761132149955308800,6.429308837890625,0.018044471740722656,-0.009938247501850128,0.005760073661804199
1761132149965308700,6.43930859375,0.02762317657470703,0.011662362143397331,0.012822225689888
1761132149975308800,6.449308837890625,0.051566123962402344,0.011639734730124474,-0.015966035425662994
1761132149985308700,6.45930859375,0.0395965576171875,-0.0026109106838703156,-0.004059344530105591
1761132149995308800,6.469308837890625,0.020442962646484375,-0.007360395044088364,-0.016032256186008453
1761132150005308700,6.47930859375,0.027625083923339844,-0.004965934902429581,-0.013637959957122803
1761132150015307800,6.489307861328125,0.03481006622314453,0.009377092123031616,-0.013695776462554932
1761132150025308000,6.499307861328125,0.030020713806152344,-0.019411973655223846,0.0006722062826156616
1761132150035307800,6.509307861328125,0.03481006622314453,-0.00506877526640892,0.017373710870742798
1761132150045308000,6.519307861328125,0.03481292724609375,-0.002624277025461197,0.0028294771909713745
1761132150055307800,6.529307861328125,0.03720569610595703,-0.00028911978006362915,-0.006744697690010071
1761132150065308000,6.539307861328125,0.03481292724609375,0.0020838677883148193,0.014745503664016724
1761132150075307800,6.549307861328125,0.020448684692382812,-0.007496044039726257,-0.009274706244468689
1761132150085308000,6.559307861328125,0.039600372314453125,-0.007569219917058945,-0.004365205764770508
1761132150095307800,6.569307861328125,0.030022621154785156,0.009232744574546814,-0.013865545392036438
1761132150105308000,6.579307861328125,0.015656471252441406,-0.00029956549406051636,-0.011355668306350708
1761132150115308500,6.58930859375,0.022838592529296875,-0.007422465831041336,-0.025723278522491455
1761132150125308700,6.59930859375,0.034811973571777344,-0.0002063959836959839,-0.02344854176044464
1761132150135308500,6.60930859375,0.037204742431640625,-0.007328540086746216,0.010106697678565979
1761132150145308700,6.61930859375,0.04678153991699219,-0.004814326763153076,-0.018570490181446075
1761132150155308500,6.62930859375,0.025234222412109375,-0.004833389073610306,-0.006598383188247681
1761132150165308700,6.63930859375,0.02044677734375,-0.007250174880027771,-0.009050548076629639
1761132150175308500,6.64930859375,0.032418251037597656,-0.004799269139766693,-0.004323408007621765
1761132150185308700,6.65930859375,0.04917716979980469,-0.00481560081243515,-0.0018693208694458008
1761132150195308500,6.66930859375,0.03481292724609375,0.009548377245664597,-0.01389874517917633
1761132150205308700,6.67930859375,0.03241729736328125,0.009472861886024475,-0.006653681397438049
1761132150215307800,6.689307861328125,0.027629852294921875,0.011864470317959785,0.00047019124031066895
1761132150225308000,6.699307861328125,0.039600372314453125,0.009391643106937408,-0.009103074669837952
1761132150235307800,6.709307861328125,0.032416343688964844,-0.00018099695444107056,-0.011437982320785522
1761132150245308000,6.719307861328125,0.030022621154785156,0.009317576885223389,0.005325108766555786
1761132150255307800,6.729307861328125,0.022840499877929688,0.016556892544031143,-0.016283981502056122
1761132150265308000,6.739307861328125,0.02283954620361328,0.023663586005568504,-0.02340427041053772
1761132150275307800,6.749307861328125,0.041991233825683594,0.006810422986745834,-0.016138695180416107
1761132150285308000,6.759307861328125,0.027625083923339844,0.018727457150816917,0.005509898066520691
1761132150295307800,6.769307861328125,0.03241252899169922,-0.017222806811332703,0.0031567364931106567
1761132150305308000,6.779307861328125,0.03480720520019531,0.018728749826550484,0.0007604807615280151
1761132150315308500,6.78930859375,0.03241252899169922,0.009210847318172455,0.007940411567687988
1761132150325308700,6.79930859375,0.037200927734375,0.009191121906042099,0.01991228759288788
1761132150335308800,6.809308837890625,0.037201881408691406,-0.009904023259878159,-0.0016382187604904175
1761132150345308700,6.81930859375,0.02283477783203125,-0.014767501503229141,-0.001575753092765808
1761132150355308800,6.829308837890625,0.0348052978515625,-0.024360518902540207,0.012849375605583191
1761132150365308700,6.83930859375,0.03480720520019531,-0.0026985369622707367,0.010390698909759521
1761132150375308800,6.849308837890625,0.01565265655517578,0.02595365419983864,-0.018336035311222076
1761132150385308700,6.85930859375,0.018045425415039062,0.0163797028362751,0.012847423553466797
1761132150395308800,6.869308837890625,0.027622222900390625,0.011692630127072334,-0.013434335589408875
1761132150405308700,6.87930859375,0.03480339050292969,-0.007415313273668289,0.008248865604400635
1761132150415307800,6.889307861328125,0.022830963134765625,0.004540890455245972,0.003578692674636841
1761132150425308000,6.899307861328125,0.0300140380859375,0.016452476382255554,-0.020360834896564484
1761132150435307800,6.909307861328125,0.027619361877441406,-0.009843908250331879,0.001185402274131775
1761132150445308000,6.919307861328125,0.04677295684814453,-0.014634903520345688,0.003520861268043518
1761132150455307800,6.929307861328125,0.022832870483398438,0.006828323006629944,-0.006189420819282532
1761132150465307600,6.9393076171875,0.02283191680908203,0.006711423397064209,-0.006183728575706482
1761132150475307800,6.949307861328125,0.027619361877441406,0.030636707320809364,-0.006124019622802734
1761132150485308000,6.959307861328125,0.03719520568847656,-0.010137904435396194,-0.025156542658805847
1761132150495307800,6.969307861328125,0.020438194274902344,0.004339676350355148,-0.010914236307144165
1761132150505308000,6.979307861328125,0.04438018798828125,-0.026745636016130447,-0.0013391822576522827
1761132150515308500,6.98930859375,0.032408714294433594,0.00916282832622528,0.003402233123779297
1761132150525308700,6.99930859375,0.041985511779785156,-0.002827640622854233,0.003403201699256897
1761132150535308500,7.00930859375,0.027620315551757812,0.018720826134085655,-0.008567571640014648
1761132150545308700,7.01930859375,0.01804351806640625,-0.01008782908320427,0.01058971881866455
1761132150555308500,7.02930859375,0.030014991760253906,0.011521624401211739,-0.010902002453804016
1761132150565308700,7.03930859375,0.03240776062011719,-0.00764818862080574,0.0059173256158828735
1761132150575308800,7.049308837890625,0.022829055786132812,-0.0004830993711948395,-0.0012058168649673462
1761132150585308700,7.05930859375,0.020435333251953125,0.006699632853269577,-0.010782584547996521
1761132150595308800,7.069308837890625,0.02283000946044922,-0.007688160985708237,-0.010840550065040588
1761132150605308700,7.07930859375,0.03480243682861328,0.0019472874701023102,-0.003660723567008972
1761132150615307800,7.089307861328125,0.032408714294433594,-0.005257118493318558,0.010646820068359375
1761132150625308000,7.099307861328125,0.03480339050292969,-0.005259715020656586,-0.01574813574552536
1761132150635307800,7.109307861328125,0.020440101623535156,0.01871628127992153,-0.008684813976287842
1761132150645308000,7.119307861328125,0.030017852783203125,-0.0027753598988056183,-0.02071727067232132
1761132150655307800,7.129307861328125,0.027624130249023438,-0.0003837570548057556,-0.013593405485153198
1761132150665308000,7.139307861328125,0.041988372802734375,0.02114693820476532,-0.011139601469039917
1761132150675307800,7.149307861328125,0.025229454040527344,-0.00036274269223213196,-0.018343664705753326
1761132150685307600,7.1593076171875,0.03719902038574219,-0.005245719105005264,-0.006289839744567871
1761132150695307800,7.169307861328125,0.02523040771484375,-0.017104391008615494,-0.025547102093696594
1761132150705307600,7.1793076171875,0.02762317657470703,-0.0003033280372619629,-0.008730828762054443
1761132150715308500,7.18930859375,0.034806251525878906,0.00448482483625412,0.015191838145256042
1761132150725308700,7.19930859375,0.032413482666015625,-0.0028403736650943756,-0.004092231392860413
1761132150735308800,7.209308837890625,0.02044391632080078,-0.012420572340488434,0.03415599465370178
1761132150745308700,7.21930859375,0.04438591003417969,0.004319906234741211,-0.004150092601776123
1761132150755308500,7.22930859375,0.025231361389160156,-0.00525403767824173,0.0030913501977920532
1761132150765308700,7.23930859375,0.039597511291503906,-0.0028820261359214783,-0.011331692337989807
1761132150775308800,7.249308837890625,0.03002166748046875,-0.0003731437027454376,0.0005750507116317749
1761132150785308700,7.25930859375,0.0419921875,0.004337422549724579,-0.006603747606277466
1761132150795308800,7.269308837890625,0.03241539001464844,0.009123671799898148,0.0005201399326324463
1761132150805308700,7.27930859375,0.025232315063476562,-0.002981092780828476,0.0029797255992889404
1761132150815307800,7.289307861328125,0.03241539001464844,0.0041981227695941925,-0.02580970525741577
1761132150825308000,7.299307861328125,0.03241539001464844,0.020938463509082794,-0.006655007600784302
1761132150835307800,7.309307861328125,0.013261795043945312,0.0019022747874259949,-0.011448904871940613
1761132150845308000,7.319307861328125,0.034809112548828125,-0.007749639451503754,-0.013780519366264343
1761132150855307800,7.329307861328125,0.030020713806152344,0.004259895533323288,-0.00899416208267212
1761132150865308000,7.339307861328125,0.03720283508300781,0.013836834579706192,-0.008994117379188538
1761132150875307800,7.349307861328125,0.04677772521972656,0.013822130858898163,0.010277912020683289
1761132150885308000,7.359307861328125,0.03001880645751953,-0.00774509459733963,0.031826555728912354
1761132150915308500,7.38930859375,0.04917430877685547,-0.00046714022755622864,0.0030328482389450073
1761132150925308700,7.39930859375,0.03241539001464844,0.013875488191843033,-0.0018135160207748413
1761132150935308500,7.40930859375,0.04199028015136719,-0.009945206344127655,-0.0017405599355697632
1761132150945308700,7.41930859375,0.027624130249023438,-0.005292251706123352,-0.013666048645973206
1761132150955308500,7.42930859375,0.02044391632080078,-0.0029229745268821716,0.0005825608968734741
1761132150965308700,7.43930859375,0.044386863708496094,-0.017231617122888565,-0.01384398341178894
1761132150975308500,7.44930859375,0.025234222412109375,0.004372116178274155,-0.009117111563682556
1761132150985308700,7.45930859375,0.032416343688964844,-0.0003756769001483917,-0.006704971194267273
1761132150995308500,7.46930859375,0.022841453552246094,-0.012290511280298233,0.0028103888034820557
1761132151005308700,7.47930859375,0.037204742431640625,-0.0003333650529384613,0.007717341184616089
1761132151015307800,7.489307861328125,0.025234222412109375,-0.012385334819555283,-0.023462370038032532
1761132151025308000,7.499307861328125,0.032416343688964844,-0.000534597784280777,0.002801269292831421
1761132151035307800,7.509307861328125,0.027629852294921875,-0.02190764620900154,0.0027539730072021484
1761132151045307600,7.5193076171875,0.022841453552246094,0.018891477957367897,-0.004433274269104004
1761132151055307800,7.529307861328125,0.03720664978027344,-0.0002624019980430603,-0.006827563047409058
1761132151065307600,7.5393076171875,0.022841453552246094,-0.005067531019449234,-0.009162023663520813
1761132151075307800,7.549307861328125,0.03002452850341797,0.0020334459841251373,0.017118871212005615
1761132151085307600,7.5593076171875,0.03002452850341797,-0.01472543552517891,0.0003596395254135132
1761132151095307800,7.569307861328125,0.022841453552246094,-0.01235148310661316,0.009937107563018799
1761132151105307600,7.5793076171875,0.04199504852294922,-0.00032157450914382935,0.0027518421411514282
1761132151115308500,7.58930859375,0.03481292724609375,0.016418911516666412,0.009935572743415833
1761132151125308700,7.59930859375,0.022841453552246094,0.006780732423067093,-0.004485622048377991
1761132151135308500,7.60930859375,0.030022621154785156,-0.007536973804235458,-0.021070487797260284
1761132151145308700,7.61930859375,0.027626991271972656,-0.00282394140958786,-0.013825371861457825
1761132151155308500,7.62930859375,0.032416343688964844,0.016426965594291687,0.0005350708961486816
1761132151165308700,7.63930859375,0.032416343688964844,-0.0003314800560474396,-0.0042531490325927734
1761132151175308500,7.64930859375,0.037204742431640625,-0.019449207931756973,-0.0019195973873138428
1761132151185308700,7.65930859375,0.03241729736328125,-0.005024652928113937,-0.011499077081680298
1761132151195308500,7.66930859375,0.034811973571777344,-0.009714055806398392,-0.004301398992538452
1761132151205308700,7.67930859375,0.025236129760742188,-0.009595446288585663,-0.006700679659843445
1761132151225308000,7.699307861328125,0.030022621154785156,0.01666935160756111,0.010180309414863586
1761132151235307800,7.709307861328125,0.030022621154785156,0.016708798706531525,0.0101785808801651
1761132151245308000,7.719307861328125,0.03720378875732422,-0.00970565527677536,0.010182276368141174
1761132151255307800,7.729307861328125,0.02523326873779297,-0.002522919327020645,0.002999722957611084
1761132151265308000,7.739307861328125,0.041993141174316406,-0.0002087615430355072,-0.018602870404720306
1761132151275307800,7.749307861328125,0.02044677734375,-0.0001521855592727661,-0.011481568217277527
1761132151285308000,7.759307861328125,0.03241729736328125,-0.0025650151073932648,-0.009086266160011292
1761132151295307800,7.769307861328125,0.032418251037597656,0.009403534233570099,0.0004318505525588989
1761132151305308000,7.779307861328125,0.025236129760742188,-0.000056430697441101074,0.005214706063270569
1761132151315308500,7.78930859375,0.013264656066894531,-0.01916716992855072,0.00048345327377319336
1761132151325308700,7.79930859375,0.02763080596923828,-0.00015628337860107422,0.00037223100662231445
1761132151335308800,7.809308837890625,0.013264656066894531,0.021336011588573456,0.0004339069128036499
1761132151345308700,7.81930859375,0.041996002197265625,-0.00981079787015915,0.007558688521385193
1761132151355308800,7.829308837890625,0.03960227966308594,0.014009904116392136,-0.006879478693008423
1761132151365308700,7.83930859375,0.03960132598876953,0.013934791088104248,-0.006816893815994263
1761132151375308800,7.849308837890625,0.03720569610595703,0.001947052776813507,0.0100022554397583
1761132151385308700,7.85930859375,0.03481101989746094,0.01629447564482689,-0.009092003107070923
1761132151395308800,7.869308837890625,0.03481006622314453,0.016238559037446976,-0.009030446410179138
1761132151405308700,7.87930859375,0.02523326873779297,-0.012569308280944824,0.00773291289806366
1761132151415307800,7.889307861328125,0.049175262451171875,0.008978374302387238,0.0005502700805664062
1761132151425308000,7.899307861328125,0.037204742431640625,0.004164267331361771,0.010010212659835815
1761132151435307800,7.909307861328125,0.020445823669433594,-0.005353633314371109,-0.004357695579528809
1761132151445308000,7.919307861328125,0.02044677734375,-0.0005290359258651733,-0.011600971221923828
1761132151455307800,7.929307861328125,0.03481101989746094,0.01862717606127262,-0.011542245745658875
1761132151465308000,7.939307861328125,0.04917716979980469,-0.0005494169890880585,-0.00202353298664093
1761132151475307800,7.949307861328125,0.0060825347900390625,-0.005340412259101868,0.00988873839378357
1761132151485308000,7.959307861328125,0.04199504852294922,0.0020017847418785095,-0.01879013329744339
1761132151495307800,7.969307861328125,0.03960227966308594,0.009241096675395966,-0.0068803876638412476
1761132151505308000,7.979307861328125,0.039603233337402344,0.00921890139579773,-0.00693821907043457
1761132151515308800,7.989308837890625,0.03241920471191406,0.014070246368646622,-0.01643919199705124
1761132151525308700,7.99930859375,0.022841453552246094,0.02117423340678215,-0.01406070590019226
1761132151535308800,8.009308837890625,0.03002452850341797,0.02115710824728012,-0.014001116156578064
1761132151545308700,8.01930859375,0.022838592529296875,0.006760112941265106,-0.009054124355316162
1761132151555308800,8.029308837890625,0.03959846496582031,-0.012428782880306244,0.010179758071899414
1761132151565308700,8.03930859375,0.027626991271972656,-0.010054174810647964,0.010180681943893433
1761132151575308800,8.049308837890624,0.03001880645751953,0.028298337012529373,-0.006443500518798828
1761132151585308700,8.05930859375,0.03480720520019531,-0.00043195486068725586,-0.004049256443977356
1761132151595308800,8.069308837890626,0.03001689910888672,-0.017264101654291153,0.008042857050895691
1761132151605308700,8.07930859375,0.03241157531738281,0.0067174918949604034,0.003252774477005005
1761132151615307800,8.089307861328125,0.027624130249023438,-0.00047082826495170593,0.007923528552055359
1761132151625308000,8.099307861328125,0.02762317657470703,0.011422334238886833,-0.023197278380393982
1761132151635307800,8.109307861328125,0.039595603942871094,0.011420255526900291,-0.006477132439613342
1761132151645308000,8.119307861328124,0.03480720520019531,0.004276972264051437,0.0007037073373794556
1761132151655307800,8.129307861328124,0.030020713806152344,-0.002930678427219391,-0.004201337695121765
1761132151665308000,8.139307861328126,0.025232315063476562,-0.007657051086425781,0.007825896143913269
1761132151675307800,8.149307861328126,0.04677772521972656,0.006691928952932358,0.010299280285835266
1761132151685308000,8.159307861328125,0.04677772521972656,-0.0005689114332199097,0.022273972630500793
1761132151695307800,8.169307861328125,0.02523040771484375,0.004199512302875519,-0.0064556896686553955
1761132151705308000,8.179307861328125,0.022835731506347656,0.004199646413326263,0.0031211674213409424
1761132151715308500,8.18930859375,0.03959465026855469,-0.01497303694486618,0.005516469478607178
1761132151725308700,8.19930859375,0.02762317657470703,0.004105065017938614,0.007973119616508484
1761132151735308500,8.20930859375,0.02522754669189453,0.01121215708553791,-0.006329625844955444
1761132151745308700,8.21930859375,0.032410621643066406,0.0016326233744621277,-0.003994211554527283
1761132151755308500,8.22930859375,0.03719902038574219,-0.0007217489182949066,-0.006370723247528076
1761132151765308700,8.23930859375,0.030017852783203125,-0.0006071813404560089,0.0031417757272720337
1761132151775308500,8.24930859375,0.034806251525878906,-0.005293864756822586,-0.01593797653913498
1761132151785308700,8.25930859375,0.027622222900390625,-0.010040748864412308,0.015243470668792725
1761132151795308500,8.26930859375,0.018045425415039062,0.0043242014944553375,-0.0015160292387008667
1761132151805308700,8.27930859375,0.03959369659423828,0.01388193666934967,-0.006303355097770691
1761132151815307800,8.289307861328124,0.03241157531738281,-0.002840369939804077,-0.0015560239553451538
1761132151825307600,8.2993076171875,0.03959465026855469,-0.007569994777441025,-0.008741378784179688
1761132151835307800,8.309307861328126,0.02762317657470703,0.00438154861330986,-0.023105621337890625
1761132151845308000,8.319307861328125,0.027622222900390625,-0.010059960186481476,0.005686968564987183
1761132151855307800,8.329307861328125,0.032410621643066406,0.0019084550440311432,-0.006342768669128418
1761132151865308000,8.339307861328125,0.032410621643066406,-0.0005052648484706879,-0.008716613054275513
1761132151875307800,8.349307861328125,0.03241157531738281,-0.002862878143787384,0.015164867043495178
1761132151885307600,8.3593076171875,0.037200927734375,0.006711777299642563,-0.004047483205795288
1761132151905307600,8.3793076171875,0.0395965576171875,0.006747923791408539,-0.004108026623725891
1761132151915308500,8.38930859375,0.02283763885498047,-0.019610479474067688,-0.01853104680776596
1761132151925308700,8.39930859375,0.02523326873779297,0.013964641839265823,-0.0018137842416763306
1761132151935308500,8.40930859375,0.041991233825683594,0.009217489510774612,-0.02091067284345627
1761132151945308700,8.41930859375,0.025231361389160156,0.018839845433831215,0.00795505940914154
1761132151955308500,8.42930859375,0.027625083923339844,0.00684858113527298,0.0031673461198806763
1761132151965308700,8.43930859375,0.020441055297851562,0.016408659517765045,-0.013532325625419617
1761132151975308500,8.44930859375,0.022835731506347656,-0.0028059296309947968,-0.004011392593383789
1761132151985308700,8.45930859375,0.03001689910888672,-0.00048736855387687683,0.0032336264848709106
1761132151995308500,8.46930859375,0.02283477783203125,-0.007691763341426849,-0.00640086829662323
1761132152005308700,8.47930859375,0.02523040771484375,0.0018824487924575806,-0.018430612981319427
1761132152015307800,8.489307861328125,0.027622222900390625,-0.014889620244503021,0.01043790578842163
1761132152025307600,8.4993076171875,0.03719902038574219,-0.005332283675670624,0.0008620768785476685
1761132152035307800,8.509307861328125,0.01565265655517578,-0.005215167999267578,-0.006326004862785339
1761132152045307600,8.5193076171875,0.02522754669189453,0.023439744487404823,0.0033132731914520264
1761132152055307800,8.529307861328125,0.03719902038574219,-0.012374237179756165,0.005722418427467346
1761132152065307600,8.5393076171875,0.025228500366210938,0.004326533526182175,-0.008640006184577942
1761132152075307800,8.549307861328124,0.030015945434570312,0.018672147765755653,0.010514497756958008
1761132152085307600,8.5593076171875,0.02762126922607422,0.01865185610949993,-0.023003503680229187
1761132152095307800,8.569307861328125,0.020440101623535156,-0.0005047507584095001,-0.001514539122581482
1761132152105307600,8.5793076171875,0.032410621643066406,0.011506875976920128,-0.00389079749584198
1761132152115308500,8.58930859375,0.03241157531738281,-0.0004284605383872986,-0.003951668739318848
1761132152125308700,8.59930859375,0.030017852783203125,0.0019662678241729736,-0.020710892975330353
1761132152135308500,8.60930859375,0.025228500366210938,0.01152634434401989,-0.0038917511701583862
1761132152145308700,8.61930859375,0.025228500366210938,-0.017223544418811798,-0.00389079749584198
1761132152155308500,8.62930859375,0.0348052978515625,0.009172491729259491,-0.003873884677886963
1761132152165308400,8.639308349609376,0.037197113037109375,-0.010056715458631516,-0.010994210839271545
1761132152175308500,8.64930859375,-0.07772445678710938,0.025836404412984848,0.07998639345169067
1761132152185308400,8.659308349609375,0.03240966796875,-0.002795923501253128,-0.00860355794429779
1761132152195308500,8.66930859375,0.17592239379882812,-0.012864403426647186,-0.05631071329116821
1761132152205308400,8.679308349609375,-0.1905984878540039,0.019349191337823868,-0.09544700384140015
1761132152215307800,8.689307861328125,0.053582191467285156,0.011549381539225578,-0.02606385201215744
