time,seconds_elapsed,z,y,x
1761132143643264300,0.11726416015625,0.000839939690195024,-0.0006108652451075613,0.00015271631127689034
1761132143673265400,0.147265380859375,0.000839939690195024,-0.0006108652451075613,0.00015271631127689034
1761132143683265300,0.157265380859375,0.00022907447419129312,-0.0006108652451075613,0.0013744467869400978
1761132143693265400,0.167265380859375,-0.0009926559869199991,-0.0012217304902151227,0.00015271631127689034
1761132143703265300,0.177265380859375,0.00022907447419129312,-0.0006108652451075613,-0.00045814894838258624
1761132143713265400,0.187265380859375,0.000839939690195024,0,0.0007635815418325365
1761132143723265500,0.197265625,0.00022907447419129312,-0.0012217304902151227,0.0007635815418325365
1761132143733265700,0.207265625,-0.00038179077091626823,0.0006108652451075613,0.0007635815418325365
1761132143743265500,0.217265625,-0.0009926559869199991,0.0006108652451075613,0.00015271631127689034
1761132143753265400,0.227265380859375,-0.0009926559869199991,0,-0.00045814894838258624
1761132143763265500,0.237265625,0.00022907447419129312,-0.0006108652451075613,-0.00045814894838258624
1761132143773266000,0.247265869140625,0.00022907447419129312,0,-0.00045814894838258624
1761132143783266000,0.25726611328125,-0.00038179077091626823,-0.0012217304902151227,-0.00045814894838258624
1761132143793266000,0.267265869140625,0.0014508049935102463,0.0006108652451075613,0.00015271631127689034
1761132143803266000,0.27726611328125,0.000839939690195024,-0.0012217304902151227,-0.0010690141934901476
1761132143813264400,0.287264404296875,0.00022907447419129312,0,0.00015271631127689034
1761132143823264500,0.297264404296875,0.00022907447419129312,0.0006108652451075613,0.0007635815418325365
1761132143833264400,0.307264404296875,0.000839939690195024,-0.0006108652451075613,-0.0010690141934901476
1761132143843264500,0.317264404296875,0.000839939690195024,-0.0006108652451075613,-0.00045814894838258624
1761132143853264400,0.327264404296875,0.00022907447419129312,-0.0006108652451075613,0.0007635815418325365
1761132143863264500,0.337264404296875,-0.00038179077091626823,-0.0006108652451075613,-0.0010690141934901476
1761132143873264400,0.347264404296875,-0.00038179077091626823,0.0006108652451075613,-0.0010690141934901476
1761132143883264500,0.357264404296875,-0.00038179077091626823,0.0006108652451075613,0.00015271631127689034
1761132143893264400,0.367264404296875,-0.0016035212902352214,0,0.00015271631127689034
1761132143903264500,0.377264404296875,-0.00038179077091626823,0,0.00015271631127689034
1761132143913264400,0.387264404296875,0.000839939690195024,0.0012217304902151227,-0.0010690141934901476
1761132143923264500,0.397264404296875,0.000839939690195024,-0.0006108652451075613,-0.0010690141934901476
1761132143933264400,0.407264404296875,0.0014508049935102463,-0.0006108652451075613,-0.00045814894838258624
1761132143943264500,0.417264404296875,0.000839939690195024,0.0012217304902151227,0.0013744467869400978
1761132143953264400,0.427264404296875,-0.00038179077091626823,0.0006108652451075613,0.00015271631127689034
1761132143963264500,0.437264404296875,0.0014508049935102463,-0.0012217304902151227,-0.0022907445672899485
1761132143973264400,0.447264404296875,0.00022907447419129312,-0.0012217304902151227,-0.00045814894838258624
1761132143983264500,0.457264404296875,0.000839939690195024,-0.0006108652451075613,0.0019853119738399982
1761132143993264400,0.467264404296875,0.00022907447419129312,0.0006108652451075613,0.0007635815418325365
1761132144003264500,0.477264404296875,0.000839939690195024,0.0006108652451075613,0.00015271631127689034
1761132144013263600,0.487263671875,-0.00038179077091626823,0.0012217304902151227,-0.00045814894838258624
1761132144023263500,0.497263427734375,-0.0009926559869199991,0,-0.00045814894838258624
1761132144033263600,0.507263671875,0.00022907447419129312,-0.0012217304902151227,-0.0010690141934901476
1761132144043263500,0.517263427734375,-0.00038179077091626823,-0.0012217304902151227,-0.00045814894838258624
1761132144053263600,0.527263671875,0.00022907447419129312,0.0006108652451075613,0.0013744467869400978
1761132144063263500,0.537263427734375,0.000839939690195024,-0.0012217304902151227,-0.0010690141934901476
1761132144073263400,0.547263427734375,0.00022907447419129312,-0.0006108652451075613,0.0007635815418325365
1761132144083263200,0.55726318359375,0.00022907447419129312,0.0012217304902151227,-0.0010690141934901476
1761132144093263400,0.567263427734375,0.00022907447419129312,0,-0.0010690141934901476
1761132144103263200,0.57726318359375,0.000839939690195024,-0.0006108652451075613,-0.0010690141934901476
1761132144113264000,0.58726416015625,-0.0009926559869199991,0.0006108652451075613,0.00015271631127689034
1761132144123264300,0.59726416015625,-0.0009926559869199991,0,0.00015271631127689034
1761132144133264100,0.60726416015625,-0.00038179077091626823,-0.001832595793530345,-0.00045814894838258624
1761132144143264300,0.61726416015625,-0.00038179077091626823,0,0.00015271631127689034
1761132144153264000,0.62726416015625,0.0014508049935102463,0,0.0013744467869400978
1761132144163264300,0.63726416015625,0.000839939690195024,0,0.00015271631127689034
1761132144173264100,0.64726416015625,-0.00038179077091626823,-0.0012217304902151227,0.00015271631127689034
1761132144183264300,0.65726416015625,-0.00038179077091626823,0.0006108652451075613,0.00015271631127689034
1761132144193264000,0.66726416015625,0.000839939690195024,0.001832595793530345,0.00015271631127689034
1761132144203264300,0.67726416015625,0.00022907447419129312,0.0006108652451075613,-0.0010690141934901476
1761132144213263400,0.687263427734375,0.00022907447419129312,-0.0006108652451075613,-0.0010690141934901476
1761132144223263500,0.697263427734375,0.00022907447419129312,-0.0012217304902151227,0.0013744467869400978
1761132144233263400,0.707263427734375,0.00022907447419129312,-0.0006108652451075613,-0.00045814894838258624
1761132144243263500,0.717263427734375,-0.0009926559869199991,0,-0.00045814894838258624
1761132144253263400,0.727263427734375,-0.0009926559869199991,0,0.0013744467869400978
1761132144263263500,0.737263427734375,0.00022907447419129312,0,0.0007635815418325365
1761132144273263400,0.747263427734375,-0.00038179077091626823,0.0006108652451075613,-0.00045814894838258624
1761132144283263500,0.757263427734375,0.0014508049935102463,-0.0012217304902151227,-0.0010690141934901476
1761132144293263400,0.767263427734375,0.00022907447419129312,0.0012217304902151227,0.0013744467869400978
1761132144303263500,0.777263427734375,0.00022907447419129312,0.0012217304902151227,0.00015271631127689034
1761132144313264000,0.78726416015625,0.000839939690195024,0.0006108652451075613,-0.0010690141934901476
1761132144323264300,0.79726416015625,0.00022907447419129312,0,0.00015271631127689034
1761132144333264100,0.80726416015625,-0.00038179077091626823,0,0.00015271631127689034
1761132144343264300,0.81726416015625,-0.0009926559869199991,-0.0006108652451075613,-0.00045814894838258624
1761132144353264000,0.82726416015625,0.00022907447419129312,0,0.0013744467869400978
1761132144363264300,0.83726416015625,0.00022907447419129312,0.0012217304902151227,0.00015271631127689034
1761132144373264400,0.847264404296875,-0.0016035212902352214,0,0.0013744467869400978
1761132144383264300,0.85726416015625,0.00022907447419129312,0,-0.00045814894838258624
1761132144393264400,0.867264404296875,-0.00038179077091626823,0.0006108652451075613,0.00015271631127689034
1761132144403264300,0.87726416015625,0.000839939690195024,0.0012217304902151227,0.0007635815418325365
1761132144413263600,0.887263671875,0.000839939690195024,0,0.0007635815418325365
1761132144423263700,0.897263671875,0.000839939690195024,0.0006108652451075613,0.0013744467869400978
1761132144433263600,0.907263671875,0.00022907447419129312,0.0012217304902151227,0.0013744467869400978
1761132144443263500,0.917263427734375,-0.00038179077091626823,0,-0.00045814894838258624
1761132144453263600,0.927263671875,0.00022907447419129312,-0.0006108652451075613,0.00015271631127689034
1761132144463263500,0.937263427734375,0.000839939690195024,0.0006108652451075613,-0.00045814894838258624
1761132144473263600,0.947263671875,0.000839939690195024,-0.0012217304902151227,-0.0010690141934901476
1761132144483263700,0.957263671875,-0.00038179077091626823,-0.0006108652451075613,0.00015271631127689034
1761132144493263600,0.967263671875,0.000839939690195024,0,0.00015271631127689034
1761132144503263700,0.977263671875,0.000839939690195024,0,0.0013744467869400978
1761132144513264400,0.987264404296875,0.000839939690195024,-0.0006108652451075613,-0.001679879380390048
1761132144523264500,0.997264404296875,0.000839939690195024,0,-0.00045814894838258624
1761132144533264400,1.007264404296875,0.000839939690195024,-0.0006108652451075613,-0.00045814894838258624
1761132144543264500,1.017264404296875,0.00022907447419129312,0,0.00015271631127689034
1761132144553264400,1.027264404296875,-0.0009926559869199991,0,0.00015271631127689034
1761132144563264500,1.037264404296875,0.00022907447419129312,0.0012217304902151227,0.00015271631127689034
1761132144573264400,1.047264404296875,0.00022907447419129312,0,-0.00045814894838258624
1761132144583264500,1.057264404296875,-0.00038179077091626823,0.0006108652451075613,0.0007635815418325365
1761132144593264400,1.067264404296875,-0.00038179077091626823,0,0.00015271631127689034
1761132144603264500,1.077264404296875,0.000839939690195024,0,0.00015271631127689034
1761132144613263600,1.087263671875,0.00022907447419129312,-0.0012217304902151227,-0.00045814894838258624
1761132144623263500,1.097263427734375,-0.00038179077091626823,-0.0006108652451075613,0.00015271631127689034
1761132144633263600,1.107263671875,0.000839939690195024,-0.0006108652451075613,-0.0010690141934901476
1761132144643263500,1.117263427734375,-0.00038179077091626823,0.0006108652451075613,0.00015271631127689034
1761132144653263600,1.127263671875,0.000839939690195024,0.0006108652451075613,-0.00045814894838258624
1761132144663263500,1.137263427734375,0.00022907447419129312,-0.0006108652451075613,-0.00045814894838258624
1761132144673263600,1.147263671875,0.00022907447419129312,0,-0.00045814894838258624
1761132144683263500,1.157263427734375,-0.0016035212902352214,-0.0006108652451075613,0.00015271631127689034
1761132144693263600,1.167263671875,-0.0009926559869199991,-0.0006108652451075613,-0.0010690141934901476
1761132144703263500,1.177263427734375,-0.00038179077091626823,0.0006108652451075613,-0.00045814894838258624
1761132144713264000,1.18726416015625,-0.0009926559869199991,0.0006108652451075613,-0.00045814894838258624
1761132144723264300,1.19726416015625,0.00022907447419129312,0,0.00015271631127689034
1761132144733264100,1.20726416015625,0.00022907447419129312,0,0.0007635815418325365
1761132144743264300,1.21726416015625,0.000839939690195024,-0.0006108652451075613,-0.00045814894838258624
1761132144753263900,1.227263916015625,0.000839939690195024,-0.0012217304902151227,-0.00045814894838258624
1761132144763263700,1.237263671875,0.00022907447419129312,0,0.0007635815418325365
1761132144773264000,1.247263916015625,-0.00038179077091626823,0,-0.00045814894838258624
1761132144783263700,1.257263671875,0.00022907447419129312,0,-0.00045814894838258624
1761132144793263900,1.267263916015625,-0.00038179077091626823,0.0012217304902151227,-0.00045814894838258624
1761132144803263700,1.277263671875,-0.0009926559869199991,0,-0.00045814894838258624
1761132144813262800,1.287262939453125,-0.0009926559869199991,-0.0006108652451075613,-0.0010690141934901476
1761132144823263000,1.297262939453125,0.00022907447419129312,0.0006108652451075613,0.0007635815418325365
1761132144843263000,1.317262939453125,0.00022907447419129312,0.0006108652451075613,-0.0010690141934901476
1761132144853262800,1.327262939453125,0.00022907447419129312,-0.0012217304902151227,-0.001679879380390048
1761132144863263000,1.337262939453125,-0.00038179077091626823,-0.0006108652451075613,0.00015271631127689034
1761132144873262800,1.347262939453125,0.000839939690195024,-0.0006108652451075613,-0.00045814894838258624
1761132144883263000,1.357262939453125,0.000839939690195024,0,-0.00045814894838258624
1761132144893262800,1.367262939453125,0.00022907447419129312,0,-0.00045814894838258624
1761132144903263000,1.377262939453125,0.0014508049935102463,0.0006108652451075613,0.0007635815418325365
1761132144913263900,1.387263916015625,-0.00038179077091626823,0.0006108652451075613,0.0007635815418325365
1761132144923263700,1.397263671875,0.00022907447419129312,0,0.0007635815418325365
1761132144933264000,1.407263916015625,-0.0009926559869199991,0.0006108652451075613,-0.00045814894838258624
1761132144943263700,1.417263671875,0.00022907447419129312,-0.0006108652451075613,-0.0010690141934901476
1761132144953263900,1.427263916015625,0.00022907447419129312,-0.0006108652451075613,-0.0010690141934901476
1761132144963263700,1.437263671875,-0.00038179077091626823,-0.001832595793530345,-0.001679879380390048
1761132144973264000,1.447263916015625,-0.00038179077091626823,-0.0006108652451075613,-0.0010690141934901476
1761132144983263700,1.457263671875,0.00022907447419129312,-0.001832595793530345,-0.001679879380390048
1761132144993263900,1.467263916015625,-0.00038179077091626823,0,0.0007635815418325365
1761132145003263700,1.477263671875,0.00022907447419129312,0,0.0007635815418325365
1761132145013263000,1.48726318359375,-0.00038179077091626823,-0.0012217304902151227,-0.00045814894838258624
1761132145023263000,1.497262939453125,0.00022907447419129312,-0.0006108652451075613,-0.0010690141934901476
1761132145033262800,1.507262939453125,0.000839939690195024,0,-0.00045814894838258624
1761132145043263000,1.517262939453125,0.00022907447419129312,0,0.0007635815418325365
1761132145053263400,1.527263427734375,0.000839939690195024,0,0.00015271631127689034
1761132145063263200,1.53726318359375,-0.0009926559869199991,0.0012217304902151227,0.0007635815418325365
1761132145073263400,1.547263427734375,0.00022907447419129312,-0.0006108652451075613,0.00015271631127689034
1761132145086307800,1.560307861328125,-0.00038179077091626823,0,0.00015271631127689034
1761132145096307700,1.5703076171875,-0.00038179077091626823,0.0006108652451075613,0.0007635815418325365
1761132145106307800,1.580307861328125,-0.0009926559869199991,-0.0006108652451075613,0.0007635815418325365
1761132145116308700,1.590308837890625,0.00022907447419129312,0,0.00015271631127689034
1761132145126308600,1.60030859375,0.00022907447419129312,0.0012217304902151227,0.0007635815418325365
1761132145136308700,1.610308837890625,-0.0016035212902352214,0,-0.00045814894838258624
1761132145146308600,1.62030859375,-0.00038179077091626823,-0.0006108652451075613,0.0019853119738399982
1761132145156308700,1.630308837890625,0.00022907447419129312,0,0.00015271631127689034
1761132145166308600,1.64030859375,0.000839939690195024,0,0.0007635815418325365
1761132145176308700,1.650308837890625,0.000839939690195024,0.0006108652451075613,0.00015271631127689034
1761132145186308600,1.66030859375,0.000839939690195024,0.0006108652451075613,-0.00045814894838258624
1761132145196308700,1.670308837890625,-0.0009926559869199991,-0.0006108652451075613,-0.00045814894838258624
1761132145206308600,1.68030859375,-0.00038179077091626823,0,-0.0010690141934901476
1761132145216308000,1.690307861328125,0.00022907447419129312,0,0.0007635815418325365
1761132145226307800,1.700307861328125,-0.0009926559869199991,0.009162978269159794,0.003817907767370343
1761132145236308000,1.710307861328125,0.00022907447419129312,0,0.02580905705690384
1761132145246307800,1.720307861328125,-0.0016035212902352214,-0.01160643994808197,-0.02672535367310047
1761132145256308000,1.730307861328125,0.00022907447419129312,-0.006719517521560192,-0.007788531947880983
1761132145266307800,1.740307861328125,0.0014508049935102463,0.00427605677396059,0.003817907767370343
1761132145276308000,1.750307861328125,0.00022907447419129312,0.003054326167330146,-0.0022907445672899485
1761132145286307800,1.760307861328125,-0.0016035212902352214,0.0012217304902151227,-0.003512475173920393
1761132145296308000,1.770307861328125,0.00022907447419129312,-0.001832595793530345,0.0074830991216003895
1761132145306307800,1.780307861328125,-0.0016035212902352214,-0.006108652334660292,0.00015271631127689034
1761132145316308700,1.790308837890625,-0.0009926559869199991,0.005497787147760391,0.0013744467869400978
1761132145326308900,1.800308837890625,0.000839939690195024,0.0006108652451075613,0.00015271631127689034
1761132145336308700,1.810308837890625,-0.00038179077091626823,-0.0024434609804302454,-0.001679879380390048
1761132145346308900,1.820308837890625,0.000839939690195024,-0.003054326167330146,0.0025961773935705423
1761132145356308700,1.830308837890625,0.000839939690195024,0.0024434609804302454,0.0007635815418325365
1761132145366308900,1.840308837890625,0.000839939690195024,0.001832595793530345,-0.00045814894838258624
1761132145376308700,1.850308837890625,-0.00038179077091626823,-0.0012217304902151227,-0.00045814894838258624
1761132145386308900,1.860308837890625,-0.0016035212902352214,-0.003054326167330146,-0.00045814894838258624
1761132145396308700,1.870308837890625,-0.0009926559869199991,0.0006108652451075613,0.00015271631127689034
1761132145406308900,1.880308837890625,0.000839939690195024,0.003054326167330146,0.0007635815418325365
1761132145416308000,1.890307861328125,0.000839939690195024,-0.0006108652451075613,-0.0029016099870204926
1761132145426307800,1.900307861328125,-0.00038179077091626823,-0.0024434609804302454,-0.0010690141934901476
1761132145436308000,1.910307861328125,-0.00038179077091626823,-0.0012217304902151227,-0.00045814894838258624
1761132145446307800,1.920307861328125,0.000839939690195024,0.0024434609804302454,0.00015271631127689034
1761132145456308000,1.930307861328125,-0.0009926559869199991,0.0006108652451075613,0.0013744467869400978
1761132145466307800,1.940307861328125,-0.0009926559869199991,0.001832595793530345,0.0032070425804704428
1761132145476308000,1.950307861328125,0.00022907447419129312,0.010995574295520782,0.005650503560900688
1761132145486307800,1.960307861328125,0.00022907447419129312,-0.00366519158706069,0.023976460099220276
1761132145496308000,1.970307861328125,-0.0016035212902352214,-0.014049900695681572,-0.031001411378383636
1761132145506307800,1.980307861328125,0.000839939690195024,-0.001832595793530345,-0.004734205547720194
1761132145516308700,1.990308837890625,0.000839939690195024,0.003054326167330146,0.0007635815418325365
1761132145526308600,2.00030859375,0.000839939690195024,0.00427605677396059,-0.0029016099870204926
1761132145536308700,2.010308837890625,0.00022907447419129312,-0.001832595793530345,-0.0029016099870204926
1761132145546308600,2.02030859375,-0.0009926559869199991,-0.003054326167330146,0.006872233934700489
1761132145556308700,2.030308837890625,-0.00038179077091626823,-0.004886921960860491,0.00015271631127689034
1761132145566308600,2.04030859375,-0.0009926559869199991,0.007941247895359993,0.0013744467869400978
1761132145576308700,2.050308837890625,0.0014508049935102463,0.0012217304902151227,-0.00045814894838258624
1761132145586308600,2.06030859375,0.00022907447419129312,-0.0024434609804302454,-0.00045814894838258624
1761132145596308700,2.070308837890625,-0.00038179077091626823,-0.00366519158706069,0.0013744467869400978
1761132145606308600,2.08030859375,-0.0016035212902352214,0.0024434609804302454,0.00015271631127689034
1761132145616307700,2.0903076171875,0.00022907447419129312,0.0006108652451075613,-0.0022907445672899485
1761132145626307800,2.100307861328125,0.00022907447419129312,-0.0024434609804302454,-0.00045814894838258624
1761132145636307700,2.1103076171875,-0.00038179077091626823,-0.003054326167330146,0.0013744467869400978
1761132145646307800,2.120307861328125,0.00022907447419129312,0.0006108652451075613,-0.00045814894838258624
1761132145656307700,2.1303076171875,0.0014508049935102463,0.001832595793530345,-0.001679879380390048
1761132145666307800,2.140307861328125,0.000839939690195024,-0.0006108652451075613,-0.001679879380390048
1761132145676307700,2.1503076171875,-0.00038179077091626823,0,0.0013744467869400978
1761132145686307600,2.1603076171875,0.000839939690195024,0.0024434609804302454,0.0013744467869400978
1761132145696307700,2.1703076171875,-0.00038179077091626823,0.003054326167330146,0.00015271631127689034
1761132145706307600,2.1803076171875,-0.0009926559869199991,0.0006108652451075613,0.0032070425804704428
1761132145716308500,2.19030859375,-0.00038179077091626823,0.003054326167330146,0.005039638374000788
1761132145726308600,2.20030859375,-0.00038179077091626823,0.010995574295520782,0.010537425056099892
1761132145736308700,2.210308837890625,-0.0016035212902352214,-0.005497787147760391,0.004428773187100887
1761132145746308600,2.22030859375,-0.00038179077091626823,-0.015882495790719986,-0.02977968007326126
1761132145756308700,2.230308837890625,0.0014508049935102463,-0.0006108652451075613,0.0019853119738399982
1761132145766308600,2.24030859375,0.000839939690195024,0.00427605677396059,0.0025961773935705423
1761132145776308700,2.250308837890625,0.000839939690195024,0.00366519158706069,-0.0029016099870204926
1761132145786308600,2.26030859375,0.00022907447419129312,-0.001832595793530345,0.0025961773935705423
1761132145796308700,2.270308837890625,0.00022907447419129312,-0.00366519158706069,0.005039638374000788
1761132145806308600,2.28030859375,-0.0016035212902352214,-0.0012217304902151227,0.0013744467869400978
1761132145816307700,2.2903076171875,-0.00038179077091626823,0.005497787147760391,-0.001679879380390048
1761132145826307800,2.300307861328125,0.000839939690195024,0,-0.0022907445672899485
1761132145836307700,2.3103076171875,-0.0009926559869199991,-0.003054326167330146,0.00015271631127689034
1761132145846307800,2.320307861328125,-0.0009926559869199991,-0.001832595793530345,0.0013744467869400978
1761132145856307700,2.3303076171875,0.000839939690195024,0.003054326167330146,-0.00045814894838258624
1761132145866307800,2.340307861328125,0.00022907447419129312,0,-0.0022907445672899485
1761132145876308000,2.350307861328125,-0.00038179077091626823,-0.0012217304902151227,0.00015271631127689034
1761132145886307800,2.360307861328125,-0.00038179077091626823,-0.0006108652451075613,0.0007635815418325365
1761132145896308000,2.370307861328125,-0.00038179077091626823,0.003054326167330146,0.0007635815418325365
1761132145906307800,2.380307861328125,-0.00038179077091626823,0.014049900695681572,0.0074830991216003895
1761132145916308700,2.390308837890625,-0.0016035212902352214,-0.013439035043120384,0.02275473065674305
1761132145926308900,2.400308837890625,-0.0016035212902352214,-0.01466076634824276,-0.04260785132646561
1761132145936308700,2.410308837890625,0.0020616701804101467,0.00366519158706069,0.0032070425804704428
1761132145946308900,2.420308837890625,0.0020616701804101467,0.004886921960860491,0.0019853119738399982
1761132145956308700,2.430308837890625,0.00022907447419129312,0.0024434609804302454,0.0007635815418325365
1761132145966308900,2.440308837890625,0.00022907447419129312,-0.0012217304902151227,0.0025961773935705423
1761132145976308700,2.450308837890625,-0.00038179077091626823,-0.0006108652451075613,0.00809396430850029
1761132145986308900,2.460308837890625,0.0014508049935102463,-0.00427605677396059,0.00015271631127689034
1761132145996308700,2.470308837890625,-0.00038179077091626823,0.00733038317412138,0.0007635815418325365
1761132146006308900,2.480308837890625,-0.00038179077091626823,-0.0006108652451075613,-0.0010690141934901476
1761132146016308000,2.490307861328125,-0.00038179077091626823,-0.0024434609804302454,-0.00045814894838258624
1761132146026307800,2.500307861328125,-0.0009926559869199991,-0.003054326167330146,0.0019853119738399982
1761132146036308000,2.510307861328125,0.000839939690195024,0.0024434609804302454,-0.0010690141934901476
1761132146046307800,2.520307861328125,0.00022907447419129312,0.0006108652451075613,-0.001679879380390048
1761132146056307700,2.5303076171875,0.00022907447419129312,-0.001832595793530345,-0.0010690141934901476
1761132146066307800,2.540307861328125,-0.00038179077091626823,-0.0024434609804302454,0.00015271631127689034
1761132146076307700,2.5503076171875,0.000839939690195024,-0.0006108652451075613,-0.0029016099870204926
1761132146086307800,2.560307861328125,0.000839939690195024,0.0006108652451075613,-0.0022907445672899485
1761132146096307700,2.5703076171875,-0.00038179077091626823,-0.0024434609804302454,-0.0010690141934901476
1761132146106307800,2.580307861328125,-0.00038179077091626823,-0.001832595793530345,0.0007635815418325365
1761132146116308700,2.590308837890625,0.0014508049935102463,0.001832595793530345,0.0013744467869400978
1761132146126308600,2.60030859375,0.00022907447419129312,0.0024434609804302454,0.00015271631127689034
1761132146136308700,2.610308837890625,-0.00038179077091626823,0.0006108652451075613,0.0013744467869400978
1761132146146308600,2.62030859375,0.000839939690195024,0.010995574295520782,0.00809396430850029
1761132146156308700,2.630308837890625,0.00022907447419129312,-0.009773843921720982,0.027641652151942253
1761132146166308600,2.64030859375,-0.0009926559869199991,-0.012217304669320583,-0.040164388716220856
1761132146176308700,2.650308837890625,0.0014508049935102463,0.0012217304902151227,0.0013744467869400978
1761132146186308600,2.66030859375,0.0020616701804101467,0.00427605677396059,0.003817907767370343
1761132146196308700,2.670308837890625,-0.00038179077091626823,0.003054326167330146,-0.004123340360820293
1761132146206308600,2.68030859375,0.000839939690195024,0,-0.00045814894838258624
1761132146216307700,2.6903076171875,-0.0009926559869199991,-0.004886921960860491,0.006872233934700489
1761132146226307800,2.700307861328125,-0.00038179077091626823,-0.006719517521560192,-0.001679879380390048
1761132146236308000,2.710307861328125,0.000839939690195024,0.006719517521560192,0.0007635815418325365
1761132146246307800,2.720307861328125,-0.0009926559869199991,0.0012217304902151227,-0.003512475173920393
1761132146256308000,2.730307861328125,0.000839939690195024,-0.0024434609804302454,-0.0010690141934901476
1761132146266307800,2.740307861328125,0.00022907447419129312,-0.003054326167330146,0.0025961773935705423
1761132146276308000,2.750307861328125,-0.0009926559869199991,0.003054326167330146,0.0007635815418325365
1761132146286307800,2.760307861328125,0.00022907447419129312,0.0024434609804302454,-0.0029016099870204926
1761132146296308000,2.770307861328125,0.00022907447419129312,-0.0024434609804302454,-0.0010690141934901476
1761132146306307800,2.780307861328125,-0.0009926559869199991,-0.0024434609804302454,0.0013744467869400978
1761132146316308700,2.790308837890625,0.000839939690195024,0.0006108652451075613,-0.001679879380390048
1761132146326308900,2.800308837890625,0.0014508049935102463,0.003054326167330146,-0.0010690141934901476
1761132146336308700,2.810308837890625,-0.0009926559869199991,-0.0024434609804302454,-0.0010690141934901476
1761132146346308900,2.820308837890625,-0.00038179077091626823,-0.003054326167330146,0.0019853119738399982
1761132146356308700,2.830308837890625,-0.00038179077091626823,0.0024434609804302454,0.0032070425804704428
1761132146366308900,2.840308837890625,0.00022907447419129312,0.003054326167330146,0.00015271631127689034
1761132146376308700,2.850308837890625,-0.0009926559869199991,0.00366519158706069,0.004428773187100887
1761132146386308900,2.860308837890625,0.00022907447419129312,0.005497787147760391,0.018478672951459885
1761132146396308700,2.870308837890625,-0.00038179077091626823,-0.009773843921720982,-0.01572977937757969
1761132146406308900,2.880308837890625,0.000839939690195024,-0.007941247895359993,-0.017562376335263252
1761132146416308000,2.890307861328125,0.0020616701804101467,0.00366519158706069,0.006261368747800589
1761132146426307800,2.900307861328125,-0.00038179077091626823,0.0024434609804302454,0.00015271631127689034
1761132146436308000,2.910307861328125,-0.0016035212902352214,0.0024434609804302454,-0.0022907445672899485
1761132146446307800,2.920307861328125,0.00022907447419129312,-0.0024434609804302454,0.0019853119738399982
1761132146456308000,2.930307861328125,0.00022907447419129312,-0.005497787147760391,-0.00045814894838258624
1761132146466307800,2.940307861328125,-0.00038179077091626823,0.0012217304902151227,0.0007635815418325365
1761132146476308000,2.950307861328125,-0.0009926559869199991,0.003054326167330146,-0.0010690141934901476
1761132146486307800,2.960307861328125,-0.00038179077091626823,-0.001832595793530345,-0.0010690141934901476
1761132146496308000,2.970307861328125,0.00022907447419129312,-0.0024434609804302454,0.0025961773935705423
1761132146506307800,2.980307861328125,-0.00038179077091626823,-0.0006108652451075613,0.0013744467869400978
1761132146516308700,2.990308837890625,0.00022907447419129312,0.0024434609804302454,-0.001679879380390048
1761132146526308600,3.00030859375,0.00022907447419129312,0,-0.0022907445672899485
1761132146536308700,3.010308837890625,0.000839939690195024,-0.001832595793530345,0.0007635815418325365
1761132146546308600,3.02030859375,-0.00038179077091626823,-0.0006108652451075613,0.00015271631127689034
1761132146556308700,3.030308837890625,-0.00038179077091626823,0.001832595793530345,0.00015271631127689034
1761132146566308600,3.04030859375,0.000839939690195024,-0.0006108652451075613,-0.001679879380390048
1761132146576308700,3.050308837890625,-0.00038179077091626823,-0.0012217304902151227,0.0019853119738399982
1761132146586308600,3.06030859375,0.00022907447419129312,0.0006108652451075613,0.0013744467869400978
1761132146596308700,3.070308837890625,0.000839939690195024,0.0024434609804302454,0.0007635815418325365
1761132146606308600,3.08030859375,-0.00038179077091626823,0.005497787147760391,0.004428773187100887
1761132146616308000,3.090307861328125,0.00022907447419129312,0.00427605677396059,0.021532999351620674
1761132146626308000,3.10030810546875,-0.0016035212902352214,-0.009773843921720982,-0.017562376335263252
1761132146636308000,3.110307861328125,0.0020616701804101467,-0.00733038317412138,-0.01572977937757969
1761132146646308000,3.12030810546875,0.0020616701804101467,0.004886921960860491,0.005650503560900688
1761132146656308000,3.130307861328125,-0.0009926559869199991,0.001832595793530345,0.0007635815418325365
1761132146666308000,3.14030810546875,-0.00038179077091626823,0.0012217304902151227,-0.001679879380390048
1761132146676308000,3.150307861328125,0.000839939690195024,-0.003054326167330146,0.004428773187100887
1761132146686307800,3.160307861328125,-0.0009926559869199991,-0.005497787147760391,-0.00045814894838258624
1761132146696308000,3.170307861328125,-0.0009926559869199991,0.003054326167330146,-0.0010690141934901476
1761132146706307800,3.180307861328125,-0.0009926559869199991,0.0024434609804302454,-0.0022907445672899485
1761132146716308700,3.190308837890625,0.00022907447419129312,-0.0012217304902151227,-0.001679879380390048
1761132146726308900,3.200308837890625,0.0014508049935102463,-0.0024434609804302454,0.0013744467869400978
1761132146736309000,3.21030908203125,0.00022907447419129312,0.0006108652451075613,0.0013744467869400978
1761132146746308900,3.220308837890625,-0.0009926559869199991,0.0012217304902151227,-0.0010690141934901476
1761132146756309000,3.23030908203125,0.00022907447419129312,-0.0006108652451075613,0.00015271631127689034
1761132146766308900,3.240308837890625,0.00022907447419129312,-0.0024434609804302454,0.0007635815418325365
1761132146776309000,3.25030908203125,0.00022907447419129312,-0.0006108652451075613,0.00015271631127689034
1761132146786308900,3.260308837890625,0.0014508049935102463,0.0024434609804302454,-0.0010690141934901476
1761132146796309000,3.27030908203125,0.000839939690195024,0.0006108652451075613,-0.00045814894838258624
1761132146806308900,3.280308837890625,0.00022907447419129312,-0.0006108652451075613,0.0007635815418325365
1761132146816308000,3.290307861328125,0.00022907447419129312,0,0.0007635815418325365
1761132146826308000,3.30030810546875,0.00022907447419129312,0.003054326167330146,0.0019853119738399982
1761132146836308000,3.310307861328125,-0.0009926559869199991,0,0.0019853119738399982
1761132146846308000,3.32030810546875,0.000839939690195024,0.00427605677396059,0.004428773187100887
1761132146856308000,3.330307861328125,-0.0009926559869199991,0.00427605677396059,0.012980886735022068
1761132146866308000,3.34030810546875,-0.00038179077091626823,-0.00855211354792118,-0.016340645030140877
1761132146876308000,3.350307861328125,0.000839939690195024,-0.00733038317412138,-0.010231993161141872
1761132146886308000,3.36030810546875,0.0014508049935102463,0.003054326167330146,0.004428773187100887
1761132146896308000,3.370307861328125,-0.00038179077091626823,0.0024434609804302454,-0.0022907445672899485
1761132146906308000,3.38030810546875,-0.00038179077091626823,0,-0.0029016099870204926
1761132146916308700,3.390308837890625,0.000839939690195024,-0.0024434609804302454,0.0032070425804704428
1761132146926308600,3.40030859375,0.00022907447419129312,-0.004886921960860491,-0.00045814894838258624
1761132146936308700,3.410308837890625,-0.00038179077091626823,0.00366519158706069,-0.00045814894838258624
1761132146946308600,3.42030859375,0.000839939690195024,0.001832595793530345,-0.0010690141934901476
1761132146956308700,3.430308837890625,-0.0009926559869199991,-0.0006108652451075613,-0.001679879380390048
1761132146966308600,3.44030859375,-0.00038179077091626823,-0.0012217304902151227,0.0019853119738399982
1761132146976308700,3.450308837890625,-0.00038179077091626823,0.0006108652451075613,0.00015271631127689034
1761132146986308600,3.46030859375,0.000839939690195024,0.0024434609804302454,-0.0022907445672899485
1761132146996308700,3.470308837890625,0.00022907447419129312,-0.0012217304902151227,-0.00045814894838258624
1761132147006308600,3.48030859375,0.000839939690195024,-0.0006108652451075613,0.0007635815418325365
1761132147016308000,3.490307861328125,-0.00038179077091626823,0,0.00015271631127689034
1761132147026307800,3.500307861328125,0.00022907447419129312,0.001832595793530345,-0.00045814894838258624
1761132147036307700,3.5103076171875,0.00022907447419129312,0,-0.0010690141934901476
1761132147046307800,3.520307861328125,0.00022907447419129312,-0.001832595793530345,0.0007635815418325365
1761132147056307700,3.5303076171875,-0.0009926559869199991,0.001832595793530345,0.0013744467869400978
1761132147066307800,3.540307861328125,0.00022907447419129312,0.001832595793530345,0.00015271631127689034
1761132147076307700,3.5503076171875,-0.0009926559869199991,0.0024434609804302454,0.0013744467869400978
1761132147086307800,3.560307861328125,0.000839939690195024,0.010995574295520782,0.022143865004181862
1761132147096307700,3.5703076171875,-0.002825251780450344,-0.00855211354792118,-0.012064588256180286
1761132147106307800,3.580307861328125,0.00022907447419129312,-0.014049900695681572,-0.026114489883184433
1761132147116308700,3.590308837890625,0.0014508049935102463,0.00733038317412138,0.009926560334861279
1761132147126308600,3.60030859375,0.00022907447419129312,0.0012217304902151227,-0.0022907445672899485
1761132147136308700,3.610308837890625,-0.0009926559869199991,0.00366519158706069,-0.0010690141934901476
1761132147146308600,3.62030859375,0.00022907447419129312,-0.001832595793530345,0.00809396430850029
1761132147156308700,3.630308837890625,-0.00038179077091626823,-0.004886921960860491,0.0013744467869400978
1761132147166308600,3.64030859375,-0.00038179077091626823,0.0006108652451075613,0.00015271631127689034
1761132147176308700,3.650308837890625,0.00022907447419129312,0.00366519158706069,0.00015271631127689034
1761132147186308600,3.66030859375,-0.00038179077091626823,0.0006108652451075613,-0.00045814894838258624
1761132147196308700,3.670308837890625,0.0014508049935102463,-0.003054326167330146,0.0019853119738399982
1761132147206308600,3.68030859375,-0.0009926559869199991,-0.001832595793530345,0.0007635815418325365
1761132147216274700,3.690274658203125,-0.00038179077091626823,0.0024434609804302454,-0.001679879380390048
1761132147226241300,3.7002412109375,0.00022907447419129312,0.0006108652451075613,-0.001679879380390048
1761132147236207900,3.710207763671875,0.00022907447419129312,-0.0006108652451075613,0.0007635815418325365
1761132147246174500,3.720174560546875,0.000839939690195024,-0.001832595793530345,-0.00045814894838258624
1761132147256141300,3.730141357421875,-0.00038179077091626823,0.0024434609804302454,-0.00045814894838258624
1761132147266108000,3.74010791015625,-0.00038179077091626823,0,0.00015271631127689034
1761132147276074500,3.750074462890625,-0.0009926559869199991,-0.0006108652451075613,0.0013744467869400978
1761132147286041000,3.760041015625,0.00022907447419129312,0.0024434609804302454,0.003817907767370343
1761132147296008000,3.770008056640625,-0.00038179077091626823,0.00366519158706069,0.005650503560900688
1761132147305974500,3.779974609375,0.000839939690195024,-0.005497787147760391,-0.009621127508580685
1761132147315942100,3.789942138671875,0.00022907447419129312,-0.004886921960860491,-0.003512475173920393
1761132147325908700,3.79990869140625,0.000839939690195024,0,0.0019853119738399982
1761132147335875300,3.809875244140625,-0.0016035212902352214,0.0024434609804302454,-0.0022907445672899485
1761132147345842200,3.81984228515625,0.00022907447419129312,0.0006108652451075613,0.0032070425804704428
1761132147355808800,3.829808837890625,-0.00038179077091626823,-0.003054326167330146,0.0019853119738399982
1761132147365775400,3.839775390625,0.000839939690195024,-0.0006108652451075613,-0.0010690141934901476
1761132147375742200,3.8497421875,-0.00038179077091626823,0.003054326167330146,-0.001679879380390048
1761132147385708800,3.859708740234375,0.000839939690195024,0.0012217304902151227,-0.0010690141934901476
1761132147395675400,3.86967529296875,0.00022907447419129312,-0.0012217304902151227,0.00015271631127689034
1761132147405642000,3.87964208984375,0.00022907447419129312,0.0006108652451075613,0.0013744467869400978
1761132147415607800,3.88960791015625,0.000839939690195024,0,0.0007635815418325365
1761132147425574700,3.89957470703125,0.000839939690195024,0.0006108652451075613,0.0007635815418325365
1761132147435541200,3.909541259765625,-0.00038179077091626823,-0.0006108652451075613,0.00015271631127689034
1761132147445507800,3.9195078125,-0.00038179077091626823,0,0.0007635815418325365
1761132147455474400,3.929474365234375,-0.00038179077091626823,0,-0.001679879380390048
1761132147465441300,3.939441162109375,-0.00038179077091626823,-0.0006108652451075613,-0.0010690141934901476
1761132147475408000,3.949407958984375,0.000839939690195024,-0.0006108652451075613,0.0007635815418325365
1761132147485374500,3.95937451171875,-0.00038179077091626823,0,0.00015271631127689034
1761132147495341000,3.969341064453125,0.000839939690195024,0.0006108652451075613,-0.00045814894838258624
1761132147505308000,3.979307861328125,-0.00038179077091626823,0,-0.00045814894838258624
1761132147515308800,3.989308837890625,0.00022907447419129312,-0.0012217304902151227,-0.00045814894838258624
1761132147525308700,3.99930859375,-0.00038179077091626823,-0.0006108652451075613,0.00015271631127689034
1761132147535308800,4.009308837890625,0.000839939690195024,0.0006108652451075613,-0.00045814894838258624
1761132147545308700,4.01930859375,-0.00038179077091626823,0.0012217304902151227,-0.00045814894838258624
1761132147555308800,4.029308837890625,-0.00038179077091626823,0,0.0007635815418325365
1761132147565308700,4.03930859375,0.00022907447419129312,0,0.00015271631127689034
1761132147575308800,4.049308837890625,-0.0009926559869199991,0.0012217304902151227,-0.0010690141934901476
1761132147585308700,4.05930859375,0.000839939690195024,0.0006108652451075613,0.00015271631127689034
1761132147595308800,4.069308837890625,-0.00038179077091626823,-0.0006108652451075613,-0.00045814894838258624
1761132147605308700,4.07930859375,-0.00038179077091626823,0.0006108652451075613,0.00015271631127689034
1761132147615307800,4.089307861328125,0.00022907447419129312,0,-0.00045814894838258624
1761132147625308000,4.099307861328125,0.00022907447419129312,0.0006108652451075613,0.00015271631127689034
1761132147635307800,4.109307861328125,-0.00038179077091626823,-0.0006108652451075613,-0.00045814894838258624
1761132147645308000,4.119307861328125,0.000839939690195024,0,-0.00045814894838258624
1761132147655307800,4.129307861328125,0.00022907447419129312,0.0006108652451075613,0.00015271631127689034
1761132147665308000,4.139307861328125,0.000839939690195024,0,-0.00045814894838258624
1761132147675307800,4.149307861328125,0.00022907447419129312,-0.0012217304902151227,0.00015271631127689034
1761132147685308000,4.159307861328125,0.000839939690195024,0.0006108652451075613,-0.00045814894838258624
1761132147695307800,4.169307861328125,-0.00038179077091626823,-0.0006108652451075613,-0.00045814894838258624
1761132147705308000,4.179307861328125,0.00022907447419129312,0,0.00015271631127689034
1761132147715308800,4.189308837890625,0.000839939690195024,-0.0006108652451075613,-0.00045814894838258624
1761132147725308700,4.19930859375,0.000839939690195024,0.0006108652451075613,0.00015271631127689034
1761132147735308800,4.209308837890625,-0.00038179077091626823,0.0006108652451075613,0.00015271631127689034
1761132147745308700,4.21930859375,0.00022907447419129312,0.0006108652451075613,0.0007635815418325365
1761132147755308800,4.229308837890625,-0.00038179077091626823,0,0.00015271631127689034
1761132147765308700,4.23930859375,-0.0009926559869199991,0,-0.0010690141934901476
1761132147775309300,4.249309326171875,0.00022907447419129312,0.0006108652451075613,0.0007635815418325365
1761132147785309200,4.25930908203125,-0.0009926559869199991,0,-0.0010690141934901476
1761132147795309300,4.269309326171875,0.00022907447419129312,0,0.00015271631127689034
1761132147805309200,4.27930908203125,0.000839939690195024,0,-0.00045814894838258624
1761132147815308300,4.289308349609375,0.00022907447419129312,0,0.0007635815418325365
1761132147825308400,4.299308349609375,-0.0009926559869199991,0.0012217304902151227,0.00015271631127689034
1761132147835308300,4.309308349609375,-0.0009926559869199991,-0.0006108652451075613,-0.00045814894838258624
1761132147845308400,4.319308349609375,0.00022907447419129312,0,-0.00045814894838258624
1761132147855308300,4.329308349609375,-0.00038179077091626823,0.0006108652451075613,-0.00045814894838258624
1761132147865308400,4.339308349609375,0.000839939690195024,0,0.00015271631127689034
1761132147875308300,4.349308349609375,0.00022907447419129312,-0.0012217304902151227,0.0007635815418325365
1761132147885308400,4.359308349609375,0.000839939690195024,0.0006108652451075613,0.0007635815418325365
1761132147895308300,4.369308349609375,0.00022907447419129312,0,0.0007635815418325365
1761132147905308400,4.379308349609375,0.00022907447419129312,0.0006108652451075613,-0.0010690141934901476
1761132147915309000,4.38930908203125,-0.00038179077091626823,0.0006108652451075613,-0.00045814894838258624
1761132147925309200,4.39930908203125,0.00022907447419129312,0.0006108652451075613,0.00015271631127689034
1761132147935309000,4.40930908203125,0.00022907447419129312,0,-0.00045814894838258624
1761132147945309200,4.41930908203125,-0.00038179077091626823,0,0.0007635815418325365
1761132147955309000,4.42930908203125,0.00022907447419129312,-0.0012217304902151227,-0.00045814894838258624
1761132147965309200,4.43930908203125,0.000839939690195024,0,0.0007635815418325365
1761132147975309000,4.44930908203125,0.0014508049935102463,0.0006108652451075613,0.00015271631127689034
1761132147985309200,4.45930908203125,0.000839939690195024,0.0006108652451075613,0.00015271631127689034
1761132147995309000,4.46930908203125,0.0014508049935102463,0,0.00015271631127689034
1761132148005309200,4.47930908203125,-0.00038179077091626823,-0.0006108652451075613,0.00015271631127689034
1761132148015308300,4.489308349609375,0.0014508049935102463,-0.0006108652451075613,0.00015271631127689034
1761132148025308400,4.499308349609375,0.00022907447419129312,0,-0.00045814894838258624
1761132148035308300,4.509308349609375,0.000839939690195024,0,-0.00045814894838258624
1761132148045308200,4.51930810546875,-0.0009926559869199991,-0.0006108652451075613,0.00015271631127689034
1761132148055308300,4.529308349609375,0.00022907447419129312,0,0.0013744467869400978
1761132148065308200,4.53930810546875,0.00022907447419129312,-0.0006108652451075613,0.00015271631127689034
1761132148075307800,4.549307861328125,0.00022907447419129312,-0.001832595793530345,-0.00045814894838258624
1761132148085308000,4.559307861328125,0.00022907447419129312,0,-0.00045814894838258624
1761132148095307800,4.569307861328125,0.00022907447419129312,0,0.0007635815418325365
1761132148105308000,4.579307861328125,0.000839939690195024,-0.0012217304902151227,-0.00045814894838258624
1761132148115308500,4.58930859375,0.0014508049935102463,0.0006108652451075613,-0.00045814894838258624
1761132148125308700,4.59930859375,0.000839939690195024,0.0006108652451075613,0.00015271631127689034
1761132148135308500,4.60930859375,-0.0009926559869199991,0,0.00015271631127689034
1761132148145308700,4.61930859375,0.000839939690195024,0.0006108652451075613,-0.00045814894838258624
1761132148155308500,4.62930859375,0.00022907447419129312,0,-0.00045814894838258624
1761132148165308700,4.63930859375,0.00022907447419129312,0.0006108652451075613,0.00015271631127689034
1761132148175308500,4.64930859375,0.000839939690195024,-0.0012217304902151227,-0.00045814894838258624
1761132148185308700,4.65930859375,0.000839939690195024,-0.0006108652451075613,0.00015271631127689034
1761132148195308500,4.66930859375,0.00022907447419129312,-0.0006108652451075613,-0.0010690141934901476
1761132148205308700,4.67930859375,0.000839939690195024,0,0.00015271631127689034
1761132148215307800,4.689307861328125,0.00022907447419129312,0,-0.00045814894838258624
1761132148225308000,4.699307861328125,-0.00038179077091626823,-0.0006108652451075613,0.0007635815418325365
1761132148235307800,4.709307861328125,0.00022907447419129312,0.0006108652451075613,0.00015271631127689034
1761132148245308000,4.719307861328125,0.000839939690195024,0.0012217304902151227,0.0007635815418325365
1761132148255307800,4.729307861328125,-0.00038179077091626823,0,0.00015271631127689034
1761132148265308000,4.739307861328125,-0.00038179077091626823,-0.0012217304902151227,-0.00045814894838258624
1761132148275307800,4.749307861328125,-0.00038179077091626823,-0.0006108652451075613,0.00015271631127689034
1761132148285308000,4.759307861328125,0.000839939690195024,0.0006108652451075613,-0.00045814894838258624
1761132148295307800,4.769307861328125,0.000839939690195024,-0.0012217304902151227,0.0007635815418325365
1761132148305308000,4.779307861328125,0.0020616701804101467,0.0006108652451075613,0.0007635815418325365
1761132148315308800,4.789308837890625,-0.00038179077091626823,-0.0012217304902151227,0.00015271631127689034
1761132148325308700,4.79930859375,-0.00038179077091626823,-0.0006108652451075613,0.00015271631127689034
1761132148335308800,4.809308837890625,-0.00038179077091626823,-0.0006108652451075613,0.00015271631127689034
1761132148345308700,4.81930859375,0.000839939690195024,0.0012217304902151227,0.0007635815418325365
1761132148355308800,4.829308837890625,0.000839939690195024,0,0.0007635815418325365
1761132148365308700,4.83930859375,-0.0009926559869199991,0.0012217304902151227,-0.00045814894838258624
1761132148375308800,4.849308837890625,-0.0009926559869199991,-0.0012217304902151227,0.00015271631127689034
1761132148385308700,4.85930859375,0.000839939690195024,0,-0.00045814894838258624
1761132148395308800,4.869308837890625,-0.0009926559869199991,0.0006108652451075613,0.00015271631127689034
1761132148405308700,4.87930859375,0.00022907447419129312,0,0.0007635815418325365
1761132148415307800,4.889307861328125,-0.00038179077091626823,0,-0.00045814894838258624
1761132148425308000,4.899307861328125,0.00022907447419129312,-0.0006108652451075613,0.00015271631127689034
1761132148435307800,4.909307861328125,-0.00038179077091626823,0.0006108652451075613,0.00015271631127689034
1761132148445308000,4.919307861328125,-0.0009926559869199991,0.0006108652451075613,0.00015271631127689034
1761132148455307800,4.929307861328125,0.000839939690195024,0.0006108652451075613,-0.00045814894838258624
1761132148465308000,4.939307861328125,0.000839939690195024,0.0006108652451075613,0.0007635815418325365
1761132148475307800,4.949307861328125,0.00022907447419129312,-0.0006108652451075613,0.0007635815418325365
1761132148485308000,4.959307861328125,0.000839939690195024,0,0.0007635815418325365
1761132148495307800,4.969307861328125,0.000839939690195024,0.0012217304902151227,0.0007635815418325365
1761132148505308000,4.979307861328125,0.00022907447419129312,0,-0.00045814894838258624
1761132148515308500,4.98930859375,-0.00038179077091626823,-0.0006108652451075613,-0.00045814894838258624
1761132148525308700,4.99930859375,0.000839939690195024,0,0.0007635815418325365
1761132148535308500,5.00930859375,-0.00038179077091626823,0.0006108652451075613,0.00015271631127689034
1761132148545308700,5.01930859375,0.00022907447419129312,0,-0.00045814894838258624
1761132148555308500,5.02930859375,0.00022907447419129312,0.0012217304902151227,-0.00045814894838258624
1761132148565308700,5.03930859375,-0.00038179077091626823,0,0.00015271631127689034
1761132148575308800,5.049308837890625,-0.00038179077091626823,-0.0006108652451075613,-0.00045814894838258624
1761132148585308700,5.05930859375,-0.00038179077091626823,-0.0006108652451075613,0.00015271631127689034
1761132148595308800,5.069308837890625,0.00022907447419129312,0.0006108652451075613,0.00015271631127689034
1761132148605308700,5.07930859375,-0.0009926559869199991,0.0006108652451075613,0.0007635815418325365
1761132148615307800,5.089307861328125,-0.00038179077091626823,-0.0006108652451075613,0.00015271631127689034
1761132148625308000,5.099307861328125,0.000839939690195024,0.0006108652451075613,-0.00045814894838258624
1761132148635307800,5.109307861328125,0.00022907447419129312,-0.0006108652451075613,-0.001679879380390048
1761132148645308000,5.119307861328125,0.00022907447419129312,-0.0012217304902151227,0.00015271631127689034
1761132148655307800,5.129307861328125,0.000839939690195024,0.0006108652451075613,0.0007635815418325365
1761132148665308000,5.139307861328125,0.000839939690195024,-0.0006108652451075613,0.00015271631127689034
1761132148675307800,5.149307861328125,-0.0009926559869199991,0.0006108652451075613,-0.00045814894838258624
1761132148685307600,5.1593076171875,0.00022907447419129312,0,0.0007635815418325365
1761132148695307800,5.169307861328125,0.00022907447419129312,0,-0.00045814894838258624
1761132148705307600,5.1793076171875,-0.00038179077091626823,-0.0006108652451075613,0.00015271631127689034
1761132148715308500,5.18930859375,-0.00038179077091626823,0,0.00015271631127689034
1761132148725308700,5.19930859375,0.000839939690195024,0,0.00015271631127689034
1761132148735308500,5.20930859375,-0.00038179077091626823,-0.0012217304902151227,-0.00045814894838258624
1761132148745308700,5.21930859375,0.00022907447419129312,0,0.0007635815418325365
1761132148755308500,5.22930859375,-0.00038179077091626823,-0.0006108652451075613,-0.0010690141934901476
1761132148765308700,5.23930859375,0.00022907447419129312,-0.0006108652451075613,-0.00045814894838258624
1761132148775308800,5.249308837890625,-0.0009926559869199991,0,-0.00045814894838258624
1761132148785308700,5.25930859375,0.00022907447419129312,-0.0006108652451075613,0.00015271631127689034
1761132148795308800,5.269308837890625,-0.00038179077091626823,0,-0.00045814894838258624
1761132148805308700,5.27930859375,-0.00038179077091626823,0,-0.00045814894838258624
1761132148815307800,5.289307861328125,0.00022907447419129312,0.0006108652451075613,-0.00045814894838258624
1761132148825308000,5.299307861328125,0.00022907447419129312,0.0012217304902151227,0.00015271631127689034
1761132148835307800,5.309307861328125,0.00022907447419129312,-0.0006108652451075613,-0.00045814894838258624
1761132148845308000,5.319307861328125,0.00022907447419129312,0,0.0007635815418325365
1761132148855307800,5.329307861328125,-0.00038179077091626823,0,-0.00045814894838258624
1761132148865308000,5.339307861328125,-0.0016035212902352214,-0.0012217304902151227,-0.00045814894838258624
1761132148875307800,5.349307861328125,-0.00038179077091626823,-0.0006108652451075613,0.00015271631127689034
1761132148885308000,5.359307861328125,0.00022907447419129312,0,-0.00045814894838258624
1761132148895307800,5.369307861328125,0.000839939690195024,0.0006108652451075613,-0.00045814894838258624
1761132148905308000,5.379307861328125,0.00022907447419129312,0.0006108652451075613,0.00015271631127689034
1761132148915308800,5.389308837890625,-0.00038179077091626823,0.0006108652451075613,-0.0010690141934901476
1761132148925308700,5.39930859375,0.000839939690195024,0.0006108652451075613,0.0007635815418325365
1761132148935308800,5.409308837890625,0.000839939690195024,0,0.0007635815418325365
1761132148945308700,5.41930859375,0.00022907447419129312,0,0.00015271631127689034
1761132148955308800,5.429308837890625,0.00022907447419129312,0,-0.0010690141934901476
1761132148965308700,5.43930859375,-0.00038179077091626823,-0.0006108652451075613,-0.00045814894838258624
1761132148975308800,5.449308837890625,0.000839939690195024,0.0006108652451075613,0.00015271631127689034
1761132148985308700,5.45930859375,0.00022907447419129312,0,0.0007635815418325365
1761132148995308800,5.469308837890625,0.0014508049935102463,0.0012217304902151227,0.0013744467869400978
1761132149005308700,5.47930859375,0.00022907447419129312,0.0006108652451075613,0.00015271631127689034
1761132149015307800,5.489307861328125,0.00022907447419129312,0.0006108652451075613,0.00015271631127689034
1761132149025308000,5.499307861328125,0.00022907447419129312,-0.0006108652451075613,-0.0010690141934901476
1761132149035307800,5.509307861328125,-0.00038179077091626823,-0.0006108652451075613,-0.00045814894838258624
1761132149045308000,5.519307861328125,0.00022907447419129312,0.0006108652451075613,-0.00045814894838258624
1761132149055307800,5.529307861328125,-0.00038179077091626823,-0.0006108652451075613,0.0007635815418325365
1761132149065308000,5.539307861328125,-0.00038179077091626823,0,0.00015271631127689034
1761132149075307800,5.549307861328125,-0.00038179077091626823,-0.0006108652451075613,0.0007635815418325365
1761132149085308000,5.559307861328125,-0.00038179077091626823,-0.0006108652451075613,0.0007635815418325365
1761132149095307800,5.569307861328125,-0.00038179077091626823,0,0.00015271631127689034
1761132149105308000,5.579307861328125,-0.0009926559869199991,-0.0006108652451075613,-0.00045814894838258624
1761132149115308500,5.58930859375,-0.00038179077091626823,-0.0006108652451075613,0.00015271631127689034
1761132149125308700,5.59930859375,0.00022907447419129312,0,-0.00045814894838258624
1761132149135308500,5.60930859375,0.00022907447419129312,0,0.0007635815418325365
1761132149145308700,5.61930859375,0.00022907447419129312,0.0006108652451075613,0.00015271631127689034
1761132149155308500,5.62930859375,0.00022907447419129312,0,0.00015271631127689034
1761132149165308700,5.63930859375,-0.00038179077091626823,0,0.0007635815418325365
1761132149175308500,5.64930859375,-0.00038179077091626823,-0.0006108652451075613,0.00015271631127689034
1761132149185308700,5.65930859375,0.000839939690195024,-0.0012217304902151227,0.0007635815418325365
1761132149195308500,5.66930859375,-0.00038179077091626823,-0.0006108652451075613,0.0007635815418325365
1761132149205308700,5.67930859375,-0.0009926559869199991,-0.0006108652451075613,-0.00045814894838258624
1761132149215307800,5.689307861328125,0.000839939690195024,-0.0006108652451075613,0.00015271631127689034
1761132149225308000,5.699307861328125,-0.00038179077091626823,0,0.00015271631127689034
1761132149235307800,5.709307861328125,0.00022907447419129312,0,0.00015271631127689034
1761132149245308000,5.719307861328125,0.00022907447419129312,0,0.00015271631127689034
1761132149255307800,5.729307861328125,-0.0009926559869199991,0,0.0007635815418325365
1761132149265308000,5.739307861328125,0.000839939690195024,0,0.0007635815418325365
1761132149275307800,5.749307861328125,0.000839939690195024,0,0.0013744467869400978
1761132149285308000,5.759307861328125,0.0014508049935102463,0,0.00015271631127689034
1761132149295307800,5.769307861328125,0.000839939690195024,-0.0006108652451075613,0.00015271631127689034
1761132149305308000,5.779307861328125,0.00022907447419129312,-0.0006108652451075613,0.0007635815418325365
1761132149315308800,5.789308837890625,-0.00038179077091626823,0,0.0007635815418325365
1761132149325308700,5.79930859375,-0.0009926559869199991,0,0.0019853119738399982
1761132149335308800,5.809308837890625,0.00022907447419129312,0,0.0019853119738399982
1761132149345308700,5.81930859375,-0.0022143865935504436,-0.0006108652451075613,0.0007635815418325365
1761132149355308800,5.829308837890625,-0.0009926559869199991,-0.0006108652451075613,0.0007635815418325365
1761132149365308700,5.83930859375,0.0014508049935102463,-0.0012217304902151227,0.0007635815418325365
1761132149375308800,5.849308837890625,0.00022907447419129312,-0.0012217304902151227,0.0007635815418325365
1761132149385308700,5.85930859375,0.000839939690195024,-0.0012217304902151227,0.0013744467869400978
1761132149395308800,5.869308837890625,-0.0009926559869199991,-0.0012217304902151227,0.00015271631127689034
1761132149405308700,5.87930859375,0.00022907447419129312,-0.0006108652451075613,-0.001679879380390048
1761132149415307800,5.889307861328125,0.00022907447419129312,-0.001832595793530345,-0.0010690141934901476
1761132149425308000,5.899307861328125,0.000839939690195024,-0.0006108652451075613,-0.0022907445672899485
1761132149435307800,5.909307861328125,0.000839939690195024,-0.001832595793530345,-0.0010690141934901476
1761132149445308000,5.919307861328125,-0.00038179077091626823,-0.001832595793530345,-0.001679879380390048
1761132149455307800,5.929307861328125,0.000839939690195024,-0.001832595793530345,0.00015271631127689034
1761132149465308000,5.939307861328125,-0.0009926559869199991,0.0006108652451075613,0.00015271631127689034
1761132149475307800,5.949307861328125,-0.00038179077091626823,-0.0006108652451075613,-0.00045814894838258624
1761132149485308000,5.959307861328125,0.00022907447419129312,0,-0.0010690141934901476
1761132149495307800,5.969307861328125,-0.00038179077091626823,-0.0006108652451075613,-0.001679879380390048
1761132149505308000,5.979307861328125,0.00022907447419129312,0,-0.001679879380390048
1761132149515308500,5.98930859375,0.00022907447419129312,0.0006108652451075613,0.0013744467869400978
1761132149525308700,5.99930859375,0.00022907447419129312,0,0.00015271631127689034
1761132149535308500,6.00930859375,0.000839939690195024,-0.0006108652451075613,-0.00045814894838258624
1761132149545308700,6.01930859375,0.00022907447419129312,0,0.0007635815418325365
1761132149555308500,6.02930859375,0.0020616701804101467,0.001832595793530345,0.0007635815418325365
1761132149565308700,6.03930859375,-0.00038179077091626823,0,-0.00045814894838258624
1761132149575308500,6.04930859375,-0.00038179077091626823,-0.0006108652451075613,0.00015271631127689034
1761132149585308700,6.05930859375,-0.00038179077091626823,-0.0006108652451075613,0.0007635815418325365
1761132149595308800,6.069308837890625,0.00022907447419129312,0.0006108652451075613,0.0007635815418325365
1761132149605308700,6.07930859375,-0.00038179077091626823,0.001832595793530345,0.0007635815418325365
1761132149615307800,6.089307861328125,0.00022907447419129312,0.0012217304902151227,0.00015271631127689034
1761132149625308000,6.099307861328125,-0.0016035212902352214,0,0.0007635815418325365
1761132149635307800,6.109307861328125,0.000839939690195024,0.0012217304902151227,0.00015271631127689034
1761132149645308000,6.119307861328125,0.00022907447419129312,-0.001832595793530345,-0.0010690141934901476
1761132149655307800,6.129307861328125,-0.00038179077091626823,0,0.0007635815418325365
1761132149665308000,6.139307861328125,-0.0009926559869199991,-0.0006108652451075613,0.00015271631127689034
1761132149675307800,6.149307861328125,-0.00038179077091626823,-0.0006108652451075613,0.0007635815418325365
1761132149685307600,6.1593076171875,0.00022907447419129312,-0.0006108652451075613,0.0013744467869400978
1761132149695307800,6.169307861328125,-0.00038179077091626823,0,-0.0010690141934901476
1761132149705307600,6.1793076171875,-0.00038179077091626823,-0.0006108652451075613,-0.0010690141934901476
1761132149715308500,6.18930859375,-0.00038179077091626823,0,0.0013744467869400978
1761132149725308700,6.19930859375,0.0014508049935102463,-0.0012217304902151227,0.0007635815418325365
1761132149735308800,6.209308837890625,-0.00038179077091626823,0,-0.00045814894838258624
1761132149745308700,6.21930859375,-0.00038179077091626823,0,0.00015271631127689034
1761132149755308800,6.229308837890625,0.000839939690195024,0,0.00015271631127689034
1761132149765308700,6.23930859375,0.0014508049935102463,0,-0.00045814894838258624
1761132149775308800,6.249308837890625,-0.0009926559869199991,0,0.00015271631127689034
1761132149785308700,6.25930859375,-0.00038179077091626823,0,0.0007635815418325365
1761132149795308800,6.269308837890625,-0.00038179077091626823,-0.0012217304902151227,0.0013744467869400978
1761132149805308700,6.27930859375,-0.0009926559869199991,0,0.00015271631127689034
1761132149815307800,6.289307861328125,-0.0009926559869199991,0.0006108652451075613,0.00015271631127689034
1761132149825308000,6.299307861328125,-0.00038179077091626823,0,0.00015271631127689034
1761132149835307800,6.309307861328125,0.0014508049935102463,-0.0006108652451075613,0.00015271631127689034
1761132149845308000,6.319307861328125,0.00022907447419129312,0,0.00015271631127689034
1761132149855307800,6.329307861328125,0.000839939690195024,0.0006108652451075613,-0.0010690141934901476
1761132149865308000,6.339307861328125,0.000839939690195024,0,0.0007635815418325365
1761132149875307800,6.349307861328125,0.00022907447419129312,0.0006108652451075613,0.00015271631127689034
1761132149885308000,6.359307861328125,0.000839939690195024,0,0.00015271631127689034
1761132149895307800,6.369307861328125,-0.00038179077091626823,-0.0006108652451075613,0.00015271631127689034
1761132149905308000,6.379307861328125,-0.00038179077091626823,0,-0.00045814894838258624
1761132149915308800,6.389308837890625,-0.00038179077091626823,-0.0006108652451075613,-0.0010690141934901476
1761132149925308700,6.39930859375,0.00022907447419129312,-0.0006108652451075613,0.00015271631127689034
1761132149935308800,6.409308837890625,-0.00038179077091626823,0.0006108652451075613,0.00015271631127689034
1761132149945308700,6.41930859375,0.00022907447419129312,0.0006108652451075613,0.0007635815418325365
1761132149955308800,6.429308837890625,-0.0009926559869199991,-0.0012217304902151227,-0.00045814894838258624
1761132149965308700,6.43930859375,-0.00038179077091626823,-0.0006108652451075613,0.00015271631127689034
1761132149975308800,6.449308837890625,-0.00038179077091626823,-0.0006108652451075613,-0.0010690141934901476
1761132149985308700,6.45930859375,-0.00038179077091626823,0,-0.00045814894838258624
1761132149995308800,6.469308837890625,0.00022907447419129312,0,0.00015271631127689034
1761132150005308700,6.47930859375,0.00022907447419129312,-0.0006108652451075613,0.00015271631127689034
1761132150015307800,6.489307861328125,0.00022907447419129312,0,0.0007635815418325365
1761132150025308000,6.499307861328125,0.00022907447419129312,-0.0006108652451075613,0.00015271631127689034
1761132150035307800,6.509307861328125,-0.00038179077091626823,-0.001832595793530345,-0.00045814894838258624
1761132150045308000,6.519307861328125,-0.00038179077091626823,0,0.0007635815418325365
1761132150055307800,6.529307861328125,0.0014508049935102463,-0.0006108652451075613,0.00015271631127689034
1761132150065308000,6.539307861328125,0.000839939690195024,-0.0006108652451075613,0.00015271631127689034
1761132150075307800,6.549307861328125,-0.00038179077091626823,0.0012217304902151227,0.0007635815418325365
1761132150085308000,6.559307861328125,-0.00038179077091626823,0.0006108652451075613,-0.00045814894838258624
1761132150095307800,6.569307861328125,-0.00038179077091626823,0.0012217304902151227,-0.00045814894838258624
1761132150105308000,6.579307861328125,0.0014508049935102463,0,-0.00045814894838258624
1761132150115308500,6.58930859375,-0.00038179077091626823,-0.0012217304902151227,-0.00045814894838258624
1761132150125308700,6.59930859375,-0.00038179077091626823,0,-0.00045814894838258624
1761132150135308500,6.60930859375,-0.00038179077091626823,0.0006108652451075613,-0.0010690141934901476
1761132150145308700,6.61930859375,0.000839939690195024,0,0.00015271631127689034
1761132150155308500,6.62930859375,-0.00038179077091626823,-0.0006108652451075613,0.00015271631127689034
1761132150165308700,6.63930859375,0.000839939690195024,-0.0006108652451075613,-0.00045814894838258624
1761132150175308500,6.64930859375,0.000839939690195024,0.0006108652451075613,0.00015271631127689034
1761132150185308700,6.65930859375,0.0020616701804101467,-0.0006108652451075613,0.00015271631127689034
1761132150195308500,6.66930859375,0.00022907447419129312,0.0006108652451075613,0.0007635815418325365
1761132150205308700,6.67930859375,0.00022907447419129312,-0.0006108652451075613,0.00015271631127689034
1761132150215307800,6.689307861328125,-0.00038179077091626823,0,0.0007635815418325365
1761132150225308000,6.699307861328125,0.0020616701804101467,0.0006108652451075613,0.00015271631127689034
1761132150235307800,6.709307861328125,0.00022907447419129312,0,0.0007635815418325365
1761132150245308000,6.719307861328125,0.000839939690195024,-0.0006108652451075613,-0.00045814894838258624
1761132150255307800,6.729307861328125,-0.00038179077091626823,0.0006108652451075613,0.0007635815418325365
1761132150265308000,6.739307861328125,0.000839939690195024,0.0006108652451075613,0.0007635815418325365
1761132150275307800,6.749307861328125,0.00022907447419129312,0.0006108652451075613,0.00015271631127689034
1761132150285308000,6.759307861328125,0.00022907447419129312,0,0.00015271631127689034
1761132150295307800,6.769307861328125,-0.0009926559869199991,0,-0.00045814894838258624
1761132150305308000,6.779307861328125,0.00022907447419129312,0,-0.00045814894838258624
1761132150315308500,6.78930859375,-0.00038179077091626823,0,0.00015271631127689034
1761132150325308700,6.79930859375,-0.00038179077091626823,0,-0.00045814894838258624
1761132150335308800,6.809308837890625,0.000839939690195024,0.0006108652451075613,0.0007635815418325365
1761132150345308700,6.81930859375,0.000839939690195024,0.0006108652451075613,0.00015271631127689034
1761132150355308800,6.829308837890625,-0.0009926559869199991,-0.0006108652451075613,-0.0010690141934901476
1761132150365308700,6.83930859375,0.00022907447419129312,0,0.0007635815418325365
1761132150375308800,6.849308837890625,0.00022907447419129312,0.0006108652451075613,0.00015271631127689034
1761132150385308700,6.85930859375,0.000839939690195024,0.0006108652451075613,-0.0010690141934901476
1761132150395308800,6.869308837890625,0.00022907447419129312,0.0012217304902151227,-0.00045814894838258624
1761132150405308700,6.87930859375,-0.0009926559869199991,0.0012217304902151227,0.00015271631127689034
1761132150415307800,6.889307861328125,-0.0009926559869199991,0,0.0007635815418325365
1761132150425308000,6.899307861328125,0.000839939690195024,0,-0.00045814894838258624
1761132150435307800,6.909307861328125,0.00022907447419129312,-0.0006108652451075613,0.00015271631127689034
1761132150445308000,6.919307861328125,0.00022907447419129312,-0.0012217304902151227,0.0007635815418325365
1761132150455307800,6.929307861328125,0.000839939690195024,0,0.0013744467869400978
1761132150465307600,6.9393076171875,0.00022907447419129312,0.0006108652451075613,0.00015271631127689034
1761132150475307800,6.949307861328125,-0.00038179077091626823,0.0012217304902151227,0.0007635815418325365
1761132150485308000,6.959307861328125,0.00022907447419129312,-0.0012217304902151227,-0.0010690141934901476
1761132150495307800,6.969307861328125,0.00022907447419129312,0,-0.00045814894838258624
1761132150505308000,6.979307861328125,0.000839939690195024,-0.0006108652451075613,0.00015271631127689034
1761132150515308500,6.98930859375,0.00022907447419129312,0,0.00015271631127689034
1761132150525308700,6.99930859375,0.000839939690195024,0,0.00015271631127689034
1761132150535308500,7.00930859375,0.00022907447419129312,0,0.0007635815418325365
1761132150545308700,7.01930859375,0.00022907447419129312,0.0006108652451075613,-0.00045814894838258624
1761132150555308500,7.02930859375,0.000839939690195024,0.0006108652451075613,0.00015271631127689034
1761132150565308700,7.03930859375,-0.0009926559869199991,0.0006108652451075613,0.00015271631127689034
1761132150575308800,7.049308837890625,0.00022907447419129312,0,0.00015271631127689034
1761132150585308700,7.05930859375,-0.00038179077091626823,-0.0006108652451075613,0.00015271631127689034
1761132150595308800,7.069308837890625,-0.00038179077091626823,0,-0.00045814894838258624
1761132150605308700,7.07930859375,0.000839939690195024,-0.0006108652451075613,0.00015271631127689034
1761132150615307800,7.089307861328125,0.00022907447419129312,-0.0006108652451075613,0.00015271631127689034
1761132150625308000,7.099307861328125,0.00022907447419129312,-0.0012217304902151227,-0.00045814894838258624
1761132150635307800,7.109307861328125,0.00022907447419129312,-0.0006108652451075613,-0.00045814894838258624
1761132150645308000,7.119307861328125,0.00022907447419129312,-0.0006108652451075613,0.00015271631127689034
1761132150655307800,7.129307861328125,-0.00038179077091626823,0.0006108652451075613,0.00015271631127689034
1761132150665308000,7.139307861328125,-0.00038179077091626823,-0.0006108652451075613,-0.00045814894838258624
1761132150675307800,7.149307861328125,-0.00038179077091626823,0.0006108652451075613,0.0007635815418325365
1761132150685307600,7.1593076171875,-0.0009926559869199991,-0.0012217304902151227,-0.0010690141934901476
1761132150695307800,7.169307861328125,-0.00038179077091626823,0,-0.00045814894838258624
1761132150705307600,7.1793076171875,0.000839939690195024,-0.0006108652451075613,0.00015271631127689034
1761132150715308500,7.18930859375,0.0014508049935102463,-0.0012217304902151227,0.0013744467869400978
1761132150725308700,7.19930859375,-0.0009926559869199991,-0.0006108652451075613,0.00015271631127689034
1761132150735308800,7.209308837890625,0.000839939690195024,0,0.00015271631127689034
1761132150745308700,7.21930859375,0.00022907447419129312,0.0006108652451075613,0.00015271631127689034
1761132150755308500,7.22930859375,0.00022907447419129312,-0.0006108652451075613,0.00015271631127689034
1761132150765308700,7.23930859375,-0.00038179077091626823,-0.0006108652451075613,-0.0010690141934901476
1761132150775308800,7.249308837890625,0.000839939690195024,0,0.0007635815418325365
1761132150785308700,7.25930859375,0.000839939690195024,-0.0006108652451075613,0.00015271631127689034
1761132150795308800,7.269308837890625,0.000839939690195024,0.0006108652451075613,0.0013744467869400978
1761132150805308700,7.27930859375,-0.0009926559869199991,-0.0006108652451075613,0.00015271631127689034
1761132150815307800,7.289307861328125,0.000839939690195024,0,0.00015271631127689034
1761132150825308000,7.299307861328125,-0.00038179077091626823,0,-0.0010690141934901476
1761132150835307800,7.309307861328125,0.000839939690195024,0.0006108652451075613,0.0007635815418325365
1761132150845308000,7.319307861328125,-0.0009926559869199991,0,-0.00045814894838258624
1761132150855307800,7.329307861328125,0.00022907447419129312,0,0.00015271631127689034
1761132150865308000,7.339307861328125,-0.0009926559869199991,0.0012217304902151227,0.00015271631127689034
1761132150875307800,7.349307861328125,0.00022907447419129312,0,0.00015271631127689034
1761132150885308000,7.359307861328125,-0.00038179077091626823,0,-0.0010690141934901476
1761132150915308500,7.38930859375,-0.00038179077091626823,-0.0006108652451075613,0.00015271631127689034
1761132150925308700,7.39930859375,0.00022907447419129312,0.0006108652451075613,-0.0010690141934901476
1761132150935308500,7.40930859375,-0.00038179077091626823,0.0006108652451075613,0.0013744467869400978
1761132150945308700,7.41930859375,0.00022907447419129312,-0.0012217304902151227,0.00015271631127689034
1761132150955308500,7.42930859375,0.000839939690195024,-0.0006108652451075613,-0.00045814894838258624
1761132150965308700,7.43930859375,-0.00038179077091626823,-0.0006108652451075613,-0.00045814894838258624
1761132150975308500,7.44930859375,0.000839939690195024,0,-0.00045814894838258624
1761132150985308700,7.45930859375,0.00022907447419129312,-0.0006108652451075613,-0.00045814894838258624
1761132150995308500,7.46930859375,0.00022907447419129312,0.0012217304902151227,0.00015271631127689034
1761132151005308700,7.47930859375,0.00022907447419129312,-0.0006108652451075613,0.0007635815418325365
1761132151015307800,7.489307861328125,0.0014508049935102463,-0.0006108652451075613,0.0013744467869400978
1761132151025308000,7.499307861328125,0.00022907447419129312,-0.0006108652451075613,-0.001679879380390048
1761132151035307800,7.509307861328125,-0.00038179077091626823,0,-0.0010690141934901476
1761132151045307600,7.5193076171875,-0.00038179077091626823,0,0.00015271631127689034
1761132151055307800,7.529307861328125,0.00022907447419129312,0.0006108652451075613,0.00015271631127689034
1761132151065307600,7.5393076171875,-0.0009926559869199991,-0.0006108652451075613,0.0007635815418325365
1761132151075307800,7.549307861328125,0.000839939690195024,0,0.00015271631127689034
1761132151085307600,7.5593076171875,-0.0009926559869199991,0,0.00015271631127689034
1761132151095307800,7.569307861328125,0.00022907447419129312,0,-0.00045814894838258624
1761132151105307600,7.5793076171875,0.000839939690195024,0,0.00015271631127689034
1761132151115308500,7.58930859375,0.00022907447419129312,-0.0006108652451075613,0.0007635815418325365
1761132151125308700,7.59930859375,0.00022907447419129312,0.001832595793530345,-0.00045814894838258624
1761132151135308500,7.60930859375,0.00022907447419129312,0.0006108652451075613,0.0007635815418325365
1761132151145308700,7.61930859375,-0.0009926559869199991,0,-0.0010690141934901476
1761132151155308500,7.62930859375,0.0014508049935102463,0,0.00015271631127689034
1761132151165308700,7.63930859375,-0.0009926559869199991,-0.0006108652451075613,-0.00045814894838258624
1761132151175308500,7.64930859375,0.000839939690195024,0,-0.00045814894838258624
1761132151185308700,7.65930859375,0.00022907447419129312,0,-0.0010690141934901476
1761132151195308500,7.66930859375,0.0014508049935102463,0,-0.0010690141934901476
1761132151205308700,7.67930859375,0.000839939690195024,0.0006108652451075613,0.00015271631127689034
1761132151225308000,7.699307861328125,0.00022907447419129312,0,-0.00045814894838258624
1761132151235307800,7.709307861328125,0.00022907447419129312,0,0.0007635815418325365
1761132151245308000,7.719307861328125,0.00022907447419129312,0,0.00015271631127689034
1761132151255307800,7.729307861328125,0.0014508049935102463,-0.0006108652451075613,0.0007635815418325365
1761132151265308000,7.739307861328125,0.000839939690195024,-0.0006108652451075613,-0.00045814894838258624
1761132151275307800,7.749307861328125,0.0014508049935102463,0,0.00015271631127689034
1761132151285308000,7.759307861328125,0.00022907447419129312,-0.0006108652451075613,0.00015271631127689034
1761132151295307800,7.769307861328125,-0.0009926559869199991,0,-0.0010690141934901476
1761132151305308000,7.779307861328125,0.0014508049935102463,0.0006108652451075613,-0.00045814894838258624
1761132151315308500,7.78930859375,-0.00038179077091626823,-0.0012217304902151227,0.0013744467869400978
1761132151325308700,7.79930859375,0.000839939690195024,0.0006108652451075613,0.0007635815418325365
1761132151335308800,7.809308837890625,0.00022907447419129312,-0.0006108652451075613,0.00015271631127689034
1761132151345308700,7.81930859375,-0.00038179077091626823,-0.0006108652451075613,0.0013744467869400978
1761132151355308800,7.829308837890625,0.000839939690195024,0.0006108652451075613,0.0007635815418325365
1761132151365308700,7.83930859375,0.00022907447419129312,0.0006108652451075613,0.00015271631127689034
1761132151375308800,7.849308837890625,-0.0016035212902352214,0.0006108652451075613,0.00015271631127689034
1761132151385308700,7.85930859375,0.00022907447419129312,0.0006108652451075613,0.0007635815418325365
1761132151395308800,7.869308837890625,0.0014508049935102463,0,0.0007635815418325365
1761132151405308700,7.87930859375,-0.00038179077091626823,0,0.00015271631127689034
1761132151415307800,7.889307861328125,-0.0009926559869199991,-0.0012217304902151227,0.00015271631127689034
1761132151425308000,7.899307861328125,0.00022907447419129312,0,-0.00045814894838258624
1761132151435307800,7.909307861328125,-0.00038179077091626823,-0.0006108652451075613,-0.00045814894838258624
1761132151445308000,7.919307861328125,-0.00038179077091626823,0.0006108652451075613,0.00015271631127689034
1761132151455307800,7.929307861328125,-0.0009926559869199991,-0.0006108652451075613,0.00015271631127689034
1761132151465308000,7.939307861328125,0.00022907447419129312,-0.0006108652451075613,0.00015271631127689034
1761132151475307800,7.949307861328125,0.00022907447419129312,0.0006108652451075613,-0.001679879380390048
1761132151485308000,7.959307861328125,0.000839939690195024,-0.0006108652451075613,-0.00045814894838258624
1761132151495307800,7.969307861328125,0.00022907447419129312,-0.0006108652451075613,0.00015271631127689034
1761132151505308000,7.979307861328125,0.000839939690195024,0.0006108652451075613,-0.00045814894838258624
1761132151515308800,7.989308837890625,0.000839939690195024,0,0.0007635815418325365
1761132151525308700,7.99930859375,-0.00038179077091626823,0.0006108652451075613,0.00015271631127689034
1761132151535308800,8.009308837890625,0.00022907447419129312,0.0012217304902151227,0.00015271631127689034
1761132151545308700,8.01930859375,0.00022907447419129312,0.0006108652451075613,0.00015271631127689034
1761132151555308800,8.029308837890625,0.00015271631127689034,0.00007635815563844517,0.00015271631127689034
1761132151565308700,8.03930859375,-0.00045814894838258624,0.0012980886967852712,-0.00045814894838258624
1761132151575308800,8.049308837890624,0.00015271631127689034,0.00007635815563844517,0.00015271631127689034
1761132151585308700,8.05930859375,0.00015271631127689034,0.0012980886967852712,0.0007635815418325365
1761132151595308800,8.069308837890626,0.0007635815418325365,0.00007635815563844517,-0.00045814894838258624
1761132151605308700,8.07930859375,-0.00045814894838258624,-0.0011453722836449742,0.00015271631127689034
1761132151615307800,8.089307861328125,0.0007635815418325365,0.00007635815563844517,0.0007635815418325365
1761132151625308000,8.099307861328125,-0.00045814894838258624,-0.0005345070967450738,0.00015271631127689034
1761132151635307800,8.109307861328125,0.00015271631127689034,0.00007635815563844517,-0.00045814894838258624
1761132151645308000,8.119307861328124,0.00015271631127689034,-0.0011453722836449742,0.00015271631127689034
1761132151655307800,8.129307861328124,0.0007635815418325365,0.0006872233934700489,-0.00045814894838258624
1761132151665308000,8.139307861328126,-0.00045814894838258624,0.0006872233934700489,0.00015271631127689034
1761132151675307800,8.149307861328126,0.00015271631127689034,0.00007635815563844517,0.0007635815418325365
1761132151685308000,8.159307861328125,-0.00045814894838258624,0.00007635815563844517,0.00015271631127689034
1761132151695307800,8.169307861328125,0.00015271631127689034,0.00007635815563844517,0.00015271631127689034
1761132151705308000,8.179307861328125,0.0007635815418325365,0.00007635815563844517,0.00015271631127689034
1761132151715308500,8.18930859375,0.00015271631127689034,0.0006872233934700489,0.0007635815418325365
1761132151725308700,8.19930859375,0.00015271631127689034,0.0006872233934700489,0.0007635815418325365
1761132151735308500,8.20930859375,0.00015271631127689034,-0.0005345070967450738,0.00015271631127689034
1761132151745308700,8.21930859375,-0.00045814894838258624,0.00007635815563844517,-0.00045814894838258624
1761132151755308500,8.22930859375,-0.00045814894838258624,-0.0005345070967450738,-0.0010690141934901476
1761132151765308700,8.23930859375,0.00015271631127689034,0.0006872233934700489,-0.0010690141934901476
1761132151775308500,8.24930859375,-0.00045814894838258624,0.0006872233934700489,-0.00045814894838258624
1761132151785308700,8.25930859375,-0.00045814894838258624,0.00007635815563844517,0.00015271631127689034
1761132151795308500,8.26930859375,0.0007635815418325365,0.00007635815563844517,0.00015271631127689034
1761132151805308700,8.27930859375,-0.00045814894838258624,-0.0005345070967450738,-0.00045814894838258624
1761132151815307800,8.289307861328124,0.00015271631127689034,0.00007635815563844517,-0.00045814894838258624
1761132151825307600,8.2993076171875,0.00015271631127689034,0.00007635815563844517,0.00015271631127689034
1761132151835307800,8.309307861328126,-0.0010690141934901476,0.0006872233934700489,0.0007635815418325365
1761132151845308000,8.319307861328125,0.00015271631127689034,-0.0005345070967450738,0.00015271631127689034
1761132151855307800,8.329307861328125,-0.0010690141934901476,0.00007635815563844517,0.00015271631127689034
1761132151865308000,8.339307861328125,0.00015271631127689034,-0.0005345070967450738,-0.00045814894838258624
1761132151875307800,8.349307861328125,0.0007635815418325365,-0.0005345070967450738,0.00015271631127689034
1761132151885307600,8.3593076171875,0.00015271631127689034,0.0006872233934700489,-0.00045814894838258624
1761132151895307800,8.369307861328124,-0.00045814894838258624,-0.0011453722836449742,0.00015271631127689034
1761132151905307600,8.3793076171875,0.00015271631127689034,-0.0005345070967450738,0.00015271631127689034
1761132151915308500,8.38930859375,-0.0010690141934901476,-0.0005345070967450738,-0.00045814894838258624
1761132151925308700,8.39930859375,-0.0010690141934901476,0.0006872233934700489,-0.00045814894838258624
1761132151935308500,8.40930859375,0.00015271631127689034,0.0012980886967852712,-0.00045814894838258624
1761132151945308700,8.41930859375,-0.0010690141934901476,0.00007635815563844517,0.00015271631127689034
1761132151955308500,8.42930859375,0.00015271631127689034,0.0006872233934700489,0.00015271631127689034
1761132151965308700,8.43930859375,0.0007635815418325365,-0.0005345070967450738,0.0007635815418325365
1761132151975308500,8.44930859375,0.00015271631127689034,0.0006872233934700489,0.0007635815418325365
1761132151985308700,8.45930859375,0.0007635815418325365,-0.0005345070967450738,0.00015271631127689034
1761132151995308500,8.46930859375,0.00015271631127689034,-0.0005345070967450738,0.00015271631127689034
1761132152005308700,8.47930859375,0.0007635815418325365,0.0012980886967852712,0.00015271631127689034
1761132152015307800,8.489307861328125,0.00015271631127689034,0.00007635815563844517,0.00015271631127689034
1761132152025307600,8.4993076171875,-0.00045814894838258624,0.00007635815563844517,-0.0010690141934901476
1761132152035307800,8.509307861328125,0.00015271631127689034,0.0006872233934700489,0.0007635815418325365
1761132152045307600,8.5193076171875,0.00015271631127689034,0.00007635815563844517,-0.0010690141934901476
1761132152055307800,8.529307861328125,0.00015271631127689034,0.00007635815563844517,0.0007635815418325365
1761132152065307600,8.5393076171875,0.00015271631127689034,0.00007635815563844517,0.00015271631127689034
1761132152075307800,8.549307861328124,-0.0010690141934901476,0.00007635815563844517,0.00015271631127689034
1761132152085307600,8.5593076171875,-0.00045814894838258624,-0.0005345070967450738,0.00015271631127689034
1761132152095307800,8.569307861328125,0.0007635815418325365,0.00007635815563844517,-0.00045814894838258624
1761132152105307600,8.5793076171875,-0.0010690141934901476,-0.0005345070967450738,-0.00045814894838258624
1761132152115308500,8.58930859375,0.0007635815418325365,0.00007635815563844517,0.00015271631127689034
1761132152125308700,8.59930859375,0.00015271631127689034,0.0006872233934700489,0.00015271631127689034
1761132152135308500,8.60930859375,0.00015271631127689034,0.00007635815563844517,0.00015271631127689034
1761132152145308700,8.61930859375,0.00015271631127689034,0.00007635815563844517,-0.00045814894838258624
1761132152155308500,8.62930859375,0.00015271631127689034,0.0006872233934700489,0.0007635815418325365
1761132152165308400,8.639308349609376,-0.00045814894838258624,0.00007635815563844517,0.00015271631127689034
1761132152175308500,8.64930859375,0.00015271631127689034,0.00007635815563844517,-0.0010690141934901476
1761132152185308400,8.659308349609375,-0.0010690141934901476,0.0996473953127861,0.029474247246980667
1761132152195308500,8.66930859375,-0.00045814894838258624,0.16317738592624664,0.062460970133543015
1761132152205308400,8.679308349609375,0.0007635815418325365,0.023900102823972702,0.006261368747800589
1761132152215307800,8.689307861328125,-0.00045814894838258624,-0.06589708477258682,-0.02672535367310047
