time,seconds_elapsed,z,y,x
1761129488998402600,0.116402587890625,-0.0015068822540342808,0.00023845257237553596,0.00012576859444379807
1761129489018248400,0.13624853515625,0.003746469272300601,0.0005756088066846132,-0.0008486821316182613
1761129489038093600,0.156093505859375,-0.00012892944505438209,-0.000866033136844635,-0.00042380765080451965
1761129489057938700,0.175938720703125,-0.0003011264489032328,-0.002347132656723261,-0.00009380513802170753
1761129489077784600,0.19578466796875,-0.002098634373396635,0.001854026922956109,-0.0005113468505442142
1761129489097629400,0.21562939453125,0.0011976843234151602,-0.0007368577644228935,-0.001750030554831028
1761129489117474600,0.235474609375,-0.001965775154531002,0.0006057925056666136,-0.00031188782304525375
1761129489137320400,0.255320556640625,-0.0007822040934115648,-0.0023437386844307184,-0.0013120616786181927
1761129489157165600,0.27516552734375,0.0017008176073431969,0.0006966413930058479,0.0007241545245051384
1761129489177010400,0.295010498046875,-0.0005322739016264677,0.0006233116146177053,-0.00021213386207818985
1761129489196856600,0.314856689453125,0.00033875153167173266,-0.0015862429281696677,-0.00021305307745933533
1761129489216701400,0.334701416015625,0.0024897258263081312,-0.00009061326272785664,-0.00045755086466670036
1761129489236547600,0.354547607421875,-0.0006658558850176632,-0.0005501094274222851,0.000727643258869648
1761129489256392400,0.374392333984375,0.0013943030498921871,0.0004486560355871916,-0.0006557130254805088
1761129489276237600,0.394237548828125,-0.0001800782629288733,0.00038498127833008766,-0.0010046488605439663
1761129489296083500,0.41408349609375,0.0004479564377106726,-0.002214261097833514,0.002008205745369196
1761129489315928600,0.433928466796875,0.0016140933148562908,0.0020795506425201893,-0.00039718160405755043
1761129489335773400,0.4537734375,-0.0005087919416837394,-0.0031353416852653027,0.0011932323686778545
1761129489355619600,0.47361962890625,-0.0012192288413643837,0.0007535174954682589,0.0026845443062484264
1761129489375464400,0.49346435546875,-0.00006515550194308162,-0.0007743153255432844,-0.001871549990028143
1761129489395309600,0.5133095703125,-0.0012645031092688441,0.0013999505899846554,0.0004346170462667942
1761129489415155700,0.53315576171875,0.0008563445298932493,0.002475854242220521,0.00040369248017668724
1761129489435000600,0.55300048828125,0.000560483371373266,-0.0003086088690906763,0.00022340239956974983
1761129489454845700,0.572845703125,0.00019893556600436568,-0.00015346216969192028,0.0026937872171401978
1761129489474691600,0.592691650390625,0.001669673714786768,-0.0003949489910155535,-0.000570313073694706
1761129489494536700,0.61253662109375,-0.0006494850968010724,0.000030481722205877304,-0.001126408576965332
1761129489514382600,0.632382568359375,0.0004230636986903846,-0.00042330753058195114,-0.0022153430618345737
1761129489534227700,0.652227783203125,-0.0034556258469820023,-0.0005567350890487432,0.0033980472944676876
1761129489554072600,0.672072509765625,0.0010417788289487362,-0.00004122359678149223,0.0011142515577375889
1761129489573918500,0.69191845703125,0.0013071394059807062,-0.0016023021889850497,0.0015356875956058502
1761129489593763600,0.711763671875,-0.001347484067082405,0.0005207255017012358,0.0001025572419166565
1761129489613608700,0.731608642578125,0.001043952303007245,-0.0011523348512127995,-0.0008105821907520294
1761129489633454600,0.75145458984375,-0.00232969643548131,-0.0004111675079911947,0.002218353096395731
1761129489653299500,0.771299560546875,0.0007707462063990533,0.0005885746795684099,0.000008737202733755112
1761129489673144600,0.79114453125,0.0005475810030475259,-0.00016151880845427513,-0.00043173180893063545
1761129489692990500,0.810990478515625,0.0008204650366678834,-0.000782588729634881,-0.000442692544311285
1761129489712835600,0.830835693359375,-0.0006603212095797062,-0.00007472559809684753,0.0018860637210309505
1761129489732681500,0.850681396484375,0.0013383878394961357,-0.0010310413781553507,0.0015938268043100834
1761129489752526600,0.870526611328125,-0.002133516361936927,0.000006563263013958931,-0.000049184076488018036
1761129489772371500,0.890371337890625,0.0007283373852260411,-0.0005918557289987803,0.0001209992915391922
1761129489792217600,0.910217529296875,0.0015915750991553068,-0.000030113384127616882,-0.00006609316915273666
1761129489812062500,0.9300625,0.0007081340299919248,0.0013281849678605795,-0.00004590209573507309
1761129489831907600,0.949907470703125,-0.0008933821809478104,0.0010479826014488935,0.004593994468450546
1761129489851753500,0.96975341796875,-0.0031613665632903576,0.0018188739195466042,0.0007782680913805962
1761129489871598600,0.9895986328125,0.0010195288341492414,-0.0017861927626654506,0.0021082735620439053
1761129489891444200,1.0094443359375,0.0008159065619111061,0.0018364556599408388,0.0005729342810809612
1761129489911289000,1.0292890625,-0.002517291344702244,-0.0007579706143587828,-0.0005926266312599182
1761129489931134200,1.04913427734375,0.000678594340570271,0.0017690209206193686,0.0017105629667639732
1761129489950980000,1.06897998046875,0.001734119956381619,0.0014970668125897646,-0.0016143540851771832
1761129489970825200,1.0888251953125,0.0007987531716935337,-0.0004195708315819502,0.0000781472772359848
1761129489990670000,1.108670166015625,-0.0011617967393249273,0.001698595704510808,0.000662629958242178
1761129490010516200,1.12851611328125,0.0006675057229585946,0.0012748148292303085,-0.000547114759683609
1761129490030361000,1.148361083984375,-0.000012714066542685032,-0.004066741093993187,0.000930441077798605
1761129490050207200,1.168207275390625,0.0034451624378561974,0.00005839811637997627,0.0036905582528561354
1761129490070052000,1.188052001953125,0.00020858360221609473,-0.0009908676147460938,-0.0005014138296246529
1761129490089897200,1.207897216796875,-0.001095387851819396,-0.0005361405201256275,0.0003199297934770584
1761129490109743000,1.2277431640625,0.00024964555632323027,-0.00011691288091242313,-0.001383613795042038
1761129490129588200,1.247588134765625,-0.001296713948249817,0.002962687285616994,-0.0011806846596300602
1761129490149433000,1.26743310546875,0.0020594908855855465,-0.00003141420893371105,-0.000012569595128297806
1761129490169279000,1.287279052734375,-0.00005392514867708087,0.000109449727460742,-0.00043141329661011696
1761129490189124000,1.3071240234375,-0.0003616476315073669,0.001100296387448907,-0.0004402664490044117
1761129490208969200,1.32696923828125,-0.00037172032170929015,-0.00042530265636742115,-0.0008485685102641582
1761129490228815000,1.346815185546875,-0.00003508210647851229,0.001431934768334031,0.0003290991298854351
1761129490248660000,1.366659912109375,-0.0007206705631688237,0.0010532168671488762,0.00013631954789161682
1761129490268506400,1.38650634765625,-0.0009134798310697079,-0.0006428814958781004,-0.004377011209726334
1761129490288351000,1.40635107421875,0.0004346459172666073,-0.0012301509268581867,-0.0016321283765137196
1761129490308196000,1.426196044921875,0.0005903443088755012,0.000673837261274457,-0.002025905065238476
1761129490328042200,1.446042236328125,0.0017206857446581125,-0.0006227979902178049,0.0008363132365047932
1761129490347887400,1.465887451171875,0.00011614611139521003,-0.0008227638900279999,-0.0002704774960875511
1761129490367732200,1.485732177734375,0.0011880261590704322,0.0010068360716104507,-0.0007242932915687561
1761129490387578400,1.505578369140625,-0.0016470461850985885,0.001362052746117115,0.0012249690480530262
1761129490407423200,1.52542333984375,0.0023440103977918625,0.000524633564054966,-0.001009377185255289
1761129490427269000,1.54526904296875,0.0009719292866066098,-0.0006892923265695572,0.00009334087371826172
1761129490447114200,1.5651142578125,-0.0009518925216980278,-0.0005341563373804092,-0.0009900787845253944
1761129490466959400,1.58495947265625,-0.0011786601971834898,0.001761633437126875,-0.00010053534060716629
1761129490486805200,1.60480517578125,-0.00043509239912964404,-0.00017995131202042103,0.00033182697370648384
1761129490506650000,1.624650146484375,-0.0012564169010147452,0.0006171290297061205,0.0005034962669014931
1761129490526495200,1.6444951171875,0.0005600363365374506,-0.0008009567391127348,-0.0018057595007121563
1761129490546341000,1.664341064453125,0.0027657237369567156,0.0007603864651173353,-0.0013921605423092842
1761129490566186200,1.684186279296875,-0.00021498464047908783,-0.0008675840217620134,0.0012221927754580975
1761129490586032000,1.7040322265625,-0.00012247305130586028,0.00048741395585238934,0.0012706788256764412
1761129490605877200,1.723877197265625,0.0006962785846553743,0.0004595746286213398,0.0006393655203282833
1761129490625722000,1.74372216796875,0.0004046314861625433,-0.0019771941006183624,0.002448083832859993
1761129490645568300,1.763568359375,-0.0011650975793600082,-0.0010290256468579173,0.0009145019575953484
1761129490665413000,1.7834130859375,0.00029490626184269786,0.00011104345321655273,0.0016779457218945026
1761129490685258200,1.80325830078125,0.0009852717630565166,0.001167030306532979,-0.0027734367176890373
1761129490705104100,1.823104248046875,-0.0004953728639520705,-0.00048029422760009766,0.0016485564410686493
1761129490724949200,1.84294921875,-0.0017296703299507499,-0.0010839441092684865,-0.000829814001917839
1761129490744794000,1.862794189453125,0.0006271465099416673,0.00019423756748437881,0.0028481250628829002
1761129490764640000,1.882639892578125,-0.0006871145451441407,-0.002546352567151189,-0.0009957603178918362
1761129490784485000,1.902485107421875,0.0012240466894581914,-0.0016171479364857078,-0.0010082507506012917
1761129490804331000,1.9223310546875,0.0004700302379205823,0.0012305055279284716,-0.001237319316715002
1761129490824176000,1.942176025390625,-0.001002117176540196,0.00021722866222262383,-0.0017740731127560139
1761129490844021000,1.96202099609375,0.002378139179199934,-0.000227371696382761,0.0012334263883531094
1761129490863867400,1.981867431640625,-0.0003129574761260301,0.0020957894157618284,-0.0012662936933338642
1761129490883711700,2.001711669921875,0.0012638899497687817,-0.001132835284806788,-0.004503259435296059
1761129490903556900,2.021556884765625,0.0003532881964929402,-0.00022337539121508598,-0.0012865518219769
1761129490923402800,2.04140283203125,-0.002363089704886079,-0.0010447807144373655,-0.001966637559235096
1761129490943248000,2.061247802734375,-0.0010190090397372842,0.0016716669779270887,-0.0006654583849012852
1761129490963093800,2.08109375,0.0002760870265774429,0.0014314611908048391,0.0021795397624373436
1761129490982939000,2.10093896484375,-0.001092764432542026,0.002442719880491495,0.001395427156239748
1761129491002783700,2.12078369140625,0.0017202666494995356,0.0016626326832920313,0.00161460367962718
1761129491022629600,2.140629638671875,0.0007135759224183857,0.0011441425886005163,0.0022685546427965164
1761129491042474800,2.160474853515625,-0.0011570341885089874,-0.0001980159431695938,-0.0018490375950932503
1761129491062319900,2.18031982421875,-0.0004787546640727669,-0.00023232377134263515,0.00020010676234960556
1761129491082165800,2.200165771484375,0.0005591601366177201,0.00018194993026554585,-0.0022085909731686115
1761129491102010600,2.2200107421875,-0.0005015113856643438,-0.003334041917696595,0.0002482151612639427
1761129491121855700,2.239855712890625,0.0000894188997335732,0.0003717946819961071,-0.0027158367447555065
1761129491141701600,2.25970166015625,0.0005014085327275097,-0.001200374448671937,0.0011877110227942467
1761129491161546800,2.279546630859375,0.0009284128900617361,-0.000738904345780611,-0.0012885211035609245
1761129491181393000,2.299392822265625,-0.001087570795789361,-0.0002614010591059923,-0.0006763841956853867
1761129491201238000,2.319238037109375,-0.0018985830247402191,-0.001115917693823576,0.0004543643444776535
1761129491221082600,2.33908251953125,-0.0008149383938871324,-0.0011580806458368897,-0.0023678503930568695
1761129491240928800,2.3589287109375,0.0013108068378642201,0.0016987987328320742,-0.0003574085421860218
1761129491260774000,2.37877392578125,0.0002888200688175857,-0.001948042307049036,0.003464136039838195
1761129491280619000,2.398618896484375,-0.0008255934226326644,-0.00100075569935143,0.0007077138870954514
1761129491300465000,2.41846484375,0.002572065219283104,0.0004358578007668257,-0.0009382450953125954
1761129491320309800,2.438309814453125,0.002075432101264596,-0.003428682219237089,-0.0005903830751776695
1761129491340156000,2.458156005859375,-0.0017401690129190683,-0.0003407783806324005,0.0002992362715303898
1761129491360000800,2.478000732421875,-0.0004137367650400847,-0.0003629240673035383,-0.0013705380260944366
1761129491379846000,2.497845947265625,0.0017122523859143257,-0.0007700317073613405,0.0012444909662008286
1761129491399691800,2.51769189453125,-0.0012006181059405208,-0.00009652157314121723,0.0006337445229291916
1761129491419537000,2.537536865234375,0.001347731682471931,0.00133475661277771,0.0007869494147598743
1761129491439381800,2.5573818359375,0.0008909869939088821,-0.0002630290109664202,0.00038203131407499313
1761129491459228000,2.577227783203125,0.0005534274969249964,-0.0008985663298517466,0.00035732658579945564
1761129491479072800,2.59707275390625,-0.000060349470004439354,0.0010965410619974136,-0.0009965095669031143
1761129491498918700,2.616918701171875,0.0003428974305279553,-0.004365355707705021,0.002133019268512726
1761129491518763800,2.636763671875,-0.0006087044603191316,-0.0019145933911204338,-0.0005546463653445244
1761129491538609000,2.65660888671875,-0.001352369086816907,0.0027250952553004026,-0.0006700200028717518
1761129491558454800,2.676454833984375,-0.002051119226962328,0.0025814261753112078,0.001488665584474802
1761129491578299600,2.696299560546875,-0.0008634136756882071,-0.00023573567159473896,-0.001123872585594654
1761129491598144800,2.716144775390625,-0.0014306821394711733,0.0002202834002673626,0.00034466618672013283
1761129491617990700,2.73599072265625,0.0009382478892803192,-0.0014231428503990173,-0.000459346454590559
1761129491637835800,2.755835693359375,0.0018461889121681452,0.0005639530718326569,-0.00020662741735577583
1761129491657680600,2.7756806640625,-0.0013704729499295354,-0.0008233601693063974,-0.0002032560296356678
1761129491677526800,2.79552685546875,-0.0009104879572987556,0.0002962613943964243,0.00026649702340364456
1761129491697371600,2.81537158203125,0.001482966123148799,-0.0009205027017742395,0.0008051330223679543
1761129491717217800,2.8352177734375,0.00006566726369783282,-0.00038424646481871605,-0.001013055443763733
1761129491737062700,2.855062744140625,0.0004162494442425668,0.0011123791337013245,0.003914874978363514
1761129491756907800,2.87490771484375,0.0016043330542743206,-0.001406374853104353,-0.0024049589410424232
1761129491776754000,2.89475390625,-0.0014103073626756668,0.0002931870985776186,-0.0019163903780281544
1761129491796598800,2.914598876953125,-0.0016056566964834929,-0.00019534886814653873,-0.0019387495703995228
1761129491816443600,2.934443603515625,0.002754824236035347,-0.0006287209689617157,-0.0006473041139543056
1761129491836289800,2.954289794921875,0.0000510450336150825,0.0015618379693478346,-0.0013420283794403076
1761129491856135000,2.974135009765625,0.0020652664825320244,-0.0011251788819208741,0.001922696828842163
1761129491875980800,2.993980712890625,0.0010147109860554338,0.0003105420619249344,0.0009468733333051205
1761129491895826400,3.013826416015625,0.002575916238129139,0.0018225917592644691,-0.001391095109283924
1761129491915671300,3.03367138671875,0.0035877544432878494,-0.00035841483622789383,-0.0004907953552901745
1761129491935517200,3.05351708984375,0.002515373984351754,-0.0003719436936080456,0.0004903338849544525
1761129491955362300,3.0733623046875,-0.001448274590075016,0.00020796642638742924,0.0008093728683888912
1761129491975207400,3.09320751953125,-0.0012941436143592,-0.001828519394621253,0.0003087124787271023
1761129491995053300,3.11305322265625,0.0003460263251326978,-0.00009574019350111485,0.0005968254990875721
1761129492014898200,3.132898193359375,0.00036981445737183094,-0.0023119631223380566,0.000032464973628520966
1761129492034743300,3.152743408203125,-0.00042153382673859596,-0.0013274707598611712,0.0024928818456828594
1761129492054589200,3.172589111328125,0.0012463353341445327,0.0006423089653253555,-0.0006209653802216053
1761129492074434300,3.192434326171875,-0.003576351795345545,0.00005319761112332344,0.0003765071742236614
1761129492094280200,3.2122802734375,0.0007089205319061875,-0.00007558171637356281,-0.0009461799636483192
1761129492114125300,3.232125244140625,-0.0022909538820385933,-0.00012232642620801926,0.0006851470097899437
1761129492133970200,3.25197021484375,-0.0009964870987460017,0.0005356061737984419,0.0016761845909059048
1761129492153816300,3.27181640625,-0.0008786518592387438,0.0006548722740262747,0.0011045611463487148
1761129492173661200,3.2916611328125,-0.000051037524826824665,0.0011084747966378927,0.0014968463219702244
1761129492193506300,3.31150634765625,-0.0001283244346268475,0.00008397083729505539,0.00003315601497888565
1761129492213352200,3.331352294921875,-0.0010440436890348792,-0.0019215078791603446,0.0015554921701550484
1761129492233197300,3.351197265625,-0.00033038866240531206,0.0015006193425506353,0.0006072805263102055
1761129492253043500,3.37104345703125,0.0003200308419764042,0.00007642549462616444,-0.0010666712187230587
1761129492272888000,3.39088818359375,0.00011021213140338659,-0.00017124810256063938,-0.00016018515452742577
1761129492292733200,3.410733154296875,-0.0002652425901032984,0.0007420813199132681,0.00034069083631038666
1761129492312579300,3.430579345703125,0.000703170953784138,0.00010383338667452335,0.0016788793727755547
1761129492332424400,3.450424560546875,0.002379475859925151,-0.000642081955447793,-0.0002048807218670845
1761129492352269300,3.470269287109375,-0.000053999770898371935,-0.0028383899480104446,-0.002008075825870037
1761129492372115500,3.490115478515625,0.0033146231435239315,0.0015863117296248674,-0.00020330585539340973
1761129492391960300,3.509960205078125,-0.0006042923778295517,-0.0010047866962850094,-0.0007811975665390491
1761129492411806500,3.529806396484375,0.0005980490241199732,-0.0029175328090786934,0.000002445187419652939
1761129492431651300,3.5496513671875,0.001731660682708025,0.0007972754538059235,0.0010733520612120628
1761129492451496400,3.569496337890625,0.00038252765079960227,-0.0012170752743259072,-0.0010079322382807732
1761129492471342300,3.58934228515625,-0.000756804714910686,-0.0003891133237630129,-0.0008704219944775105
1761129492491187500,3.6091875,0.0013325696345418692,0.0024821297265589237,-0.0004837037995457649
1761129492511032300,3.6290322265625,-0.0009089622762985528,-0.001191216055303812,-0.0020943032577633858
1761129492530878200,3.648878173828125,0.0036271519493311644,-0.00006387429311871529,-0.0000071721151471138
1761129492550723300,3.668723388671875,-1.0395888239145279e-7,0.0013349899090826511,-0.0004943259991705418
1761129492570568400,3.688568359375,0.00040245603304356337,-0.0008363428059965372,-0.0001242905855178833
1761129492590414300,3.708414306640625,-0.00010710745118558407,-0.00005993596278131008,-0.0012521706521511078
1761129492610259200,3.72825927734375,-0.001212795963510871,0.0017103366553783417,-0.0008316994644701481
1761129492630105300,3.748105224609375,0.0020726302172988653,-0.0004522197414189577,0.002429862506687641
1761129492649950200,3.7679501953125,0.0005153816309757531,0.001991652650758624,0.002020156942307949
1761129492669795300,3.78779541015625,-0.0005700106266885996,-0.001318176742643118,0.0017286529764533043
1761129492689641200,3.80764111328125,-0.0016894304426386952,0.0003278094809502363,0.00120228948071599
1761129492709486300,3.827486328125,-0.0005316686583682895,-0.00233840337023139,0.0008832933381199837
1761129492729331200,3.847331298828125,-0.0013223534915596247,0.000002016546204686165,0.001817956566810608
1761129492749177300,3.86717724609375,0.0016907250974327326,0.0017170566134154797,-0.0017253640107810497
1761129492769022200,3.887022216796875,-0.0013883082428947091,0.00013002543710172176,0.0006551686674356461
1761129492788868000,3.9068681640625,0.0010632335906848311,0.0016501639038324356,-0.003230168018490076
1761129492808713200,3.926713134765625,-0.00003508874215185642,0.0006558371242135763,0.0005691847763955593
1761129492828558000,3.94655810546875,-0.0005115491803735495,0.0010707154870033264,0.0014808028936386108
1761129492848404500,3.966404541015625,0.00044305925257503986,-0.0013825162313878536,-0.0012623104266822338
1761129492868249300,3.986249267578125,-0.0022645858116447926,-0.0009467077907174826,0.0008910209871828556
1761129492888094000,4.006093994140625,-0.00042199931340292096,0.0006533719133585691,-0.0024451655335724354
1761129492907939000,4.02593896484375,-0.001027469290420413,0.0005020636599510908,-0.00020526302978396416
1761129492927785000,4.045784912109375,-0.0010268896585330367,-0.00014101178385317326,-0.0002145608887076378
1761129492947629800,4.0656298828125,0.0007239029509946704,-0.001305728917941451,-0.0003128461539745331
1761129492967476000,4.08547607421875,0.0009050457156263292,-0.0008263476192951202,-0.00040842313319444656
1761129492987320800,4.10532080078125,0.0007479057530872524,0.0008331744465976954,-0.00016806740313768387
1761129493007166000,4.125166015625,0.0003820800338871777,0.0002885134890675545,0.001415659673511982
1761129493027011800,4.14501171875,-0.0014357585459947586,-0.00006426661275327206,0.00040622660890221596
1761129493046857000,4.16485693359375,0.0011190595105290413,0.0007702033035457134,-0.0011235596612095833
1761129493066701800,4.184701904296875,-0.0006895713158883154,-0.0010353478137403727,0.0006140382029116154
1761129493086548000,4.2045478515625,0.0008451656904071569,0.0006765807047486305,0.001119561493396759
1761129493106392800,4.224392822265625,-0.0019139843061566353,-0.000452426727861166,-0.0013715908862650394
1761129493126238000,4.244238037109375,0.0004254834493622184,0.0006057864520698786,-0.00313140032812953
1761129493146083800,4.264083740234375,-0.0006791692576371133,-0.0021455870009958744,0.00038937991484999657
1761129493165929000,4.283928955078125,0.0015563932247459888,-0.0014127751346677542,0.0009599383920431137
1761129493185775000,4.303775146484375,-0.0008470285101793706,-0.00022245291620492935,-0.0024394365027546883
1761129493205619700,4.32361962890625,-0.0002410723827779293,-0.0018886954057961702,-0.0016425778158009052
1761129493225464800,4.34346484375,-0.0010675035882741213,0.0027719023637473583,0.001111827790737152
1761129493245311000,4.36331103515625,-0.000816338520962745,-0.000765075208619237,0.001521281898021698
1761129493265156000,4.383156005859375,-0.0002740041818469763,0.0000875547993928194,0.00021330779418349266
1761129493285001000,4.4030009765625,0.0011334572918713093,0.001153712859377265,-0.0008126692846417427
1761129493304847000,4.42284716796875,-0.0005150382057763636,-0.0006229225546121597,0.00013417145237326622
1761129493324693000,4.44269287109375,-0.0003637114423327148,0.0014722722116857767,-0.000674558337777853
1761129493344537900,4.462537841796875,0.00006298546213656664,-0.0012025795876979828,-0.00006613926962018013
1761129493364384000,4.482384033203125,0.0004443616489879787,-0.000172067666426301,0.0012004906311631203
1761129493384228900,4.502228759765625,-0.002397270407527685,0.00045640324242413044,-0.00235031358897686
1761129493404074000,4.522073974609375,0.0003327651647850871,0.00017661158926784992,0.0025958330370485783
1761129493423919900,4.541919921875,0.0026378980837762356,-0.0025895796716213226,0.0009778947569429874
1761129493443765000,4.561764892578125,0.0006931325769983232,0.0008985239546746016,-0.0008378955535590649
1761129493463609900,4.58160986328125,-0.001675053033977747,-0.0000842907465994358,0.00030707428231835365
1761129493483456000,4.6014560546875,0.0016180697130039334,0.00040880986489355564,0.0003995392471551895
1761129493503300900,4.62130078125,0.0024052318185567856,-0.002267135540023446,0.001614745706319809
1761129493523146800,4.641146728515625,0.0013460989575833082,-0.0006620360072702169,-0.00040919939056038857
1761129493542992000,4.660991943359375,0.00015475292457267642,-0.0007273068185895681,-0.00017467467114329338
1761129493562837000,4.6808369140625,-0.0005668755620718002,0.001045863376930356,0.0017063887789845467
1761129493582683000,4.700682861328125,0.0017649505753070116,-0.0008918526582419872,-0.0021769385784864426
1761129493602527700,4.72052783203125,-0.0032076663337647915,-0.002169110346585512,-0.0011353138834238052
1761129493622372900,4.740372802734375,0.0006336182705126703,-0.000678778626024723,0.0012290123850107193
1761129493642218800,4.76021875,0.00067305495031178,-0.002047052839770913,-0.0011341399513185024
1761129493662063900,4.78006396484375,0.00048297608736902475,-0.00023087370209395885,0.001638330053538084
1761129493681908700,4.79990869140625,-0.0010715696262195706,0.0011043611448258162,-0.0004633059725165367
1761129493701755000,4.8197548828125,0.0005631455569528043,0.0010666688904166222,-0.0017142328433692455
1761129493721599700,4.839599853515625,-0.0009278100915253162,-0.0010895589366555214,-0.0013710064813494682
1761129493741446100,4.859446044921875,0.0015117557486519217,-0.003292149631306529,-0.0015876912511885166
1761129493761291000,4.879291015625,-0.0003270940505899489,-0.000777701148763299,-0.0030178362503647804
1761129493781136100,4.89913623046875,0.0013421416515484452,-0.0009165001101791859,-0.0018377532251179218
1761129493800982000,4.91898193359375,-0.0004500309587456286,-0.00025649555027484894,-0.00015292875468730927
1761129493820827000,4.938826904296875,-0.002225765958428383,-0.0002739646006375551,-0.0016568321734666824
1761129493840673000,4.958673095703125,0.0006696984055452049,0.0001976597122848034,-0.0016364227049052715
1761129493860518000,4.978517822265625,0.00027782126562669873,-0.00045187980867922306,0.0002359570935368538
1761129493880363000,4.998363037109375,-0.0006802048301324248,0.00006081536412239075,-0.0017205774784088135
1761129493900209000,5.018208984375,-0.00033936998806893826,-0.0010957055492326617,0.0012891562655568123
1761129493920054000,5.038053955078125,-0.002681414596736431,0.0009843430016189814,0.002677177544683218
1761129493939899000,5.05789892578125,-0.0018428810872137547,0.0015443882439285517,-0.0002179550938308239
1761129493959745000,5.0777451171875,0.0003494001575745642,-0.0014103251742199063,0.0010074661113321781
1761129493979590000,5.09758984375,-0.00003212440060451627,0.00021170033141970634,0.0020264675840735435
1761129493999435000,5.11743505859375,0.000727673526853323,0.0005302431527525187,0.00017180107533931732
1761129494019281000,5.137281005859375,0.0009863877203315496,-0.0006231367588043213,-0.0029339734464883804
1761129494039126000,5.1571259765625,0.001962806098163128,0.0009790468029677868,-0.0022325185127556324
1761129494058972000,5.176971923828125,0.001738314051181078,-0.000014103716239333153,-0.00238594738766551
1761129494078816800,5.196816650390625,-0.002305493922904134,0.0003696486819535494,0.0013908324763178825
1761129494098662000,5.216661865234375,-0.00223115854896605,-0.0002519339323043823,-0.0023282249458134174
1761129494118507800,5.2365078125,0.0007925773970782757,0.0017806973773986101,-0.000168586615473032
1761129494138353000,5.256352783203125,-0.0017384153325110674,-0.000032733893021941185,-0.00304071931168437
1761129494158197800,5.27619775390625,0.0006117476150393486,-0.0007497137412428856,0.0017502428963780403
1761129494178044000,5.2960439453125,0.0006469891523011029,0.0006083280313760042,0.0002793767489492893
1761129494197888800,5.315888671875,-0.0003060301532968879,0.00013830536045134068,-0.0023828051052987576
1761129494217734000,5.33573388671875,-0.0005255123833194375,-0.001142986468039453,0.00009451061487197876
1761129494237579800,5.355579833984375,0.00039844639832153916,0.0016003691125661135,0.0026906849816441536
1761129494257425000,5.3754248046875,0.0005730075063183904,-0.0006740360986441374,0.0004146951250731945
1761129494277271000,5.39527099609375,-0.0014855624176561832,0.0017939198296517134,0.0013144249096512794
1761129494297116200,5.4151162109375,0.0014537294628098607,-0.0007221742998808622,-0.0016085533425211906
1761129494316960800,5.434960693359375,0.0013179839588701725,-0.0009831760544329882,0.0011338056065142155
1761129494336807000,5.454806884765625,-0.0017982127610594034,0.00020423601381480694,0.0016167550347745419
1761129494356652000,5.474652099609375,-0.0023326503578573465,-0.00042132078669965267,-0.0019009876996278763
1761129494376497200,5.4944970703125,0.0012599757174029946,0.0006503593176603317,-0.0017122123390436172
1761129494396343000,5.514343017578125,0.003639756701886654,-0.0005506379529833794,-0.0028717475943267345
1761129494416188000,5.53418798828125,-0.00042788381688296795,-0.0023074299097061157,-0.00016532652080059052
1761129494436034000,5.554033935546875,-0.001818230259232223,-0.00005282578058540821,0.000747037585824728
1761129494455879000,5.57387890625,-0.0022980906069278717,0.00012943032197654247,0.00021309731528162956
1761129494475724000,5.59372412109375,0.0007804909255355597,0.000036181649193167686,0.00016369903460144997
1761129494495570000,5.61356982421875,-0.0003059589071199298,-0.000031763920560479164,0.0016833101399242878
1761129494515415000,5.6334150390625,0.0002062399871647358,0.001462386455386877,-0.00044724904000759125
1761129494535260000,5.653260009765625,-0.00041339168092235923,0.0005850759334862232,-0.0010072998702526093
1761129494555106000,5.67310595703125,-0.002025597495958209,-0.0005406418349593878,0.0007797102443873882
1761129494574951000,5.692950927734375,-0.0023351542185992002,0.0003573016729205847,0.0012787263840436935
1761129494594796000,5.712796142578125,0.0015595084987580776,-0.001776035875082016,0.003921622410416603
1761129494614642000,5.732641845703125,0.0011907224543392658,0.0017122661229223013,-0.0014243954792618752
1761129494634487000,5.752487060546875,-0.00022652087500318885,0.002034867648035288,0.0009499434381723404
1761129494654333000,5.7723330078125,0.0012900367146357894,-0.0006705753039568663,0.00021102791652083397
1761129494674177800,5.792177734375,0.001096024876460433,0.0005390914157032967,0.002414533868432045
1761129494694023000,5.81202294921875,-0.0010024375515058637,0.0008842423558235168,-0.0016932650469243526
1761129494713868800,5.831868896484375,0.002575776306912303,0.0004550325684249401,0.0012077651917934418
1761129494733714000,5.8517138671875,0.0022476580925285816,0.0021253698505461216,-0.0008335900492966175
1761129494753558800,5.871558837890625,-0.00009952409891411662,0.00080732605420053,-0.0010726558975875378
1761129494773405000,5.891405029296875,0.0001669774646870792,0.00017914664931595325,0.0016575129702687263
1761129494793249800,5.911249755859375,-0.000250775134190917,-0.00032136961817741394,0.0003443583846092224
1761129494813096000,5.931095947265625,-0.000963266589678824,0.0005349633283913136,-0.0006792787462472916
1761129494832940800,5.95094091796875,0.0002955932868644595,0.0009900641161948442,-0.0005348986014723778
1761129494852786000,5.970785888671875,-0.0008284686482511461,-0.00033457158133387566,0.000841531902551651
1761129494872632000,5.990632080078125,-0.0023608659394085407,0.0011387481354176998,0.0016128192655742168
1761129494892477000,6.010476806640625,-0.00117065804079175,0.0024320026859641075,-0.00023200782015919685
1761129494912321800,6.03032177734375,-0.0017206862103193998,-0.001163595705293119,0.0011705774813890457
1761129494932168000,6.05016796875,-0.00006554747233167291,0.0009723538532853127,0.0006181914359331131
1761129494952013000,6.070012939453125,0.0019638817757368088,-0.0002371189184486866,0.0008490798063576221
1761129494971858000,6.08985791015625,-0.0023077488876879215,-0.0003076591528952122,-0.00036406703293323517
1761129494991704000,6.1097041015625,0.0014990696217864752,0.0015692904125899076,0.0026069371961057186
1761129495011549000,6.129548828125,0.00037147500552237034,-0.0008357989136129618,-0.00018822355195879936
1761129495031395000,6.14939501953125,-0.0015149670653045177,-0.00011062994599342346,0.0012405184097588062
1761129495051240000,6.169239990234375,0.0026606651954352856,0.0015403053257614374,-0.00008299434557557106
1761129495071085000,6.1890849609375,0.0009115365101024508,0.0003890516236424446,-0.002162698656320572
1761129495090931000,6.208930908203125,0.0026058501098304987,-0.0004940428771078587,-0.0011065714061260223
1761129495110776000,6.228776123046875,0.0005666008801199496,-0.0005872747860848904,-0.000188563484698534
1761129495130621000,6.248620849609375,0.0012810290791094303,0.00046361424028873444,0.001104394905269146
1761129495150466800,6.268466796875,0.0000072232214733958244,-0.0002806223928928375,-0.0010765204206109047
1761129495170312000,6.28831201171875,0.0007655764929950237,0.0015335706993937492,0.0003071068786084652
1761129495190157000,6.308156982421875,-0.001862250966951251,0.00006602145731449127,-0.004271804355084896
1761129495210003000,6.3280029296875,0.000883840024471283,-0.0000228190328925848,0.000478905625641346
1761129495229847800,6.347847900390625,-0.002346992725506425,0.0011396778281778097,-0.0008024317212402821
1761129495249694000,6.36769384765625,-0.0002459419774822891,0.0001725971233099699,0.0001334487460553646
1761129495269538800,6.387538818359375,0.0012566449586302042,-0.00007624761201441288,0.0004493584856390953
1761129495289384000,6.407384033203125,0.000354680756572634,0.0006423161830753088,0.0035745713394135237
1761129495309229800,6.427229736328125,0.00039296806789934635,0.001187852118164301,0.0002763383090496063
1761129495329075000,6.447074951171875,0.0015441648429259658,0.00158015638589859,-0.0006859246641397476
1761129495348919800,6.466919921875,-0.0015337406657636166,0.0011267215013504028,-0.001523330807685852
1761129495368766000,6.486765869140625,-0.0013371830573305488,0.0003406926989555359,0.0032821267377585173
1761129495388610800,6.50661083984375,0.0011808127164840698,0.003594949608668685,0.000803838949650526
1761129495408456000,6.5264560546875,-0.0015980094904080033,0.0005549793131649494,0.0009925216436386108
1761129495428301800,6.5463017578125,-0.0023025295231491327,-0.00198110262863338,0.0013835392892360687
1761129495448147000,6.56614697265625,-0.0010274735977873206,0.0004854185972362757,0.0013394039124250412
1761129495467993000,6.5859931640625,0.0027267388068139553,0.00018401420675218105,-0.0011659744195640087
1761129495487838000,6.605837890625,-0.00010757398558780551,0.0023348566610366106,0.0013766675256192684
1761129495507683000,6.62568310546875,-0.0006169245461933315,-0.00006501679308712482,0.0005788891576230526
1761129495527529000,6.645529052734375,-0.001498260535299778,0.0030175696592777967,0.0005506416782736778
1761129495547374000,6.6653740234375,-0.0012342194095253944,-0.0018785529537126422,0.0016852491535246372
1761129495567219000,6.685218994140625,0.00007223023567348719,-0.0011170234065502882,-0.003008063416928053
1761129495587065000,6.705065185546875,-0.0010653777280822396,-0.002212607767432928,-0.0016572964377701283
1761129495606910000,6.724909912109375,0.0017091252375394106,-0.00008570495992898941,0.00034681474789977074
1761129495626755800,6.744755859375,0.0008746391977183521,0.0009721443057060242,-0.00015393225476145744
1761129495646601000,6.76460107421875,-0.0002293810830451548,-0.0009881570003926754,-0.00016381405293941498
1761129495666446000,6.784446044921875,-0.0004065539105795324,-0.0010614979546517134,-0.0010784021578729153
1761129495686292000,6.8042919921875,-0.0004924573004245758,-0.0013766228221356869,-0.0016426038928329945
1761129495706136800,6.82413671875,0.0004102039383724332,0.0008133754599839449,-0.00013495981693267822
1761129495725982000,6.84398193359375,-0.0015420261770486832,-0.0010896263411268592,0.0018293457105755806
1761129495745827800,6.863827880859375,0.0027343416586518288,0.0019456574227660894,-0.0003045685589313507
1761129495765673000,6.8836728515625,-0.001218678429722786,0.00130833825096488,-0.0025672251358628273
1761129495785517800,6.903517822265625,0.00010440294863656163,0.0013078029733151197,-0.0037192986346781254
1761129495805364000,6.923364013671875,-0.00015262863598763943,0.0003975371364504099,0.00038644205778837204
1761129495825208800,6.943208740234375,0.0011826432310044765,0.0021336290519684553,0.0009383046999573708
1761129495845055000,6.963054931640625,-0.0010483463993296027,0.0008229569066315889,-0.0014110119082033634
1761129495864899800,6.98289990234375,0.0024891861248761415,-0.000017754267901182175,-0.002604686189442873
1761129495884745500,7.002745361328125,-0.0013289323542267084,-0.0018549291417002678,-0.0007414715364575386
1761129495904591600,7.022591552734375,-0.0008808691636659205,-0.00039519835263490677,-0.0022657550871372223
1761129495924436500,7.0424365234375,0.0009227351401932538,-0.0012390424963086843,-0.0013029011897742748
1761129495944281600,7.062281494140625,-0.0013102872762829065,-0.0001932019367814064,0.0022234702482819557
1761129495964127500,7.08212744140625,-0.0017664609476923943,0.001089458353817463,-0.0018918858841061592
1761129495983972600,7.10197265625,0.0007967863930389285,-0.00029272143729031086,0.00020675035193562508
1761129496003817500,7.1218173828125,0.0002016508369706571,-0.0003609051927924156,0.0010275067761540413
1761129496023663600,7.14166357421875,0.0005874338676221669,0.0019167342688888311,-0.000016030389815568924
1761129496043508500,7.161508544921875,0.0019866216462105513,-0.0009187031537294388,0.0025356903206557035
1761129496063354400,7.181354248046875,-0.0013100133510306478,0.0001933078747242689,0.001892853993922472
1761129496083199500,7.201199462890625,0.0009428914054296911,0.0005712567362934351,-0.0013195662759244442
1761129496103044600,7.221044677734375,0.0005980945425108075,-0.0004801475442945957,-0.0024212473072111607
1761129496122890500,7.240890380859375,-0.0018426841124892235,0.0006946676876395941,0.0016425186768174171
1761129496142735400,7.2607353515625,0.0006191659485921264,0.000011006835848093033,-0.00014745816588401794
1761129496162580500,7.28058056640625,0.0000706531573086977,-0.000618211692199111,0.001225931104272604
1761129496182426400,7.30042626953125,-0.002498890273272991,0.000161866657435894,0.0015101367607712746
1761129496202271500,7.320271484375,0.0011908721644431353,-0.0014579934068024158,-0.0007760226726531982
1761129496222117600,7.34011767578125,0.0016108460258692503,-0.0011303374776616693,0.0015627243556082249
1761129496241962500,7.35996240234375,0.0005052745109423995,-0.0017653254326432943,-0.00039666518568992615
1761129496261807400,7.379807373046875,0.0018697690684348345,-0.0015360298566520214,-0.0015861173160374165
1761129496281653800,7.39965380859375,0.0011787235271185637,0.001220467733219266,-0.00031975796446204185
1761129496301498600,7.41949853515625,-0.00010688719339668751,0.00021506124176084995,-0.000014774966984987259
1761129496321343700,7.43934375,-0.00028955069137737155,0.0015965569764375687,-0.00036742957308888435
1761129496341189600,7.459189697265625,-0.0013655861839652061,0.001691152574494481,-0.000149609986692667
1761129496361034800,7.47903466796875,0.0001228106557391584,0.0006877942942082882,-0.0009030657820403576
1761129496380879600,7.498879638671875,-0.0001776427961885929,0.0018101537134498358,-0.0008725309744477272
1761129496400725500,7.5187255859375,-0.0015172187704592943,-0.001046721707098186,-0.0015625590458512306
1761129496420570600,7.538570556640625,0.00149469543248415,0.0026901070959866047,0.0011973120272159576
1761129496440416500,7.55841650390625,0.0024707799311727285,0.001267183804884553,-0.00006236415356397629
1761129496460261600,7.57826171875,-0.001479094848036766,0.002713350113481283,0.00011868076398968697
1761129496480106500,7.5981064453125,-0.0014386390103027225,-0.0001278216950595379,0.00018783891573548317
1761129496499952600,7.61795263671875,-0.0018763665575534105,-0.0006154633592814207,-0.00011761439964175224
1761129496519797500,7.637797607421875,0.000005311972927302122,-0.00007723178714513779,0.0009077419526875019
1761129496539642600,7.657642578125,0.00012617401080206037,-0.00043729646131396294,-0.0004500322975218296
1761129496559488500,7.677488525390625,-0.00039023993303999305,-0.0007385811768472195,0.0023642973974347115
1761129496579333600,7.697333740234375,0.0015709016006439924,-0.0009490790544077754,-0.0017571840435266495
1761129496599178500,7.717178466796875,0.0000751196057535708,0.0009729303419589996,0.0005249460227787495
1761129496619024600,7.737024658203125,-0.0012081980239599943,0.0002790589351207018,0.0005837627686560154
1761129496638869500,7.756869384765625,0.0003704531700350344,0.000799049623310566,-0.001479379367083311
1761129496658715400,7.77671533203125,-0.0015038922429084778,-0.0006196252070367336,-0.00034488877281546593
1761129496678560500,7.796560546875,-0.001440951251424849,0.0006232440937310457,0.0016369451768696308
1761129496698405600,7.816405517578125,-0.00022247899323701859,-0.0005037086084485054,0.0005338978953659534
1761129496718251500,7.83625146484375,-0.0004696699033956975,-0.0000685655977576971,-0.0011301320046186447
1761129496738096400,7.856096435546875,0.0008774703019298613,-0.0009069694206118584,-0.0010945824906229973
1761129496757941500,7.87594140625,0.0009639990166760981,-0.0009609052212908864,-0.002177989110350609
1761129496777787400,7.895787353515625,-0.0017495478969067335,-0.00027858023531734943,0.001388713251799345
1761129496797632500,7.915632568359375,0.0011977546382695436,-0.0021520964801311493,0.00008508050814270973
1761129496817477400,7.935477294921875,-0.0017244326882064342,-0.0011884277919307351,-0.0012277248315513134
1761129496837323800,7.95532373046875,0.0027113850228488445,0.00046195718459784985,-0.0010107364505529404
1761129496857168400,7.97516845703125,0.0006187640246935189,0.001864690100774169,0.0005455939099192619
1761129496877013500,7.995013427734375,0.0004978666547685862,0.0027313849423080683,0.0011034528724849224
1761129496896857600,8.014857666015626,-0.00091741286450997,-0.0013334016548469663,0.0006293598562479019
1761129496916703500,8.034703369140624,0.0008849485893733799,0.0013342283200472593,0.0011614495888352394
1761129496936548400,8.05454833984375,-0.0007089736755006015,0.0002778954803943634,-0.0003447909839451313
1761129496956393500,8.0743935546875,-0.002417268930003047,-0.00027354341000318527,-0.0007036803290247917
1761129496976239400,8.0942392578125,-0.001140734413638711,0.0009071957319974899,0.0015604402869939804
1761129496996084500,8.11408447265625,-0.00018573628040030599,-0.002308871131390333,-0.0007172725163400173
1761129497015929300,8.133929443359374,0.0023811799474060535,0.002320593921467662,-0.0024786884896457195
1761129497035775500,8.153775390625,-0.0006845906027592719,0.0005268652457743883,-0.0007983231917023659
1761129497055620400,8.173620361328124,-0.00027329783188179135,-0.0010170000605285168,-0.0001576058566570282
1761129497075466500,8.193466552734375,0.0025301543064415455,0.00011191819794476032,0.0006035985425114632
1761129497095311400,8.213311279296875,-0.0004056161851622164,0.00035118707455694675,0.002313460223376751
1761129497115156500,8.233156494140625,0.0012075458653271198,0.0004980133380740881,-0.0011509926989674568
1761129497135002400,8.25300244140625,0.0007116200285963714,0.00030506239272654057,0.0017931507900357246
1761129497154847500,8.272847412109375,0.000709963554982096,-0.00032606907188892365,-0.003523660358041525
1761129497174692400,8.2926923828125,-0.00013368920190259814,-0.0008661267347633839,0.0010216915979981422
1761129497194538200,8.312538330078125,0.0005157688865438104,-0.0008143121376633644,-0.0017052697949111462
1761129497214383400,8.33238330078125,0.0012193504953756928,-0.00019006570801138878,0.00019831396639347076
1761129497234228500,8.352228515625,0.0004835430299863219,0.0013511499855667353,-0.0006312187761068344
1761129497254074600,8.37207470703125,-0.000850779062602669,-0.0012485496699810028,-0.00029741693288087845
1761129497273919500,8.39191943359375,0.0014372466830536723,0.0011124452576041222,0.0013768901117146015
1761129497293765600,8.411765625,-0.002569925505667925,0.0015083500184118748,-0.00201073894277215
1761129497313611500,8.431611572265625,0.00023632484953850508,-0.0009410134516656399,0.001556056085973978
1761129497333456600,8.45145654296875,-0.0008524145232513547,0.0025401858147233725,-0.0004658675752580166
1761129497353301500,8.471301513671875,-0.002328241243958473,0.00020013749599456787,-0.0009390558116137981
1761129497373147400,8.4911474609375,0.0003400556743144989,0.00016236770898103714,0.0016009099781513214
1761129497392992500,8.510992431640625,0.0020680075976997614,-0.0007009243126958609,0.0005248095840215683
1761129497412837600,8.530837646484375,0.0003197576152160764,-0.0009716178756207228,-0.0011185882613062859
1761129497432683500,8.55068359375,-0.001324303331784904,0.0002932874485850334,-0.00109441252425313
1761129497452528400,8.5705283203125,0.0005404053954407573,-0.001008040038868785,-0.00044454867020249367
1761129497472373500,8.59037353515625,0.00032102956902235746,-0.00043225078843533993,0.000717521645128727
1761129497492219400,8.610219482421876,-0.002634802833199501,-0.0002472563646733761,-0.002282134722918272
1761129497512064500,8.630064453125,0.0014368457486853004,-0.001411549048498273,0.0012477925047278404
1761129497531910400,8.649910400390626,0.0001612333580851555,0.0016671044286340475,0.0014118766412138939
1761129497551755500,8.669755615234376,0.00032961240503937006,-0.0028709752950817347,0.0016817552968859673
