time,seconds_elapsed,z,y,x
1761133512837038600,0.07603857421875,-0.0076589903205633155,0.08224822122827172,0.16663104333244264
1761133512856885500,0.095885498046875,-0.07038695691227913,0.13261091950461268,0.05703158158101141
1761133512876732400,0.115732421875,-0.21547113515138624,0.2221265013873577,0.10239493720009922
1761133512896579600,0.13557958984375,-0.2703039645791054,0.24969196918308734,0.06729432465918361
1761133512916426500,0.155426513671875,-0.18690145874917505,0.2226861810967326,0.04395856685508042
1761133512936272400,0.1752724609375,0.03175239809155464,0.18661138976141808,0.029564605723693967
1761133512956119600,0.19511962890625,0.08952595714628696,0.1493060337178409,-0.0005526654466986656
1761133512975966500,0.214966552734375,0.04123451218605041,0.15242577317357062,0.02025119925960898
1761133512995813400,0.2348134765625,-0.12357085008919239,0.13372282626926899,0.010876417997106909
1761133513015660500,0.25466064453125,-0.08173603392243385,-0.02316372570544481,-0.022408377293497324
1761133513035506400,0.27450634765625,0.030343700337409973,-0.11549991796687245,-0.10945197957213967
1761133513055353300,0.294353271484375,0.11044950270950793,-0.12543912817910313,-0.12466080075036734
1761133513075200500,0.314200439453125,-0.06577624824643134,-0.10370236653685569,0.03000087824910879
1761133513095047400,0.33404736328125,-0.28577216734588146,-0.04585398868024349,0.1487633782085031
1761133513114894300,0.353894287109375,-0.3215788092643022,0.11233707002177834,0.1882674498727545
1761133513134740500,0.373740478515625,-0.3614806115418672,0.2504552086405456,0.20317502308208493
1761133513154587400,0.39358740234375,-0.40753333766460415,0.38750630254969,0.23019531461782752
1761133513174434300,0.413434326171875,-0.5232622420817613,0.5135756914563476,0.22522936277352273
1761133513194281200,0.43328125,-0.6664999156713486,0.48892070427983997,0.21795162685550748
1761133513214129000,0.45312890625,-0.4857499652892351,0.5158534271299838,0.20404406100157646
1761133513233975300,0.472975341796875,-0.38342999302148817,0.3944496919468045,0.19762498773951082
1761133513253822200,0.492822265625,-0.5781961937963962,0.381832933088392,-0.038922216655686494
1761133513273669000,0.512669189453125,-0.6553349630564451,0.3536559092655778,0.09434829926881938
1761133513293516000,0.53251611328125,-1.1572200705885887,0.2915836301036179,-0.01082951011545956
1761133513313363200,0.55236328125,-1.2023521747350692,0.1713625288337469,-0.039674423262476916
1761133513333210000,0.572210205078125,-1.187197275701165,0.04307195674628019,-0.1069596512997523
1761133513353056000,0.592055908203125,-1.203186287471652,-0.1306897421836853,-0.10950913485316559
1761133513372903200,0.611903076171875,-1.443689572548866,-0.14086363793462514,-0.05479282621089369
1761133513392750000,0.63175,-1.875791534280777,-0.0969279039658606,0.03401665322910994
1761133513412597200,0.65159716796875,-2.2083605241149664,0.02820069695934653,0.16036674050698055
1761133513432444200,0.671444091796875,-2.3812667752593755,-0.004230696372315287,0.24253506489945575
1761133513452290000,0.6912900390625,-2.3340993658930063,-0.07757387274168431,0.11044667143160476
1761133513472137000,0.711136962890625,-2.4659546447247265,-0.2073703193474561,-0.14828984241262078
1761133513491984100,0.730984130859375,-2.297213696566224,-0.40207565678060053,-0.426549661367014
1761133513511831000,0.7508310546875,-2.0242863977462053,-0.570564968265593,-0.6529715218607336
1761133513531678000,0.770677978515625,-2.0029858355641363,-0.6485799358382821,-0.9340447177354246
1761133513551524000,0.790524169921875,-1.847609395891428,-0.7678709897164255,-0.9377529246035963
1761133513571371000,0.81037109375,-1.2198007376641034,-0.9002920126721262,-0.709537312560901
1761133513591218000,0.830218017578125,0.9520727610528469,-1.1057615398995577,-0.8434389294631779
1761133513611065000,0.850065185546875,7.09910778209269,-1.4835501660332082,-0.8149437796019017
1761133513630912000,0.869912109375,12.613180415403843,-0.6825571703724562,0.5423176922181621
1761133513650758100,0.889758056640625,13.266181382554768,1.7096232130892575,0.971880746589601
1761133513670605000,0.90960498046875,13.59136026213765,2.974787379437685,1.7974663317151367
1761133513690452200,0.9294521484375,15.940947704541681,3.307210823321342,2.0918498216703534
1761133513710299100,0.949299072265625,16.774900282126666,2.582173670746386,1.3896024469219148
1761133513730146000,0.96914599609375,13.812725716024637,2.3995260700494048,0.5937651900565252
1761133513749992200,0.9889921875,8.119753728634118,1.638015920601785,0.6016437779445201
1761133513769839000,1.008839111328125,2.0796002886891363,0.6539929007977247,0.10624339278917759
1761133513789686000,1.02868603515625,-3.4934009189307687,-0.47857422844097014,-0.7831825406167656
1761133513809533200,1.048533203125,-7.315340549266338,-1.90907114193961,-0.8832563413929194
1761133513829380000,1.068380126953125,-9.500703059631585,-2.798761534968018,-1.5281782661803065
1761133513849226000,1.08822607421875,-11.193170993649959,-3.894603884530067,-2.0999765756331383
1761133513869073200,1.1080732421875,-12.416457235342264,-3.9076825618118045,-2.5421418123483654
1761133513888920000,1.127920166015625,-12.90824706531763,-3.203533591225743,-3.020772301021218
1761133513908767000,1.14776708984375,-12.751578832268715,-2.0192408047944306,-3.3867867566004395
1761133513928614100,1.1676142578125,-11.649410202294588,-1.8609630907222627,-3.1477713719934224
1761133513948461000,1.1874609375,-9.505217906707525,-2.5297563780277965,-2.2347775525279343
1761133513968307000,1.207306884765625,-7.5909291762501,-2.705743059530854,-1.6447683174714445
1761133513988154000,1.227154052734375,-6.757300423792004,-2.1643131464652714,-1.5060273707792162
1761133514008001000,1.2470009765625,-6.506226060339808,-1.3406700737096369,-0.6206576174288988
1761133514027848000,1.266847900390625,-6.681900607153773,-0.004266133011877536,0.2564817754536867
1761133514047695000,1.286695068359375,-4.886250531080365,1.0359655346177519,0.1394401810027659
1761133514067541200,1.306541259765625,2.0239374381780624,0.8707187121853232,0.7909720254492014
1761133514087388200,1.32638818359375,8.098035233300925,2.380634468705207,0.7337250475518405
1761133514107235000,1.346235107421875,11.968262216943502,-2.8389965147227048,-0.31573282318245616
1761133514127082000,1.36608203125,5.828831825688481,-5.33710570859909,-1.331656892301142
1761133514146929200,1.38592919921875,2.702221899667382,1.3536435370512305,2.761887848339975
1761133514166775000,1.405775146484375,7.576895390200614,3.4041713143825527,0.047749885429441925
1761133514186622200,1.425622314453125,9.014698827320336,4.205534458529949,2.9653038040384647
1761133514206468900,1.44546875,8.352840015453099,4.261486355115473,0.9342365870457142
1761133514226315800,1.465315673828125,7.11626583764255,4.1118788542330265,0.06827222978062927
1761133514246162700,1.48516259765625,7.926250095140934,3.3578006083518264,-0.80716751957722
1761133514266008600,1.505008544921875,6.083977968624234,2.4296476520687342,-1.76146080622375
1761133514285855700,1.524855712890625,2.4131430919915435,1.1961425064399838,-0.8949606615815311
1761133514305702700,1.54470263671875,-1.3117770105719566,-0.17513459471836684,-0.3146953698934987
1761133514325549800,1.5645498046875,-3.8383518359541893,-0.7547538801204413,-0.42287184963710606
1761133514345396700,1.584396728515625,-5.908968607720732,-1.2996303534433244,-0.15825542917512356
1761133514365242600,1.60424267578125,-6.914016587635874,-1.5874126915678382,-0.07617354095708578
1761133514385089500,1.624089599609375,-6.346224883475899,-1.4543812085635959,-0.005270451216213405
1761133514404936700,1.643936767578125,-4.523526056957245,-1.377529731812328,-0.5232658588109538
1761133514424783600,1.66378369140625,-2.7586954820394514,-1.4448163846217095,-0.9281306713860481
1761133514444630500,1.683630615234375,-2.627666717159748,-1.2728911073386668,-0.7539591495461762
1761133514464477000,1.703476806640625,-3.4299896462500095,-1.050703231152892,-0.1593120620885864
1761133514484323800,1.72332373046875,-4.226673692670464,-1.0054200280979275,0.11889650160260498
1761133514504170800,1.743170654296875,-3.682775489795208,-0.9992119672380387,0.27990247159488496
1761133514524018000,1.763017822265625,-1.860147390425205,-1.100170734155178,0.9782187174394726
1761133514543864800,1.78286474609375,-0.4615145186990499,-1.2626944152340291,1.0755625087298453
1761133514563710700,1.802710693359375,-0.8697504516750574,-0.8764848014313728,0.5200643593559041
1761133514583558000,1.822557861328125,-2.80465176205039,0.27832559593329204,0.4136591636011377
1761133514603404800,1.84240478515625,-4.231098523375391,1.3503556014217435,0.4372334794014692
1761133514623251700,1.862251708984375,-1.8336054204583168,1.6818246671900152,0.5895364299129694
1761133514643099000,1.882098876953125,3.5299627631306647,1.3594602605059742,-0.7348224143344908
1761133514662944800,1.90194482421875,8.186074751281739,0.9355692238889634,-1.9984614900074897
1761133514682791700,1.921791748046875,10.891361299216747,0.19502006593812257,-0.39036757373232395
1761133514702638600,1.941638671875,11.692326968479156,-0.48831915819011623,0.671296648428589
1761133514722485800,1.96148583984375,12.953296167355775,-0.3715575131917372,-0.09646189388930797
1761133514742332700,1.981332763671875,15.167938548219203,0.5889178596232086,-0.6054696929082274
1761133514762178600,2.001178466796875,17.039240954387186,0.5936040812106803,-1.205366188794002
1761133514782025700,2.021025634765625,16.782472178685666,0.17238454709155485,-0.8598675747599452
1761133514801872600,2.04087255859375,11.886701539587975,-0.18865520708132535,-0.35477636466287077
1761133514821719600,2.060719482421875,6.645833268472552,-0.7328261259507387,0.21602190090194343
1761133514841566700,2.080566650390625,1.0048124175935984,-1.3170572890624404,0.5474640786632895
1761133514861412900,2.100412841796875,-4.587686102178693,-1.4193506655842065,0.28343619867898523
1761133514881259800,2.120259765625,-8.979998685339092,-1.9925114955618977,0.24634346247278152
1761133514901107000,2.14010693359375,-11.641085441541671,-1.758825781545043,0.40631694761216636
1761133514920953900,2.159953857421875,-13.450707928866148,-1.2688858172200619,0.5848536058589816
1761133514940800800,2.17980078125,-14.644542450624703,-0.5647596429876983,0.7341554017931222
1761133514960646700,2.199646728515625,-15.043989512467384,-0.4129476177982986,0.12086436760947107
1761133514980493800,2.219493896484375,-14.634783273154497,-0.6047118602782487,-0.8393792788088321
1761133515000340700,2.2393408203125,-13.621361432647705,-1.3141720890149473,-1.1967474865958094
1761133515020187600,2.259187744140625,-10.88533137140274,-2.217027522434294,-1.327265817735344
1761133515040034800,2.279034912109375,-9.017482905080914,-2.606059865507483,-1.4040354614220558
1761133515059880700,2.298880615234375,-7.293510410252213,-2.597255504544079,-1.3574530123367905
1761133515079727600,2.3187275390625,-5.787303298991918,-2.649130945470929,-1.3031116196878254
1761133515099574800,2.33857470703125,-4.636372683936357,-2.275177659716457,-0.11405066900663077
1761133515119421700,2.358421630859375,-4.195487696290016,-1.2129207688920198,0.36730990221723914
1761133515139268600,2.3782685546875,-2.3072242184489964,0.38284145254380997,0.6236440128285438
1761133515159114800,2.39811474609375,4.134280655655265,1.6540429262951015,2.4556451398953794
1761133515178961700,2.417961669921875,10.42251161532402,0.9841625013399868,-0.6901769977264106
1761133515198808600,2.43780859375,9.25490283719003,-6.369242770969867,-2.4751681710109112
1761133515218655200,2.4576552734375,6.6764779975831505,-0.22800744918473065,-0.04740554723748937
1761133515238502100,2.477502197265625,10.495672713124751,-0.6749637195687741,-0.82471720479317
1761133515258349300,2.497349365234375,11.15088901823759,-0.12866799056511372,1.6796179509259759
1761133515278195500,2.517195556640625,9.847648365342616,0.7941436412226408,0.5291667168851941
1761133515298042400,2.53704248046875,7.530052390483021,2.0326362929403783,0.1847685383737087
1761133515317889300,2.55688916015625,6.422378148829937,1.851253597612679,0.12489044478777796
1761133515337736400,2.576736328125,5.969578851506114,1.5501393380977213,-0.8658664498485624
1761133515357583400,2.596583251953125,4.816643910890817,0.6459907230626791,-1.1467943920336663
1761133515377429200,2.61642919921875,2.101994491326809,-0.37989728885069485,-0.9636083736110478
1761133515397276400,2.6362763671875,-1.6647475679218768,-0.6331264922492206,-0.2996700155233964
1761133515417123300,2.656123291015625,-5.223149074551463,-0.07851765639781952,0.5470976565036922
1761133515436970200,2.67597021484375,-7.203128128537535,0.6602784838732332,0.7044236958742142
1761133515456817400,2.6958173828125,-7.505079861789941,0.8880361960805953,0.4492539528671652
1761133515476663300,2.715663330078125,-5.659475960502028,0.7989537449181079,0.5730880570024252
1761133515496510200,2.73551025390625,-2.4198463890224695,-0.17346454261429606,0.7827091509513556
1761133515516357400,2.755357421875,-0.15747545777857302,-0.21963095824457704,-0.3416995870772749
1761133515536204300,2.775204345703125,0.4436427619218826,0.4752080399435013,-1.3309749013863503
1761133515556050200,2.79505029296875,0.33038346248865125,-0.25309030638448893,-0.4597015509929508
1761133515575897300,2.8148974609375,-1.2556214081078767,-1.0376332486342639,-0.26748481550514697
1761133515595744300,2.834744140625,-3.309413886323571,-0.7480159501675516,-0.08775050843898206
1761133515615591200,2.854591064453125,-3.613676819127798,-0.09586517010517417,0.349139125960879
1761133515635438000,2.87443798828125,-2.1652374217033383,0.048846375429257745,0.6185513658646494
1761133515655285200,2.89428515625,-0.2894423802912235,-0.015464476439729332,0.7218823418058454
1761133515675131400,2.91413134765625,0.7041174064040183,0.27944457175955173,0.37477245665024966
1761133515694978300,2.933978271484375,0.3220411660790443,0.8448862056620419,-0.11555373051334172
1761133515714825500,2.953825439453125,-0.9561889642000198,1.0813066053397953,-0.20150639575012028
1761133515734672400,2.97367236328125,-2.166151029416919,1.0311163410209119,-0.02679543327130377
1761133515754519300,2.993519287109375,-2.828914096647501,0.9771415897272526,0.0008805091615766286
1761133515774365400,3.013365478515625,-2.0047101751387117,1.0693757098536938,0.13103720391448587
1761133515794212400,3.03321240234375,-1.0136398671716451,1.1658764744486658,-0.15886987127903848
1761133515814059300,3.053059326171875,0.8159276760727167,0.8460162326052785,-0.18982998648174107
1761133515833906400,3.072906494140625,3.5295769786834716,-0.05327697828784585,0.015778876151144504
1761133515853753300,3.09275341796875,6.053577569663524,-1.4754671050816774,0.03749854052811861
1761133515873599200,3.11259912109375,8.235332410925626,-2.2676710834786293,0.401682456211932
1761133515893446100,3.132446044921875,10.572088428807257,-2.593193954193592,1.4143658629089593
1761133515913293300,3.152293212890625,12.197839034336805,-2.5386764743253587,1.176097935668379
1761133515933140200,3.17214013671875,11.856014140379429,-2.0285990002483127,1.1106038653641939
1761133515952987400,3.1919873046875,9.196580412080884,-1.5191674228593706,0.7692540415726602
1761133515972833300,3.211833251953125,6.948136883902549,-0.7142628797780722,1.1164479152172804
1761133515992680200,3.23168017578125,6.030234687998891,-0.16488178851231933,0.3918060090376064
1761133516012527000,3.251527099609375,4.77838753773272,-0.7909345429830252,-0.07519822965152562
1761133516032374300,3.271374267578125,1.7103882061123847,-0.020447781277634202,-0.7086535885289311
1761133516052221200,3.29122119140625,-4.213006986367702,0.8876903052523731,-0.43314273948911575
1761133516072067300,3.3110673828125,-9.0407264180243,1.1622408944252878,0.4939693659715354
1761133516091914500,3.33091455078125,-11.60436577643156,1.5970581795305012,-0.3265560862202197
1761133516111761400,3.350761474609375,-12.774010444307326,2.037164876280725,-1.3857891722440718
1761133516131608300,3.3706083984375,-13.179930501556395,1.5148019211262465,-1.7006703835658727
1761133516151455500,3.39045556640625,-13.452504749155043,0.5185054029434919,-1.8944293069943785
1761133516171301400,3.41030126953125,-12.60945467287898,-0.7483473010137677,-1.8687635353401302
1761133516191148300,3.430148193359375,-11.066766965961456,-2.0547414495036005,-1.910396399194002
1761133516210995000,3.449994873046875,-9.119612907734513,-2.4905481109723446,-1.7552371094033121
1761133516230842000,3.469842041015625,-7.8784601699620485,-1.8991018288500605,-1.7491015292577445
1761133516250689000,3.48968896484375,-7.635025507608056,-1.1087807415902613,-1.0210411564040929
1761133516270535000,3.509534912109375,-7.174876432043313,-0.08221629172004759,0.36143341139927504
1761133516290382000,3.529382080078125,-6.7712132138103245,1.058290690607205,0.8735878378808498
1761133516310229000,3.54922900390625,-2.4971301197111604,0.3359208210127428,0.2695456570250913
1761133516330076000,3.569075927734375,6.943281845086813,-1.6117602202303707,-0.5870366489864886
1761133516349923000,3.588923095703125,13.450520881861447,-4.143856000991166,-0.7677402029436081
1761133516369769200,3.608769287109375,9.818972890478372,-6.674514004033804,-5.513613199105858
1761133516389616000,3.6286162109375,3.0544571284800766,-1.6679133384764193,-1.0168363251253962
1761133516409463000,3.648463134765625,2.0726228508919475,-1.4042169554688035,-0.8054792011640965
1761133516429310200,3.668310302734375,7.206913492295145,-0.43504115698896345,2.4314260599181057
1761133516449157000,3.6881572265625,12.936879285562037,-0.3785653095945716,2.4668226597309113
1761133516469003000,3.7080029296875,14.067947846806048,1.339098440478742,0.38308497897610067
1761133516488850200,3.72785009765625,11.239579693603515,2.4221890066258607,0.4534686479527503
1761133516508697000,3.747697021484375,6.89748163242042,2.432467093403637,-0.3620661928774789
1761133516528544000,3.7675439453125,3.2752105879485605,1.5112258162051437,-0.28153540655896064
1761133516548391200,3.78739111328125,0.6997440136253833,1.0833167761184275,-0.26658001215253024
1761133516568237000,3.807237060546875,-1.6866338210374117,0.890160933149606,-0.5310531151536851
1761133516588084000,3.827083984375,-3.8604368265122173,0.6502776796668768,-0.21538194076428188
1761133516607931100,3.84693115234375,-5.367269376194477,0.5218048828803002,0.3481082850757986
1761133516627778000,3.866778076171875,-4.5882238623172045,0.14312442247346044,0.6039045259507373
1761133516647625000,3.886625,-2.0815356406658885,-0.5026614987321197,0.5660050399389117
1761133516667471000,3.90647119140625,-0.4802238953441381,-1.1130595879532397,0.21319080566186457
1761133516687318000,3.926318115234375,0.8242682189166546,-0.3460392967820167,-0.1345053184164688
1761133516707165000,3.9461650390625,-0.6335112537831068,-0.595798485982418,0.09879746069740504
1761133516727012000,3.96601220703125,-1.6920231128603218,-0.08609247556626796,-0.36376543454341587
1761133516746859000,3.98585888671875,-3.0847523135006427,0.4527307621322572,-0.5813061790430918
1761133516766704000,4.0057041015625,-3.8938895987808704,1.1057811213828623,-0.3682153266243636
1761133516786551000,4.025551025390625,-3.8702830977439877,1.5500822010830044,0.15625338690401985
1761133516806398200,4.045398193359375,-3.3091128575503825,1.7316649490274487,0.5384998509630561
1761133516826244000,4.065244140625,-3.018534751227498,2.0557063490130005,0.6913895153213292
1761133516846091000,4.085091064453125,-3.0590286741793156,2.6793276385530826,0.8328285419911146
1761133516865938000,4.10493798828125,-3.1172125676006077,3.2296757482200857,0.9343573638811707
1761133516885785000,4.12478515625,-2.8807115039020776,3.3079549196869134,0.6813261672727763
1761133516905632000,4.144632080078125,-1.0799451077282427,3.0669211809948087,0.5701669088587165
1761133516925478000,4.164477783203125,2.920317538103461,2.870317535659671,0.4257700552966445
1761133516945325000,4.184324951171875,7.146378651833534,1.7386169601224362,-0.11339710046872496
1761133516965172000,4.204171875,13.684814790904522,-1.0283623661376535,-0.04484386178962886
1761133516985019000,4.224018798828125,20.928076776909826,-4.3090801732003685,0.3491644795978442
1761133517004866000,4.243865966796875,22.869996441614628,-6.942443640697002,0.41929475833531465
1761133517024712200,4.263712158203125,16.495148105722667,-8.359233515882492,0.005735109585896134
1761133517044559000,4.28355908203125,7.61804573123455,-7.064487135088443,0.024168226572871206
1761133517064406300,4.30340625,3.5396383539706466,-6.807130914887786,-0.359430912470445
1761133517084253200,4.323253173828125,1.6845494159787893,-4.1651410733431575,-1.7353268325358628
1761133517104100000,4.34310009765625,-2.055826614391804,-1.8080629829227923,-2.2959660345926878
1761133517123946000,4.362946044921875,-4.2296249436914914,-0.663828358374536,-0.9227287392772734
1761133517143795000,4.382794921875,-6.740726305609941,0.20650676132068035,0.047551586378365755
1761133517163641000,4.40264111328125,-8.180536990898847,0.5127826413825154,0.5268582938123494
1761133517183488300,4.42248828125,-9.090760907259583,0.09655775547921656,0.2732853184774518
1761133517203335200,4.442335205078125,-9.30415757422447,-1.3155087444461881,0.2645882172808051
1761133517223182300,4.462182373046875,-8.843122947996854,-2.3828658810190855,-0.43801337773278354
1761133517243029500,4.482029541015625,-9.432447854050993,-2.3344196838885543,-1.8927759868293998
1761133517262875600,4.501875732421875,-10.899362234842776,-2.3832700779058036,-2.8991511236950753
1761133517282722600,4.52172265625,-12.082041740858553,-2.5271920804977417,-3.2156372859954834
1761133517302569500,4.541569580078125,-12.24521920967102,-2.5399670986577867,-3.0827012261897324
1761133517322416600,4.561416748046875,-12.418939115285873,-2.885698060142994,-2.7263307972684503
1761133517342263600,4.581263671875,-12.520098811602592,-2.515674661183357,-2.4236507497414945
1761133517362109400,4.601109375,-12.691242144727706,-1.662568324186653,-1.4133511329084634
1761133517381956600,4.62095654296875,-13.210402796709536,-0.3421254843391478,-0.4141930878147483
1761133517401803500,4.640803466796875,-13.283090431779621,0.8919108455568552,-1.6600597023665904
1761133517421650400,4.660650390625,-6.207457048776745,0.9770810917116701,-1.1114948228545487
1761133517441497600,4.68049755859375,6.674969346585869,-3.202711461187899,-1.695150304970145
1761133517461343500,4.700343505859375,18.80819123958349,-10.135698414492607,-1.5330509867832063
1761133517481190400,4.7201904296875,17.65621316130161,-10.955890177750586,5.303558243784308
1761133517501037600,4.74003759765625,15.111052877914904,-3.257343215085566,-0.6595056728698313
1761133517520884500,4.759884521484375,11.802406468832492,3.773236974225938,-1.8156760882750151
1761133517540731400,4.7797314453125,12.307875280070304,3.0697388687640426,-1.5970441510051487
1761133517560577300,4.799577392578125,12.753211986428498,1.6314748283952474,-0.3844177619498223
1761133517580424400,4.819424560546875,11.68510110887885,2.5438006854712962,-0.9852507349681109
1761133517600271400,4.839271240234375,7.962872145095467,2.6226231700345872,-1.026584981201589
1761133517620118300,4.8591181640625,3.9280022962629793,1.3671910008884967,-0.4340368753172457
1761133517639965400,4.87896533203125,0.0143172791659832,0.6787946029685438,-0.2543167063742876
1761133517659811600,4.8988115234375,-2.970479453110695,0.23725758115425705,-0.00858457616630476
1761133517679658500,4.918658447265625,-5.042025614681839,0.1948812054567039,-0.05162332932930439
1761133517699505700,4.938505615234375,-5.177132004263997,0.32028555458337066,0.12253284881096332
1761133517719352600,4.9583525390625,-4.346563223898411,0.1512947233170271,0.6357726228438317
1761133517739199500,4.978199462890625,-2.8261265117555854,-0.026490239779651162,0.35709578405376524
1761133517759045600,4.998045654296875,-1.3465858736246823,-0.17912790213823318,-0.2777046692896634
1761133517778892500,5.017892578125,-0.11157704543471336,-0.41542555221915245,-0.21857322935257106
1761133517798739500,5.037739501953125,0.6307078868001699,-0.45995589108020063,-0.0222272851055488
1761133517818586600,5.057586669921875,0.5592191061258316,-0.23821926579326388,-0.030889077526796607
1761133517838433500,5.07743359375,0.30870296107828615,0.09535217908173799,0.03975221947273239
1761133517858279400,5.097279541015625,0.5751432359665631,0.2583896549016237,0.31836488871909674
1761133517878126300,5.117126220703125,1.2471382419228554,0.43878567727953194,0.5053401433568447
1761133517897973500,5.136973388671875,1.1868915707528591,0.8443222881689667,0.5468342197945341
1761133517917820400,5.1568203125,0.24760288794934748,1.3061312597699462,0.6279627528104931
1761133517937667300,5.176667236328125,-0.6854711581230163,1.625112307626009,0.840698983105272
1761133517957513500,5.196513427734375,-1.1010463479459285,1.8004327803052962,0.8162985552117228
1761133517977360400,5.2163603515625,-1.5420768815428019,1.7739622681394218,0.8192491486456245
1761133517997207300,5.236207275390625,-2.171595850819349,1.8208806711807846,0.7265213267181069
1761133518017054500,5.256054443359375,-2.569483992782235,1.874793463154137,0.39729485224485395
1761133518036901400,5.2759013671875,-2.4619687899589535,1.452006149995327,0.544593235934712
1761133518056747500,5.29574755859375,-1.7431868983864782,0.756715024125576,0.3821647953912616
1761133518076594700,5.3155947265625,-1.0547750106364489,-0.4454620863035321,0.24157856789221985
1761133518096441600,5.335441650390625,0.107301267811656,-1.7988345513284205,-0.8672029591493308
1761133518116288500,5.35528857421875,3.037256987354159,-2.425164369174838,-1.244649786107987
1761133518136135700,5.3751357421875,9.038011313846706,-5.032354700016975,-0.4219241204582154
1761133518155981600,5.394981689453125,13.187821547067164,-6.848794466140866,1.0511165611941367
1761133518175828500,5.414828369140625,11.417606356501578,-5.943420912420749,2.1837919000476598
1761133518195675400,5.43467529296875,8.926363541263342,-2.4623028442189097,1.8996768522590397
1761133518215522600,5.4545224609375,9.67486544831693,-1.0011343136027455,1.5093883716449141
1761133518235369500,5.474369384765625,10.405392138218879,-0.9051431059651076,-0.45501974985226984
1761133518255215400,5.49421533203125,8.07420602942407,0.5419795097723603,0.13869140846207736
1761133518275062500,5.5140625,2.9752491517305373,1.769027149824798,0.816810157995671
1761133518294909400,5.533909423828125,-1.3875491676539182,2.9876439384013413,0.18129589382708072
1761133518314756400,5.55375634765625,-5.711835677814483,2.4322305081687867,-0.6675596538573503
1761133518334603500,5.573603515625,-9.19736951663196,1.049902290033549,-1.5875420170359313
1761133518354449400,5.593449462890625,-12.029044310164451,0.28655644959136845,-1.7171936483435333
1761133518374296300,5.61329638671875,-14.71668764938116,-0.04735164335947484,-1.5047680183678864
1761133518394143500,5.6331435546875,-16.271575497180223,-0.6067746380269528,-1.0187168781749905
1761133518413990400,5.652990478515625,-15.839014101243018,-0.9237580823250114,-0.9982320893552153
1761133518433837300,5.67283740234375,-14.101728535854816,-1.5328367595106362,-0.9633970689479261
1761133518453683500,5.692683349609375,-12.037766545802354,-1.9352396024189888,-0.8243472024369984
1761133518473530600,5.712530517578125,-10.359605369555949,-2.091240457600355,-0.7407743815414607
1761133518493377500,5.73237744140625,-9.328878758504986,-1.329357383187115,-0.8644340058926493
1761133518513224700,5.752224609375,-8.885247102499008,0.6631335810434072,-0.6785800103697925
1761133518533071600,5.772071533203125,-9.08052475992739,2.5194264149323105,-1.2504878446117043
1761133518552917500,5.79191748046875,-5.176378555548191,1.7291348460279403,-1.3880708534404635
1761133518572764400,5.811764404296875,5.98320113414526,-1.563537018200755,-1.2767629803359508
1761133518592611600,5.831611572265625,18.29650779161453,-7.4867036626219745,-2.2003385457009075
1761133518612458500,5.85145849609375,22.222713267588613,-9.323992740029096,-0.22260029291156677
1761133518632305400,5.871305419921875,14.238844511693715,-4.797639058430493,1.295547906435281
1761133518652151600,5.891151611328125,6.040276189541816,-0.08368512216359376,2.881134113228321
1761133518671998500,5.91099853515625,5.139000718790292,0.8481488607197999,3.4598736201211806
1761133518691845400,5.930845458984375,8.653505216026305,1.50982500949651,1.5047788320228457
1761133518711692500,5.950692626953125,10.071279426074028,1.493190977820754,-0.28446247298680244
1761133518731538400,5.970538330078125,7.419730313545465,1.2284303265824914,-0.6648277446754276
1761133518751385300,5.99038525390625,3.9920927833795545,1.406716224938631,-0.8667206555251031
1761133518771232300,6.010232177734375,1.7764982163578271,1.48115947150439,-0.857567992580682
1761133518791079400,6.030079345703125,-0.06598901421427726,1.2269906491681932,-0.8507073130309581
1761133518810926300,6.04992626953125,-2.4457056374222037,0.9845125568866729,-0.6424535619124769
1761133518830772500,6.0697724609375,-4.556678969496488,0.9463409394025802,-0.6659102792151272
1761133518850619600,6.08961962890625,-5.57280539278686,0.8833502302214503,-0.5206554571168497
1761133518870466600,6.109466552734375,-4.1168274165511125,-0.1571153922945261,-0.04284337215479463
1761133518890313500,6.1293134765625,-0.8585463360935449,-1.0703643555648625,-0.2293662068499252
1761133518910160600,6.14916064453125,-0.0990834745645523,-1.1258218927621841,-0.6381053766403347
1761133518930006500,6.169006591796875,-0.6706774936169385,-1.2770745305031537,0.021136640324629842
1761133518949853400,6.188853515625,-1.1586188314706087,-1.070202735262364,0.12297463776171207
1761133518969700600,6.20870068359375,-1.5097341163426636,-0.6687779436059296,0.07735314266309141
1761133518989547500,6.228547607421875,-1.8903169032394884,-0.12852306566908955,0.07441758240154013
1761133519009394400,6.24839453125,-1.9659657262027261,0.5100602306813001,0.2019807900625281
1761133519029240300,6.268240234375,-1.2887182065457106,0.9447016477629542,0.6411800348453224
1761133519049087500,6.28808740234375,-0.05559738405942916,0.8898536207661032,0.9458024486117065
1761133519068934400,6.307934326171875,1.1418734483748674,0.6588008856013416,1.0410860194366425
1761133519088781600,6.327781494140625,1.5542384439796209,0.4101467350333929,1.0185405717600136
1761133519108628500,6.34762841796875,1.4317805235683918,0.10102554854303598,0.9217853209473192
1761133519128474400,6.367474365234375,1.4831114823549985,-0.2478865271963179,0.6941704512767494
1761133519148321300,6.3873212890625,1.1823702939361334,-0.3256223855666816,0.32786486726384606
1761133519168168400,6.40716845703125,0.738107938811183,-0.2288463111616671,0.16342713272459805
1761133519188015400,6.427015380859375,0.1899444797068834,-0.08240121983289718,0.20226638380456716
1761133519207862300,6.4468623046875,-0.1879015757024288,0.004147986524924635,0.26411738489866254
1761133519227708400,6.46670849609375,-0.2669108150094747,-0.03097235362976789,0.01350285751055926
1761133519247555600,6.4865556640625,-0.17916297345161436,-0.01288454294912517,-0.39181985489986837
1761133519267402500,6.506402587890625,-0.07406593768596649,0.020083514542505145,-0.644149698305875
1761133519287249400,6.52624951171875,-0.20105682535171507,0.048549547907151276,-0.7575190339848399
1761133519307096600,6.5460966796875,-0.3764624920964241,0.04720996986646205,-0.6486585540324449
1761133519326942500,6.5659423828125,-0.46853813372552394,0.09823511410690844,-0.5345822756605223
1761133519346789400,6.585789306640625,-0.6119055711746215,0.10469084785124286,-0.2979603620612994
1761133519366636500,6.605636474609375,-0.6491068823218346,-0.001655073730647564,-0.06338193698842078
1761133519386483500,6.6254833984375,-0.45929041290879247,0.052405300886696204,0.057489116090163585
1761133519406330400,6.645330322265625,-0.07310147656798362,0.11302543587842956,0.07901596130877733
1761133519426176500,6.665176513671875,0.2246533895164728,0.15543697422090916,0.05854702764526009
1761133519446023400,6.6850234375,0.2564689159721136,0.12853778831418602,0.011315576599352062
1761133519465870300,6.704870361328125,0.3679758187800646,0.043831195882055904,-0.12292235958520323
1761133519485717500,6.724717529296875,0.29455870039165016,0.06895129808597267,-0.16885025375187396
1761133519505564400,6.744564453125,0.050800212910771365,0.0749713255604729,-0.2681798120319843
1761133519525410300,6.764410400390625,-0.25484569868445395,0.09479158605691045,-0.3471459428496659
1761133519545257200,6.78425732421875,-0.4223837007939815,0.045026963271573184,-0.35071693320423364
1761133519565104400,6.8041044921875,-0.4508884952664375,-0.08585757083185017,-0.3404094742015004
1761133519584951300,6.823951416015625,-0.48720600931644437,-0.1467594910401851,-0.29225703585315493
1761133519604798500,6.843798583984375,-0.6149900931864977,-0.2604340932760387,-0.20931929799076168
1761133519624644600,6.86364453125,-0.724491501390934,-0.3678850717566907,-0.14965294745936988
1761133519644491500,6.883491455078125,-0.7009855381190776,-0.35453934103660284,-0.0871634657986462
1761133519664338400,6.90333837890625,-0.6529214721739292,-0.2420984453141689,-0.03974982658624649
1761133519684185600,6.923185546875,-0.6534902119725943,-0.045969724014401435,-0.013157258943282067
1761133519704032500,6.943032470703125,-0.3843091139435768,-0.046987011298164724,0.03375829455386847
1761133519723878400,6.96287841796875,0.10442425107061862,-0.09148410547673702,0.03349412719234824
1761133519743725600,6.9827255859375,0.36528760260939597,-0.07148293545544147,-0.0004379895584657788
1761133519763572500,7.002572509765625,0.1826782880961895,0.0019137977320700882,0.02366462443228811
1761133519783419400,7.02241943359375,-0.07628010660409927,0.03945939227230846,0.07295563835650681
1761133519803266600,7.0422666015625,-0.1410381177186966,0.02760740724131465,0.12943086469639092
1761133519823112400,7.062112548828125,-0.15424305172860622,-0.04786028700135648,0.13251264676190913
1761133519842959400,7.08195947265625,-0.22070026797652242,-0.05725289618149399,0.1521239406827837
1761133519862806500,7.101806640625,-0.2724275326043367,-0.11409217006079853,0.20267470887713132
1761133519882653400,7.1216533203125,-0.13853811759650705,-0.11034173148609697,0.018489377218857406
1761133519902500400,7.141500244140625,-0.2091255655169487,-0.09105550480112433,0.08211670380309223
1761133519922346200,7.16134619140625,-0.29549276637136934,-0.009118614544346927,0.05830803125761449
1761133519942193400,7.181193359375,-0.3862327754825353,0.07416990951709448,0.07463168180994689
1761133519962040300,7.201040283203125,-0.37095337328612804,0.017687924642860887,0.11168423213623463
1761133519981887200,7.22088720703125,-0.17571604786813258,0.04978957456350326,0.07868599870204925
