time,seconds_elapsed,z,y,x
1761129477980260900,0.1052607421875,-0.0012374529615044594,-0.00004631327465176582,-0.002261529676616192
1761129478000106000,0.12510595703125,0.0010496698087081313,0.0011140259448438883,-0.0016276976093649864
1761129478019950800,0.144950927734375,-0.0007788125076331198,-0.0004902887158095837,0.0016937158070504665
1761129478039796700,0.164796630859375,0.0003561011981219053,0.002702637342736125,-0.0014571994543075562
1761129478059641900,0.184641845703125,0.0014873490436002612,-0.001944499439559877,-0.001057836227118969
1761129478079486700,0.20448681640625,-0.0006794595392420888,-0.0007058784831315279,-0.0007686326280236244
1761129478099332900,0.224332763671875,0.00047102419193834066,-0.0010482659563422203,-0.0005034757778048515
1761129478119177700,0.244177734375,-0.00021461333381012082,-0.00038839527405798435,0.002499902155250311
1761129478139024000,0.26402392578125,-0.00016382511239498854,-0.0015583925414830446,0.0010350518859922886
1761129478158868700,0.28386865234375,0.0008100296836346388,-0.001360706752166152,-0.0019190371967852116
1761129478178713900,0.3037138671875,-0.00035389658296480775,-0.00030664936639368534,0.0002756332978606224
1761129478198559700,0.323559814453125,0.0007807033834978938,-0.0009275036863982677,-0.0010963091626763344
1761129478218404900,0.34340478515625,0.0015562938060611486,0.0015486758202314377,0.00007754797115921974
1761129478238250800,0.363250732421875,-0.0017240000888705254,-0.001931600971147418,0.002233794890344143
1761129478258095600,0.383095703125,0.0022865179926156998,-0.00045274151489138603,0.00041061872616410255
1761129478277940700,0.402940673828125,-0.0004067533300258219,0.00028366572223603725,-0.0011706850491464138
1761129478297787000,0.422786865234375,-0.0013308072229847312,-0.000029068440198898315,0.0018752836622297764
1761129478317631700,0.4426318359375,0.0005122567526996136,0.001358819892629981,-0.0016968511044979095
1761129478337478000,0.462477783203125,0.001306223450228572,-0.0010422286577522755,0.00016481243073940277
1761129478357323000,0.482322998046875,0.00025443127378821373,-0.0006399760022759438,0.00027636298909783363
1761129478377168000,0.50216796875,0.002177734859287739,-0.0008981297723948956,0.001540909055620432
1761129478397014000,0.522013916015625,-0.0025898232124745846,0.0014453656040132046,-0.0008936491794884205
1761129478416859000,0.54185888671875,0.00015486055053770542,-0.0011054028291255236,0.0022821775637567043
1761129478436704800,0.561704833984375,-0.0007898409385234118,0.00009216275066137314,0.0038394795265048742
1761129478456550000,0.5815498046875,0.0003125661751255393,-0.00014785118401050568,0.0008496763184666634
1761129478476395000,0.60139501953125,0.0005473638884723186,0.0011844185646623373,-0.0006187297403812408
1761129478496241000,0.621240966796875,-0.0010538231581449509,-0.0006244143005460501,0.0003996295854449272
1761129478516085800,0.641085693359375,0.0004661374259740114,-0.00014503113925457,-0.003293076064437628
1761129478535932000,0.660931884765625,0.0016305020544677973,-0.0015162851195782423,0.0027254093438386917
1761129478555776800,0.68077685546875,0.0013804006157442927,-0.001097643980756402,0.0014265775680541992
1761129478575622000,0.700621826171875,-0.0004935823963023722,-0.000751732150092721,0.00010160263627767563
1761129478595467800,0.7204677734375,-0.00013351294910535216,0.0003196184989064932,0.003841916797682643
1761129478615313000,0.74031298828125,-0.0004979724762961268,0.00013329903595149517,-0.0005491515621542931
1761129478635158800,0.76015869140625,0.000055852578952908516,0.0020710218232125044,-0.0002911696210503578
1761129478655004000,0.78000390625,-0.0004934192402288318,-0.0014879168011248112,0.0010871468111872673
1761129478674849800,0.799849853515625,-0.0010072720469906926,0.0005283094942569733,0.0010147066786885262
1761129478694694700,0.819694580078125,-0.0017144866287708282,-0.00002003554254770279,0.0006567765958607197
1761129478714539800,0.839539794921875,-0.003414818551391363,-0.0012452302034944296,0.0003245323896408081
1761129478734385700,0.8593857421875,0.00031632022000849247,0.0021188086830079556,-0.002199675887823105
1761129478754230800,0.879230712890625,0.00007058784831315279,-0.0006093212869018316,0.0008395328186452389
1761129478774077000,0.899076904296875,-0.0009536178549751639,0.0010565232951194048,0.00033715832978487015
1761129478793922000,0.918922119140625,0.0012386913876980543,0.0013758649583905935,-0.0011513945646584034
1761129478813767000,0.938766845703125,-0.0003333831555210054,0.00013644061982631683,0.00034041469916701317
1761129478833612800,0.95861279296875,-0.00039528595516458154,-0.0011390059953555465,0.0012707156129181385
1761129478853458000,0.9784580078125,0.0010914724553003907,0.002334385411813855,0.001672161277383566
1761129478873303300,0.99830322265625,0.0013373417314141989,0.0006615628954023123,0.000014517921954393387
1761129478893148400,1.0181484375,0.0004678074037656188,0.0007353124674409628,-0.0018481980077922344
1761129478912993500,1.03799365234375,0.0009214007295668125,-0.00016083475202322006,0.0014300779439508915
1761129478932839400,1.05783935546875,-0.0004253271035850048,0.0008139901328831911,-0.00027599046006798744
1761129478952684300,1.077684326171875,0.0006417982513085008,-0.0006085368804633617,0.0025995788164436817
1761129478972530400,1.097530517578125,-0.00045117957051843405,0.00037317792885005474,-0.0002301870845258236
1761129478992375300,1.117375244140625,0.0009583757491782308,0.0009259057696908712,0.0000803554430603981
1761129479012221700,1.1372216796875,-0.0012286145938560367,0.0010015973821282387,0.000051437411457300186
1761129479032066300,1.15706640625,0.00016069004777818918,0.002642508363351226,-0.0013910033740103245
1761129479051911400,1.176911376953125,0.00036732025910168886,-0.002857802202925086,-0.0014718235470354557
1761129479071757600,1.196757568359375,0.0005654318956658244,-0.0008098848629742861,0.0011112736538052559
1761129479091602700,1.216602783203125,-0.0012861836003139615,-0.0006304956041276455,-0.0011073923669755459
1761129479111448600,1.236448486328125,0.003928309306502342,-0.0016653435304760933,0.0015806183218955994
1761129479131293400,1.25629345703125,-0.0017502059927210212,0.0013170179445296526,-0.00010504340752959251
1761129479151138600,1.276138671875,-0.0005845652776770294,-0.0010919827036559582,0.001008729450404644
1761129479170984400,1.295984375,-0.0018554365960881114,0.00009660120122134686,-0.0033544208854436874
1761129479190829600,1.31582958984375,-0.002908321563154459,-0.0004379160236567259,-0.001913874875754118
1761129479210675500,1.335675537109375,0.0011374005116522312,0.0013992208987474442,-0.0005622734315693378
1761129479230520600,1.3555205078125,-0.0002450430765748024,-0.00027646543458104134,0.0006652926094830036
1761129479250366500,1.375366455078125,0.0008235876448452473,-0.0010845405049622059,-0.0003075464628636837
1761129479270211600,1.395211669921875,0.00012993277050554752,0.0003120275214314461,-0.0002693259157240391
1761129479290056400,1.415056396484375,-0.0015045010950416327,0.0020531334448605776,-0.0018040668219327927
1761129479309902300,1.43490234375,0.0004077451303601265,-0.0020362529903650284,0.0011920509859919548
1761129479329747500,1.45474755859375,-0.0004540951340459287,0.00043354579247534275,-0.0005839350633323193
1761129479349593300,1.47459326171875,0.000043454812839627266,-0.0009404006414115429,-0.00013473303988575935
1761129479369438500,1.4944384765625,-0.0009886935586109757,0.00149280927143991,-0.0003677983768284321
1761129479389283300,1.514283447265625,-0.00039404822746291757,0.0036363352555781603,-0.0010501407086849213
1761129479409129500,1.53412939453125,0.0013829126255586743,-0.002019177656620741,-0.0028871139511466026
1761129479428974300,1.553974365234375,0.00014981033746153116,0.0002502996940165758,-0.0010728738270699978
1761129479448820500,1.573820556640625,0.0013465710217133164,-0.0016768825007602572,0.001368164550513029
1761129479468665300,1.593665283203125,0.0006468407809734344,0.0025348998606204987,0.0014013824984431267
1761129479488510500,1.613510498046875,0.00036849582102149725,0.001109035685658455,-0.00005941977724432945
1761129479508356600,1.633356689453125,-0.00015081703895702958,-0.0022548416163772345,0.0010880781337618828
1761129479528201500,1.653201416015625,0.0007518130587413907,-0.0011094572255387902,-0.0013659978285431862
1761129479548047600,1.673047607421875,-0.001044099684804678,0.0015868789050728083,-0.0012727947905659676
1761129479567892500,1.692892578125,0.0019471877021715045,0.00034454301930963993,-0.00026608072221279144
1761129479587738600,1.712738525390625,-0.0014763176441192627,-0.0021396460942924023,-0.0010078945197165012
1761129479607583500,1.73258349609375,-0.003740863408893347,0.003000473603606224,-0.0010555400513112545
1761129479627428600,1.7524287109375,0.0024908992927521467,-0.0011531312484294176,0.003165343077853322
1761129479647274500,1.7722744140625,0.0007153768092393875,0.0003838050179183483,-0.001202897634357214
1761129479667119600,1.79211962890625,-0.00011194264516234398,-0.0001706054899841547,0.0005473457276821136
1761129479686965500,1.811965576171875,-0.000747581128962338,-0.0001479818020015955,0.0002817772328853607
1761129479706810400,1.831810302734375,0.0005624131299555302,0.001585707301273942,-0.0024701301008462906
1761129479726655500,1.851655517578125,0.00026005145628005266,0.0011719504836946726,-0.00020274100825190544
1761129479746501400,1.87150146484375,0.0006045798072591424,0.00038741156458854675,0.0016016885638237
1761129479766346500,1.891346435546875,0.00030493829399347305,0.000007873168215155602,0.0007496261969208717
1761129479786192400,1.9111923828125,0.0007581973914057016,0.00037835584953427315,-0.0004026242531836033
1761129479806037500,1.93103759765625,0.0014226367929950356,0.0014262809418141842,-0.0006320010870695114
1761129479825883400,1.95088330078125,-0.000990485423244536,-0.0013237242819741368,0.0006442917510867119
1761129479845728500,1.970728515625,0.00024481385480612516,0.0023525620345026255,0.0003346884623169899
1761129479865573400,1.990573486328125,-0.00016505568055436015,-0.0001900948118418455,0.0010674744844436646
1761129479885419500,2.01041943359375,0.0009602747159078717,0.00008667120710015297,-0.0006298953667283058
1761129479905264600,2.0302646484375,-0.001015787711367011,-0.0008047979790717363,0.0015498851425945759
1761129479925110800,2.05011083984375,0.00009101710747927427,-0.0011359669733792543,-0.00031166616827249527
1761129479944956000,2.069955810546875,0.0034188381396234035,-0.0005019612144678831,-0.0011343229562044144
1761129479964800500,2.089800537109375,0.0024384951684623957,-0.000042826635763049126,-0.0008169352076947689
1761129479984647000,2.10964697265625,0.002239488996565342,-0.000597215024754405,-0.0031939176842570305
1761129480004491800,2.12949169921875,0.0007079454371705651,-0.0005751820281147957,-0.0013437643647193909
1761129480024337700,2.149337646484375,0.0001346187200397253,0.0009198281913995743,0.0024246945977211
1761129480044182800,2.169182861328125,-0.0011677996953949332,-0.002805850235745311,0.0007014195434749126
1761129480064028000,2.18902783203125,-0.00046072760596871376,-0.000693643232807517,-0.0028347447514533997
1761129480083873800,2.208873779296875,-0.0006393403164111078,0.00023972755298018456,-0.002052553463727236
1761129480103718700,2.22871875,-0.0015336622018367052,0.0015767491422593594,0.0009506074711680412
1761129480123564800,2.248564697265625,0.000018011662177741528,0.0015784434508532286,0.0015986538492143154
1761129480143409700,2.26840966796875,0.0014028726145625114,0.00029809214174747467,0.0027825243305414915
1761129480163255800,2.288255859375,-0.00024005782324820757,-0.000768725760281086,-0.000695075374096632
1761129480183100700,2.3081005859375,-0.0007546282140538096,0.0016523944213986397,0.00021166913211345673
1761129480202945800,2.32794580078125,0.0012651736615225673,-0.00010657450184226036,-0.000991051085293293
1761129480222791700,2.347791748046875,0.001246267231181264,0.0014596916735172272,-0.0005099154077470303
1761129480242636800,2.36763671875,-0.001576691516675055,-0.0006630956195294857,-0.0008910358883440495
1761129480262482700,2.387482666015625,0.00007492979057133198,0.0007472927682101727,-0.0018536066636443138
1761129480282327600,2.40732763671875,-0.0015958292642608285,-0.002510839607566595,-0.000020091421902179718
1761129480302172700,2.427172607421875,-0.0007787819486111403,-0.0010613983031362295,0.0032502408139407635
1761129480322018600,2.4470185546875,0.0008981006685644388,0.000934382202103734,-0.00018662121146917343
1761129480341863700,2.46686376953125,-0.0003213491872884333,0.0005709861870855093,0.0016999109648168087
1761129480361709800,2.486709716796875,0.0002509003970772028,0.0000789891928434372,-0.0012432793155312538
1761129480381554700,2.5065546875,0.00008281250484287739,-0.0019011514959856868,0.0017599975690245628
1761129480401399600,2.526399658203125,0.0022852751426398754,-0.0006391669157892466,-0.0018489905633032322
1761129480421245700,2.54624560546875,0.0017119222320616245,-0.0006254278123378754,-0.0010426105000078678
1761129480441090800,2.5660908203125,0.025447845458984375,0.00519359577447176,-0.0027965721674263477
1761129480460936700,2.585936767578125,0.030045654624700546,0.0019812509417533875,-0.00574710825458169
1761129480480781800,2.60578173828125,0.01582435704767704,-0.0002151685766875744,-0.007688682060688734
1761129480500627700,2.625627685546875,-0.0001893712906166911,-0.0017760001355782151,-0.0062630511820316315
1761129480520472800,2.645472900390625,-0.010798824951052666,-0.003670106641948223,-0.006770808715373278
1761129480540317700,2.665317626953125,-0.025641389191150665,-0.004456228110939264,-0.004817723762243986
1761129480560163800,2.685163818359375,-0.040862422436475754,-0.008548006415367126,-0.00795271247625351
1761129480580008700,2.7050087890625,-0.0491085983812809,-0.009483660571277142,-0.00860401801764965
1761129480599854600,2.7248544921875,-0.06367898732423782,-0.013914268463850021,-0.008665347471833229
1761129480619699700,2.74469970703125,-0.07285282760858536,-0.011178720742464066,-0.006959168240427971
1761129480639544800,2.764544921875,-0.08044122159481049,-0.013609163463115692,-0.007138746790587902
1761129480659390700,2.784390625,-0.0853261947631836,-0.014842373318970203,-0.006470896769315004
1761129480679235600,2.804235595703125,-0.09215554594993591,-0.014365658164024353,-0.00491664744913578
1761129480699081700,2.824081787109375,-0.09478071331977844,-0.01623210497200489,-0.004673451650887728
1761129480718926600,2.843926513671875,-0.09678791463375092,-0.01578601635992527,-0.0046063316985964775
1761129480738771700,2.863771728515625,-0.09656728804111481,-0.014117487706243992,-0.0032969880849123
1761129480758617600,2.88361767578125,-0.09233776479959488,-0.012626802548766136,-0.003827527165412903
1761129480778462700,2.903462646484375,-0.08807995170354843,-0.013732683844864368,-0.00016330648213624954
1761129480798308600,2.92330859375,-0.07914136350154877,-0.012258321978151798,0.0015270761214196682
1761129480818153700,2.94315380859375,-0.013756576925516129,0.0008055770304054022,0.006464110687375069
1761129480837999900,2.962999755859375,-0.0009165226947516203,0.0017346027307212353,0.002734849229454994
1761129480857844700,2.9828447265625,-0.001867162762209773,0.00014955387450754642,0.00032081548124551773
1761129480877690000,3.002690185546875,0.00021951866801828146,-0.000546582043170929,0.0003852969966828823
1761129480897536000,3.022535888671875,-0.0006293254555203021,0.0009959063027054071,0.00010962644591927528
1761129480917381000,3.042381103515625,0.0005238247103989124,0.0016162432730197906,-0.0002414626069366932
1761129480937227000,3.06222705078125,-0.000124483834952116,-0.00019125896506011486,-0.00007717963308095932
1761129480957072100,3.082072021484375,-0.001143846777267754,-0.0007811342366039753,0.0013042362406849861
1761129480976917000,3.1019169921875,0.0013006837107241154,-0.0011807383270934224,0.00048025697469711304
1761129480996763000,3.121762939453125,0.001406269846484065,-0.00019587972201406956,0.001581248827278614
1761129481016608000,3.14160791015625,0.0021330465096980333,0.0001737670972943306,0.000512788537889719
1761129481036454100,3.1614541015625,-0.004763820208609104,0.0025955880992114544,-0.0010042623616755009
1761129481056299000,3.181299072265625,0.00041513610631227493,0.00043370621278882027,-0.0009982557967305183
1761129481076143900,3.201143798828125,0.0024638576433062553,-0.0015530623495578766,0.0004394776187837124
1761129481095990300,3.220990234375,-0.0011354511370882392,0.0003649820573627949,-0.0025812718085944653
1761129481115835100,3.240835205078125,-0.001483822357840836,-0.0002174580004066229,-0.0013751331716775894
1761129481135681300,3.260681396484375,0.0002829484874382615,-0.0009990890976041555,-0.001105614472180605
1761129481155526100,3.280526123046875,-0.0005259948084130883,0.0005969649646431208,0.0015005958266556263
1761129481175371300,3.300371337890625,0.00026379036717116833,0.0011977092362940311,-0.000693438109010458
1761129481195217200,3.320217041015625,-0.0009330342290922999,0.0012256726622581482,-0.0002343091182410717
1761129481215062000,3.34006201171875,0.0011348773259669542,0.0006632995791733265,0.001843918114900589
1761129481234908200,3.359908203125,-0.0012196853058412671,-0.0001559897791594267,0.0009555579163134098
1761129481254753000,3.3797529296875,-0.001267463550902903,-0.0012197204632684588,-0.0019231741316616535
1761129481274599200,3.39959912109375,-0.0004800471942871809,0.0005860244855284691,0.00039614224806427956
1761129481294444000,3.419444091796875,-0.000007006572559475899,-0.00249266903847456,-0.000773407518863678
1761129481314289200,3.4392890625,0.000023133819922804832,0.0013385186903178692,0.0009522470645606518
1761129481334135000,3.459135009765625,0.001958874985575676,-0.0009752060286700726,0.001556833740323782
1761129481353980200,3.478980224609375,-0.0008248176891356707,0.0010971503797918558,0.0004961634986102581
1761129481373826000,3.498825927734375,0.0004291560035198927,-0.0023490453604608774,0.0006653568707406521
1761129481393671000,3.5186708984375,-0.00017611845396459103,0.0004396517761051655,0.0008129347115755081
1761129481413516000,3.53851611328125,0.0016609614249318838,-0.00012863264419138432,-0.000029655639082193375
1761129481433362000,3.55836181640625,-0.0032284443732351065,-0.0009410674683749676,-0.00038165366277098656
1761129481453207000,3.57820703125,-0.0026132981292903423,0.000495820539072156,0.001082086469978094
1761129481473053000,3.598052978515625,0.0008446202846243978,0.0015064808540046215,0.000929070170968771
1761129481492898000,3.61789794921875,0.000935073010623455,0.00012516183778643608,-0.001277976669371128
1761129481512743000,3.637742919921875,-0.0017645042389631271,0.001499971840530634,0.0010137991048395634
1761129481532589300,3.65758935546875,0.0017853172030299902,-0.00039854622446000576,0.0002870825119316578
1761129481552434200,3.67743408203125,-0.00020654033869504929,-0.00001626298762857914,-0.001129551324993372
1761129481572280000,3.697280029296875,0.0014758415054529905,0.0005554191302508116,0.0006354469805955887
1761129481592125200,3.717125244140625,-0.000032945768907666206,0.0002829765435308218,-0.0006246110424399376
1761129481611970300,3.73697021484375,-0.0009845001623034477,-0.0011734113795682788,0.0005426914431154728
1761129481631816200,3.756816162109375,0.0008984324522316456,0.002524112816900015,-0.0003831963986158371
1761129481651661000,3.7766611328125,0.0006402836879715323,0.0015774988569319248,-0.002377802040427923
1761129481671507200,3.796507080078125,0.0012589114485308528,-0.0005767140537500381,-0.0000779964029788971
1761129481691352000,3.81635205078125,-0.0009872918017208576,0.00013054674491286278,0.0015213517472147942
1761129481711197200,3.836197265625,-0.0002450664178468287,-0.0007644689176231623,-0.0008836076594889164
1761129481731043000,3.85604296875,0.001107448828406632,-0.002668022643774748,-0.0009568333625793457
1761129481750888200,3.87588818359375,0.0006744639249518514,-0.0018670798745006323,0.0012758076190948486
1761129481770734000,3.895734130859375,-0.0010606817668303847,-0.0004939315840601921,0.00237698620185256
1761129481790579200,3.9155791015625,-0.001128689618781209,-0.00009544915519654751,-0.0012507769279181957
1761129481810424000,3.935424072265625,-0.002909354167059064,0.00041864928789436817,0.0005300347693264484
1761129481830270000,3.95527001953125,0.0014909966848790646,-0.00028444756753742695,0.0013041193597018719
1761129481850115000,3.975114990234375,-0.0005671419785358012,-0.000571591779589653,0.00025961920619010925
1761129481869960200,3.994960205078125,-0.000953453010879457,0.0003761348780244589,0.0001034056767821312
1761129481889805000,4.01480517578125,-0.0014892503386363387,-0.00003450154326856136,0.0006471225060522556
1761129481909650200,4.034650146484375,-0.0012841286370530725,0.0005820514634251595,-0.0012716464698314667
1761129481929496000,4.05449609375,0.0010793295223265886,0.00004215002991259098,0.001349523663520813
1761129481949341200,4.074341064453125,0.0006407692562788725,-0.0005807289853692055,-0.0006935391575098038
1761129481969187000,4.09418701171875,0.0012473308015614748,0.0003044474869966507,0.00030190544202923775
1761129481989032000,4.114031982421875,-0.0006255085463635623,0.0009878857526928186,0.0013226927258074284
1761129482008877000,4.133876953125,0.0002917611273005605,0.0003027596976608038,0.0002968134358525276
1761129482028723200,4.15372314453125,-0.0021838550455868244,-0.0034274880308657885,0.00041306251659989357
1761129482048568300,4.173568359375,0.0004196941154077649,0.00023382040672004223,-0.0008991919457912445
1761129482068414200,4.193414306640625,0.001266647595912218,0.0012183065991848707,-0.0009789741598069668
1761129482088259300,4.21325927734375,-0.00004640722181648016,-0.0014059622772037983,0.0005011428147554398
1761129482108104200,4.233104248046875,-0.0008900678949430585,0.0009271763265132904,0.0018394151702523232
1761129482127950000,4.2529501953125,-0.0005225746426731348,-0.0016963713569566607,0.0001194290816783905
1761129482147795200,4.272795166015625,-0.0012908745557069778,0.0009148740209639072,-0.00030966848134994507
1761129482167641000,4.29264111328125,-0.0020007132552564144,-0.0009604997467249632,0.0011873398907482624
1761129482187486200,4.312486328125,0.0004190104082226753,0.0018671660218387842,-0.0006867502816021442
1761129482207331000,4.3323310546875,0.002290761796757579,-0.0007110221777111292,-0.0010860254988074303
1761129482227177200,4.35217724609375,0.001413838705047965,0.0024836761876940727,0.0000835084356367588
1761129482247022000,4.37202197265625,-0.00418843375518918,-0.000581860076636076,0.0004277634434401989
1761129482266868200,4.3918681640625,0.002573572099208832,0.00005360366776585579,0.0010768393985927105
1761129482286713000,4.411713134765625,0.00019722373690456152,0.001132266130298376,0.0013783639296889305
1761129482306558200,4.43155810546875,-0.0010399812599644065,0.0018699755892157555,-0.0026425025425851345
1761129482326404000,4.451404052734375,-0.0002889513270929456,0.0017015349585562944,0.001395123079419136
1761129482346249200,4.471249267578125,-0.00008541613351553679,-0.0005899458192288876,0.00013768067583441734
1761129482366095000,4.49109521484375,-0.0013248490868136287,-0.0007932940497994423,-0.0020769224502146244
1761129482385940000,4.51093994140625,0.0002569747157394886,-0.00032570725306868553,-0.000014535151422023773
1761129482405785000,4.53078515625,-0.00009603507351130247,-0.0014681635657325387,-0.0014167693443596363
1761129482425631000,4.550630859375,0.0024118572473526,-0.0003723315894603729,-0.002973277121782303
1761129482445476000,4.57047607421875,0.0011872677132487297,-0.0006522741168737411,-0.0002549178898334503
1761129482465322000,4.590322021484375,-0.0009142227936536074,-0.0005738886538892984,-0.001231122761964798
1761129482485167000,4.6101669921875,-0.0008149002678692341,0.001318597700446844,-0.002223340328782797
1761129482505012000,4.630011962890625,-0.0013741343282163143,0.0005241795442998409,-0.002232091501355171
1761129482524858000,4.649858154296875,-0.00006964115891605616,-0.0008823305834084749,-0.0016030529513955116
1761129482544703200,4.669703125,-0.00011462561087682843,-0.0012251142179593444,-0.003947400487959385
1761129482564549000,4.689549072265625,0.000777309644035995,0.00037042819894850254,-0.001394475344568491
1761129482584394200,4.709394287109375,0.0019024151843041182,-0.000511211808770895,-0.0013087349943816662
1761129482604239000,4.729239013671875,-0.0007820515893399715,-0.0005304345395416021,0.0006088046357035637
1761129482624085200,4.749085205078125,0.00007015303708612919,-0.0005942536517977715,0.00046547921374440193
1761129482643930000,4.76893017578125,-0.0005848024738952518,-0.0018589359242469072,-0.00011467328295111656
1761129482663775200,4.788775146484375,-0.0004552049213089049,0.00039208633825182915,0.0021041748113930225
1761129482683621000,4.80862109375,0.001890013925731182,-0.0020894217304885387,0.00021265726536512375
1761129482703466200,4.82846630859375,0.0016378837171941996,-0.0005305134691298008,-0.0024972492828965187
1761129482723312000,4.84831201171875,-0.00044435285963118076,-0.0012441320577636361,0.0005537322722375393
1761129482743157200,4.8681572265625,0.0004446918610483408,0.0014461439568549395,0.0006362441927194595
1761129482763002000,4.888002197265625,-0.0009532885160297155,-0.002395241754129529,0.003222511615604162
1761129482782848000,4.907847900390625,-0.0009804737055674195,-0.001594260334968567,0.0010827062651515007
1761129482802693000,4.927693115234375,-0.0005330490530468524,-0.0018483040621504188,0.0003299117088317871
1761129482822539000,4.9475390625,0.0009370798943564296,0.002732650376856327,0.0036468098405748606
1761129482842384100,4.967384033203125,0.0013803030597046018,-0.0011011844035238028,-0.0003525237552821636
1761129482862229000,4.98722900390625,-0.00143866625148803,0.001295996829867363,0.001606588251888752
1761129482882075600,5.00707568359375,-0.0026711251121014357,-0.0008647553622722626,-0.0008919830434024334
1761129482901920500,5.02692041015625,0.0010300789726898074,-0.0016797283897176385,-0.00020070699974894524
1761129482921766400,5.046766357421875,-0.00231629004701972,-0.0012171176495030522,-0.0013413475826382637
1761129482941611500,5.066611572265625,0.0015651175053790212,0.0003503626212477684,-0.0013201264664530754
1761129482961456600,5.08645654296875,-0.0006523506017401814,0.0011706133373081684,-0.0021959953010082245
1761129482981302500,5.106302490234375,-0.001318044844083488,-0.0018849034095183015,-0.0005265781655907631
1761129483001147400,5.1261474609375,0.002219394315034151,-0.0003188981208950281,0.0008142613805830479
1761129483020993500,5.14599365234375,-0.0012146065710112453,0.001156053738668561,-0.0007393984124064445
1761129483040838400,5.16583837890625,-0.0004773830296471715,-0.0016076911706477404,-0.00013594003394246101
1761129483060683500,5.18568359375,0.001644596690312028,0.0006433851085603237,0.0017767236568033695
1761129483080529400,5.205529296875,0.00017269747331738472,0.000277078477665782,0.00003550061956048012
1761129483100374500,5.22537451171875,0.0001609731698408723,0.0006203555967658758,-0.00199812650680542
1761129483120219400,5.245219482421875,0.0016011085826903582,-0.0011668128427118063,-0.00042499881237745285
1761129483140065500,5.2650654296875,-0.0002122032456099987,0.0002767194528132677,0.0009661419317126274
1761129483159910400,5.284910400390625,-0.0005213521653786302,-0.00006375298835337162,0.0005062650889158249
1761129483179756300,5.30475634765625,-0.0001911523868329823,0.0005187091883271933,-0.00037771137431263924
1761129483199601400,5.324601318359375,-0.0002574007958173752,-0.00046380842104554176,-0.0007532527670264244
1761129483219446500,5.344446533203125,0.001965650822967291,0.00040346034802496433,0.00002721138298511505
1761129483239292400,5.36429248046875,-0.0010450289119035006,-0.000849973177537322,0.0017196102999150753
1761129483259137300,5.38413720703125,0.0004292156081646681,-0.0013612303882837296,0.0005735484883189201
1761129483278983400,5.4039833984375,-0.001297935377806425,-0.0007121094968169928,0.0008967220783233643
1761129483298828300,5.423828369140625,0.00045240053441375494,0.0017710980027914047,-0.00082068657502532
1761129483318673400,5.44367333984375,0.0007234796648845077,-0.0004387714434415102,0.00003440817818045616
1761129483338519600,5.46351953125,-0.0010569201549515128,-0.0012190572451800108,0.0010275840759277344
1761129483358364700,5.48336474609375,0.0013958628987893462,0.0007946894038468599,0.002264061477035284
1761129483378210600,5.50321044921875,0.001054911408573389,-0.0008866291027516127,0.0015181899070739746
1761129483398055700,5.5230556640625,-0.0014702071202918887,0.0007413395214825869,-0.0017311363480985165
1761129483417900500,5.542900634765625,0.00012582121416926384,0.0004398282617330551,0.000553385354578495
1761129483437746400,5.562746337890625,-0.0024233986623585224,-0.0017338156467303634,0.0013828142546117306
1761129483457591600,5.582591552734375,0.0018149963580071926,0.00003461935557425022,0.00040682870894670486
1761129483477437400,5.6024375,-0.00020720448810607195,-0.0013552613090723753,-0.0013784621842205524
1761129483497282600,5.622282470703125,-0.0002860317472368479,0.0005893267225474119,-0.00003078347072005272
1761129483517127400,5.64212744140625,-0.0013737987028434873,0.0005182491149753332,-0.0017080297693610191
1761129483536973600,5.6619736328125,-0.0014600708382204175,0.0004668643232434988,-0.002999913413077593
1761129483556818400,5.681818359375,-0.0013685310259461403,0.0001875015441328287,0.0003926130011677742
1761129483576663600,5.70166357421875,-0.0001946092233993113,0.0007955746259540319,0.0016335751861333847
1761129483596509400,5.721509521484375,-0.0021462691947817802,0.0004974580369889736,0.0033606328070163727
1761129483616354600,5.7413544921875,0.0003725691931322217,0.001844305545091629,0.0016233711503446102
1761129483636200400,5.761200439453125,0.0020900857634842396,0.00040052481926977634,-0.000010380521416664124
1761129483656045300,5.78104541015625,0.00018152175471186638,0.00025338190607726574,0.00007908698171377182
1761129483675890400,5.800890380859375,-0.0013560059014707804,-0.0006178177427500486,0.0011040889658033848
1761129483695736300,5.820736328125,0.0027444332372397184,-0.0005109859630465508,-0.0005181115120649338
1761129483715581400,5.84058154296875,0.0006095449207350612,-0.0009399396367371082,-0.0006829998455941677
1761129483735427300,5.86042724609375,0.0004345556953921914,0.00047053187154233456,0.00036514829844236374
1761129483755272400,5.8802724609375,-0.0002567487535998225,0.001803313847631216,0.0004178364761173725
1761129483775117300,5.900117431640625,-0.0007631184998899698,0.00008633127436041832,-0.0010637398809194565
1761129483794963500,5.91996337890625,0.0014706178335472941,-0.0011562332510948181,-0.0019371532835066319
1761129483814808300,5.939808349609375,-0.00018408650066703558,0.00007346109487116337,0.0012786919251084328
1761129483834654500,5.959654541015625,0.0006139753386378288,0.0009421943686902523,-0.0003024498000741005
1761129483854499600,5.97949951171875,0.0007582075195387006,0.0008640063460916281,0.0005280175246298313
1761129483874344400,5.999344482421875,-0.0011339065385982394,0.0012174290604889393,0.0008676201105117798
1761129483894190300,6.0191904296875,0.0007015862502157688,0.000355767086148262,-0.000027621164917945862
1761129483914035200,6.03903515625,0.0014340464258566499,0.0008399796206504107,0.0007054684683680534
1761129483933880300,6.05888037109375,0.001182266976684332,0.002478482900187373,-0.00029859505593776703
1761129483953726200,6.078726318359375,0.0010521046351641417,0.00007280032150447369,0.0005197077989578247
1761129483973571300,6.0985712890625,-0.0009908154606819153,-0.0022980868816375732,-0.0012523210607469082
1761129483993417200,6.118417236328125,-0.0001755023840814829,0.0012250191066414118,0.0003841947764158249
1761129484013262300,6.138262451171875,-0.0010320991277694702,0.00042804167605936527,-0.0012023118324577808
1761129484033107200,6.158107177734375,0.0005690994439646602,-0.001134924590587616,0.0010636928491294384
1761129484052953300,6.177953369140625,0.00026940624229609966,0.00038592354394495487,-0.00020573800429701805
1761129484072798200,6.197798095703125,-0.0013406916987150908,-0.001005708472803235,-0.001417302992194891
1761129484092644000,6.21764404296875,-0.00016422028420493007,-0.000798684312030673,-0.0011128494516015053
1761129484112489200,6.2374892578125,-0.0003424733877182007,0.00016490649431943893,-0.00010031973943114281
1761129484132334300,6.257334228515625,0.00039310939610004425,0.0007018940523266792,-0.001341765746474266
1761129484152180200,6.27718017578125,0.00004775822162628174,0.0005906149744987488,0.0006895833648741245
1761129484172025000,6.297025146484375,0.0014358570333570242,0.0007918854244053364,-0.0002997433766722679
1761129484191870200,6.3168701171875,0.0015710893785580993,0.0013718453701585531,-0.0021320395171642303
1761129484211716000,6.336716064453125,-0.0016177556244656444,0.0004230700433254242,-0.00029936106875538826
1761129484231561200,6.356561279296875,-0.0026294386480003595,-0.0005249916575849056,-0.0015568891540169716
1761129484251407000,6.376406982421875,-0.0007766435155645013,-0.0004183053970336914,-0.00000892719253897667
1761129484271252200,6.396252197265625,0.00007534259930253029,0.0005496286321431398,-0.00037114089354872704
1761129484291097000,6.41609716796875,0.00026544975116848946,-0.000020178966224193573,0.0016547483392059803
1761129484310943500,6.435943603515625,0.0012765252031385899,0.0001213632058352232,-0.0007333164103329182
1761129484330788400,6.455788330078125,-0.0017668945947661996,-0.0033450585324317217,0.0011936873197555542
1761129484350634200,6.47563427734375,-0.001218680408783257,-0.0013200787361711264,-0.0002877204678952694
1761129484370479400,6.495479248046875,-0.0006129599059931934,-0.002203568583354354,0.000241065863519907
1761129484390324500,6.515324462890625,-0.0008964873850345612,-0.0005424530245363712,-0.0022873198613524437
1761129484410169300,6.53516943359375,-0.002035296754911542,-0.00020615407265722752,-0.0014109429903328419
1761129484430015200,6.55501513671875,-0.0024983715265989304,-0.002946810331195593,-0.0010049636475741863
1761129484449860400,6.5748603515625,-0.0025055138394236565,0.0010316981934010983,0.0002252710983157158
1761129484469706200,6.594706298828125,-0.0004842430353164673,-0.0007248297333717346,-0.0027281432412564754
1761129484489551400,6.61455126953125,-0.0005125252064317465,0.0006155611481517553,0.00012147054076194763
1761129484509396200,6.634396240234375,0.002621803432703018,-0.0012194302398711443,-0.0007631010375916958
1761129484529242400,6.654242431640625,0.0006006598705425858,0.0025237794034183025,0.001869542058557272
1761129484549087200,6.674087158203125,0.00018196390010416508,-0.0005164858885109425,-0.002240327186882496
1761129484568933400,6.693933349609375,-0.00012479512952268124,-0.0004882197827100754,0.00037854863330721855
1761129484588778200,6.7137783203125,0.001183939166367054,0.0005876263603568077,0.0018173092976212502
1761129484608623400,6.733623291015625,-0.0015164026990532875,-0.0020712080877274275,0.0007886085659265518
1761129484628469200,6.75346923828125,-0.0002244511852040887,0.00020544789731502533,0.000058951787650585175
1761129484648314000,6.773314208984375,0.00037334999069571495,-0.00041397917084395885,0.001798579003661871
1761129484668160300,6.79316015625,0.00022020167671144009,0.001978466287255287,-0.0016245897859334946
1761129484688005000,6.813005126953125,-0.0006330651231110096,-0.0033889301121234894,-0.0009160772897303104
1761129484707850200,6.832850341796875,0.0004464337835088372,0.0004119575023651123,0.0017106225714087486
1761129484727696100,6.852696044921875,0.0003084527561441064,-0.00021630572155117989,-0.0003928821533918381
1761129484747541200,6.872541259765625,-0.0011903365375474095,0.0009227229747921228,-0.001208771951496601
1761129484767386000,6.89238623046875,0.0005227993242442608,0.00121063063852489,0.0015108156949281693
1761129484787232300,6.912232177734375,0.0004338946891948581,-0.0010692544747143984,0.00030756648629903793
1761129484807077000,6.9320771484375,-0.000669738685246557,0.0006506391800940037,0.0002422626130282879
1761129484826923300,6.95192333984375,0.000620446284301579,0.0010821146424859762,-0.00019656354561448097
1761129484846768000,6.97176806640625,-0.0012756652431562543,0.0004572237376123667,0.0003395439125597477
1761129484866614300,6.9916142578125,-0.004418554715812206,-0.00022118608467280865,0.0031898103188723326
1761129484886460200,7.011460205078125,0.001555182388983667,-0.0013377373106777668,-0.00018786266446113586
1761129484906305000,7.031304931640625,-0.0010346394265070558,0.0005183964967727661,0.0015336773358285427
1761129484926151000,7.05115087890625,-0.00032737955916672945,-0.0025386225897818804,0.00042198551818728447
1761129484945996000,7.07099609375,0.0002951433416455984,0.00013772095553576946,0.001346406526863575
1761129484965842000,7.090842041015625,-0.0012817168608307838,0.002602448221296072,0.0006414917297661304
1761129484985687000,7.11068701171875,-0.000012847944162786007,-0.0031063430942595005,-0.0020614024251699448
1761129485005532000,7.130531982421875,-0.0024044904857873917,0.0007192164193838835,-0.0007553240284323692
1761129485025378000,7.1503779296875,-0.0015004570595920086,0.0010779255535453558,-0.0027919113636016846
1761129485045223000,7.170222900390625,0.0000369903864338994,0.000758560374379158,0.00017992686480283737
1761129485065069300,7.1900693359375,0.001815511961467564,-0.000327342189848423,0.002700580283999443
1761129485084914200,7.2099140625,-0.0003988943644799292,-0.0017765293596312404,-0.0012298254296183586
1761129485104759000,7.229759033203125,-0.0008991291397251189,-0.00018307357095181942,0.002598926890641451
1761129485124605200,7.249605224609375,-0.0004100928781554103,-0.001599946990609169,0.0009307973086833954
1761129485144450300,7.2694501953125,-0.00014682498294860125,-0.001225534826517105,0.000647460576146841
1761129485164296200,7.289296142578125,0.0020532975904643536,0.00015756161883473396,0.0005195909179747105
1761129485184141000,7.30914111328125,0.00004080100916326046,-0.0005849294830113649,-0.0012529031373560429
1761129485203986200,7.328986083984375,0.0003915691049769521,0.0012830998748540878,-0.001967427786439657
1761129485223832000,7.34883203125,-0.0000767282908782363,0.003915581852197647,-0.001044349279254675
1761129485243677200,7.36867724609375,-0.0014128214679658413,-0.0015270395670086145,0.0000014444813132286072
1761129485263523000,7.388523193359375,-0.00031441182363778353,-0.00018915394321084023,-0.0001883949153125286
1761129485283368200,7.4083681640625,0.0000850604847073555,-0.0006858997512608767,-0.003421332221478224
1761129485303213000,7.428213134765625,-0.00011659652227535844,-0.00015756883658468723,-0.00027095479890704155
1761129485323059200,7.44805908203125,0.0006599003681913018,0.0007010898552834988,0.0006242794916033745
1761129485342904000,7.467904052734375,0.0013711543288081884,0.0005058478564023972,-0.0012188372202217579
1761129485362749200,7.487749267578125,0.0005300623597577214,-0.0005162549205124378,-0.0010126656852662563
1761129485382595000,7.507594970703125,-0.00114157993812114,-0.0008926901500672102,0.0013799355365335941
1761129485402440200,7.527440185546875,0.0007819084567017853,-0.00010303710587322712,0.0020402432419359684
1761129485422286000,7.5472861328125,-0.0009972767438739538,0.0010747283231467009,0.00016548391431570053
1761129485442131000,7.567130859375,0.0009966067736968398,0.00018196459859609604,-0.0033043716102838516
1761129485461976000,7.58697607421875,0.001468026777729392,0.0022394084371626377,0.0006483746692538261
1761129485481822000,7.606822021484375,-0.0023002303205430508,-0.0036353457253426313,0.0003286227583885193
1761129485501667000,7.6266669921875,-0.0019119149073958397,0.0010372144170105457,0.0017062071710824966
1761129485521513000,7.646512939453125,0.0004925173125229776,-0.001742698485031724,0.0008973130024969578
1761129485541358000,7.666358154296875,-0.00018243672093376517,-0.0004950538277626038,0.00022020656615495682
1761129485561203000,7.686202880859375,-0.00008019059896469116,-0.0000032086391001939774,0.0027386611327528954
1761129485581049000,7.706049072265625,-0.00031852821120992303,-0.0007559072691947222,-0.0006165020167827606
1761129485600894000,7.72589404296875,-0.0009622241486795247,0.0005397931672632694,0.001040690578520298
1761129485620740000,7.745739990234375,0.00007434352301061153,0.0012720855884253979,0.00034079840406775475
1761129485640585200,7.765585205078125,0.0023347705136984587,0.000529817771166563,0.0027143694460392
1761129485660430000,7.78543017578125,-0.0008559178095310926,0.00017182482406497002,0.0006795944646000862
1761129485680276200,7.805276123046875,0.0004505794495344162,-0.001071968930773437,0.0009734868071973324
1761129485700121000,7.82512109375,-0.0014400201616808772,-0.0009537856094539165,0.0012078816071152687
1761129485719966200,7.84496630859375,-0.0004320315201766789,0.0009410372003912926,0.001711432822048664
1761129485739812000,7.86481201171875,0.0006551889819093049,0.00171560887247324,-0.00010370323434472084
1761129485759657200,7.8846572265625,-0.0044095576740801334,-0.0008918694220483303,0.0026860684156417847
1761129485779503000,7.904503173828125,-0.0011082193814218044,-0.0004663020372390747,-0.0010065417736768723
1761129485799348200,7.92434814453125,-0.0013566800625994802,0.0003594497684389353,0.0020807208493351936
1761129485819193000,7.944193115234375,-0.00020048936130478978,-0.0006140279583632946,-0.0018323063850402832
1761129485839039000,7.9640390625,0.0017053820192813873,-0.001677531166933477,0.0011129830963909626
1761129485858884000,7.983884033203125,-0.00018235365860164165,-0.00011449120938777924,-0.00020140781998634338
1761129485878729200,8.003729248046875,-0.0008334685699082911,0.0007430068217217922,0.001073452178388834
1761129485898574300,8.02357421875,0.0006619872874580324,-0.00030081672593951225,-0.0019981577061116695
1761129485918419500,8.04341943359375,0.00037260062526911497,-0.0007145234849303961,0.000559008214622736
1761129485938265300,8.063265380859375,0.0017659284640103579,-0.0009389815386384726,-0.002382627222687006
1761129485958110200,8.083110107421875,0.0016074536833912134,0.0026762872003018856,-0.000822912435978651
1761129485977955300,8.102955322265625,-0.00006478867726400495,-0.001663662027567625,-0.0008168215863406658
1761129485997801200,8.12280126953125,0.0010720854625105858,0.0009533260017633438,-0.0002330280840396881
1761129486017646300,8.142646240234376,-0.000026259978767484426,0.0019413111731410027,0.001717353705316782
1761129486037492200,8.1624921875,0.00041002867510542274,0.0017187264747917652,0.002349601127207279
1761129486057337300,8.18233740234375,0.00035943888360634446,0.003887163707986474,0.0011912379413843155
1761129486077182200,8.20218212890625,0.0004112918977625668,-0.000029952963814139366,-0.0004962896928191185
1761129486097028400,8.2220283203125,-0.00034186383709311485,0.0015560025349259377,-0.0016434560529887676
1761129486116873200,8.241873291015626,-0.0013030447298660874,-0.0015868967166170478,0.00024217739701271057
1761129486136719000,8.261718994140624,0.0005749224219471216,0.0004219282418489456,-0.0013199611566960812
1761129486156564200,8.281564208984374,0.0004611832555383444,0.00006111897528171539,-0.0017701704055070877
1761129486176409300,8.301409423828124,-0.00120227737352252,-0.0012836097739636898,-0.0018666861578822136
1761129486196255500,8.32125537109375,-0.0003224530373699963,0.000635060016065836,-0.0014104773290455341
1761129486216100400,8.341100341796874,-0.0013824282214045525,0.00007180473767220974,-0.0024933642707765102
1761129486235946500,8.360946533203125,0.001857986208051443,0.0013167415745556355,-0.0007941937074065208
1761129486255791400,8.380791259765624,0.001778271747753024,0.0026394547894597054,0.00019832095131278038
1761129486275636500,8.400636474609374,-0.0008151165675371885,-0.001249575987458229,-0.0012003472074866295
1761129486295482400,8.420482421875,-0.0010126354172825813,-0.0011635225964710116,0.0017206333577632904
1761129486315327500,8.440327392578125,0.0009951133979484439,0.0017942457925528288,-0.0006793579086661339
1761129486335172400,8.46017236328125,0.0011134535307064652,-0.00042376271449029446,3.6228448152542114e-7
1761129486355018500,8.4800185546875,0.0028359810821712017,-0.0002832976169884205,-0.0008152411319315434
1761129486374863400,8.49986328125,-0.000971142144408077,-0.0008573760278522968,-0.0002661384642124176
1761129486394709200,8.519709228515625,-0.0006013857200741768,0.00047700596041977406,0.0004849284887313843
1761129486414554400,8.539554443359375,-0.00009036168921738863,-0.0008811235893517733,0.0013568270951509476
1761129486434399500,8.5593994140625,-0.0006823911098763347,-0.0010860915062949061,0.00016019120812416077
1761129486454245400,8.579245361328125,-0.0021477234549820423,0.003522271988913417,0.0005771885626018047
1761129486474090200,8.59909033203125,0.0011255794670432806,-0.00009798118844628334,-0.0001654094085097313
1761129486493936400,8.618936279296875,0.00046477699652314186,-0.00012374785728752613,-0.0012641805224120617
1761129486513781200,8.63878125,-0.00019715499365702271,0.00037928298115730286,0.0011884691193699837
1761129486533626400,8.65862646484375,0.0005824046675115824,-0.00046978797763586044,-0.0021323119290173054
1761129486553472300,8.67847216796875,0.003934433218091726,-0.0012070193188264966,0.0015212311409413815
1761129486573317400,8.6983173828125,-0.00044212667853571475,0.0015232248697429895,0.00035698339343070984
1761129486593162200,8.718162353515625,-0.0009850242640823126,-0.001010367413982749,0.0005703349597752094
1761129486613008400,8.73800830078125,-0.0015145924407988787,-0.0006071405950933695,0.00017089629545807838
1761129486632853200,8.757853271484375,0.0015682047232985497,-0.001194729353301227,-0.0006936485879123211
1761129486652699100,8.77769921875,-0.001621653325855732,-0.00007826532237231731,-0.000570323783904314
1761129486672544300,8.797544189453125,-0.001076788641512394,0.0020390842109918594,-0.0010375520214438438
1761129486692389400,8.817389404296875,0.0009671484003774822,-0.001246775733307004,-0.001319042406976223
1761129486712235500,8.837235595703126,0.0005165449110791087,-0.0020501408725976944,-0.0007620402611792088
1761129486732080000,8.857080078125,0.0011593629606068134,-0.0006573288701474667,-0.0012937611900269985
1761129486751926500,8.876926513671876,-0.0013699147384613752,-0.0011268261587247252,-0.0012527508661150932
1761129486771771400,8.896771484375,-0.00016820960445329547,0.0012881492730230093,-0.0002361265942454338
1761129486791616500,8.916616455078126,-0.000652300426736474,-0.00010052253492176533,-0.0009673899039626122
1761129486811462400,8.93646240234375,0.0011726503726094961,0.000636302400380373,-0.00012087123468518257
1761129486831307500,8.9563076171875,-0.0010798918083310127,0.0003111492842435837,0.0015293341130018234
1761129486851152400,8.97615234375,0.003963463939726353,0.0011926782317459583,0.00029487116262316704
1761129486870998300,8.995998291015624,-0.0030105046462267637,-0.0017681806348264217,0.0013488908298313618
1761129486890844000,9.015843994140624,0.00010052922880277038,0.00007642107084393501,-0.00023519620299339294
1761129486910689800,9.035689697265624,-0.0009189891861751676,0.0002461513504385948,-0.0005869804881513119
1761129486930535000,9.055534912109374,0.0006836441461928189,-0.0012961507309228182,-0.0007602269761264324
1761129486950379800,9.0753798828125,0.00015688425628468394,-0.00017443648539483547,0.0003475476987659931
1761129486970226000,9.095225830078125,-0.002464492106810212,0.00009826989844441414,0.0011495063081383705
1761129486990070800,9.11507080078125,-0.0012383221182972193,-0.0017581817228347063,0.00040341680869460106
1761129487009916700,9.134916748046875,-0.00019772339146584272,-0.0007405420765280724,-0.0011260267347097397
1761129487029761800,9.15476171875,-0.0006853797240182757,0.0003638069611042738,0.000019901897758245468
1761129487049607000,9.17460693359375,0.0008710504043847322,-0.0011039790697395802,0.0004926337860524654
1761129487069452800,9.194452880859375,-0.0009312163456343114,0.002242692280560732,0.00032740598544478416
1761129487089297700,9.214297607421875,-0.0013216445222496986,-0.0010166586143895984,0.0015472937375307083
1761129487109142800,9.234142822265625,-0.000129125255625695,0.0005545101594179869,0.000054201576858758926
1761129487128988700,9.25398876953125,-0.0008870922029018402,0.00016838754527270794,0.0011815372854471207
1761129487148833800,9.273833740234375,-0.0008552835788577795,0.0009714229963719845,-0.0016745049506425858
1761129487168679700,9.2936796875,0.0018488956848159432,-0.0035583609715104103,0.0006231633014976978
1761129487188524800,9.31352490234375,-0.0002969123306684196,0.001524853054434061,-0.0008936063386499882
1761129487208369700,9.33336962890625,0.0011538807302713394,-0.0029329778626561165,-0.0014330912381410599
1761129487228215800,9.3532158203125,0.0015033807139843702,-0.00347452936694026,0.0017875689081847668
1761129487248060700,9.373060791015625,0.0017598774284124374,0.0014021480455994606,0.0007691499777138233
1761129487267906600,9.392906494140625,0.0009236391051672399,-0.0005730963312089443,-0.0009313612245023251
1761129487287751700,9.412751708984375,-0.0012131137773394585,0.003606421872973442,0.0003611817955970764
1761129487307596800,9.4325966796875,-0.0008561869617551565,-0.0001335921697318554,-0.0005328888073563576
1761129487327442700,9.452442626953125,0.00044360803440213203,-0.0009012240916490555,-0.0013889037072658539
1761129487347287600,9.47228759765625,-0.0023026932030916214,0.00150735629722476,0.0008063553832471371
1761129487367132700,9.492132568359375,0.0006250112201087177,0.000372948357835412,0.00046001141890883446
1761129487386978800,9.511978759765626,-0.0014195977710187435,0.0013017663732171059,0.001305237878113985
1761129487406824000,9.531823974609376,-0.0006408992921933532,-0.00032266206108033657,-0.0013163313269615173
1761129487426669800,9.551669921875,-0.0005297380848787725,-0.003631914732977748,0.0018958221189677715
1761129487446515000,9.571514892578126,-0.0002755399909801781,0.0015873699449002743,-0.0011998368427157402
1761129487466359800,9.59135986328125,-0.0007241254206746817,-0.0001921395305544138,0.0013036266900599003
