time,seconds_elapsed,z,y,x
1761132339549286400,0.071286376953125,0.05102838575839996,0.01650359481573105,0.1262960284948349
1761132339569134600,0.091134521484375,0.054065581411123276,0.020286815240979195,0.1325855255126953
1761132339588982500,0.110982421875,0.05599125847220421,0.013583717867732048,0.09684175997972488
1761132339608829400,0.130829345703125,0.05653347820043564,0.005070391111075878,0.055753979831933975
1761132339628677400,0.150677490234375,0.02834046632051468,0.007626894861459732,0.024952853098511696
1761132339648525600,0.170525634765625,0.04191846400499344,-0.00734665896743536,0.03543994575738907
1761132339668373500,0.19037353515625,0.03224226459860802,-0.013251755386590958,0.04686720669269562
1761132339688220400,0.210220458984375,0.018850795924663544,-0.009056971408426762,0.019823798909783363
1761132339708068400,0.230068359375,-0.007236740551888943,-0.01356557011604309,-0.014153271913528442
1761132339727916500,0.24991650390625,-0.020564885810017586,-0.022886203601956367,-0.026441264897584915
1761132339747764200,0.26976416015625,-0.03028694912791252,-0.023807382211089134,-0.0007872767746448517
1761132339767611400,0.289611328125,-0.03771112859249115,-0.017445502802729607,-0.003134272526949644
1761132339787459300,0.309459228515625,-0.046068452298641205,-0.01859213039278984,-0.0052901930175721645
1761132339807307500,0.3293076171875,-0.04001263156533241,-0.03177783638238907,0.010804446414113045
1761132339827155500,0.349155517578125,-0.02797800488770008,-0.029212353751063347,0.027556071057915688
1761132339847003400,0.36900341796875,-0.020489390939474106,-0.01958129182457924,0.033918384462594986
1761132339866850300,0.388850341796875,-0.019943425431847572,-0.0010511905420571566,0.026249423623085022
1761132339886698500,0.408698486328125,-0.023054584860801697,0.01651749759912491,-0.007789382245391607
1761132339906546400,0.42854638671875,-0.03095143474638462,0.038316480815410614,-0.035768769681453705
1761132339926394400,0.448394287109375,-0.029835615307092667,0.036224786192178726,-0.044551823288202286
1761132339946241300,0.4682412109375,-0.011286022141575813,0.02891097031533718,-0.029707051813602448
1761132339966089500,0.48808935546875,-0.009424544870853424,0.037867963314056396,-0.01341039314866066
1761132339985937400,0.5079375,-0.000751061481423676,0.023547057062387466,0.00046370597556233406
1761132340005785300,0.527785400390625,-0.0006203637458384037,0.017345838248729706,-0.002831496298313141
1761132340025632300,0.54763232421875,-0.0019501890055835247,0.011086143553256989,0.006666622124612331
1761132340045480700,0.567480712890625,0.012706645764410496,0.00291203404776752,0.0246812105178833
1761132340065329000,0.587328857421875,0.010790995322167873,-0.0002002301625907421,0.033249929547309875
1761132340085176800,0.6071767578125,-0.0015911390073597431,0.00026431051082909107,0.028243431821465492
1761132340105023700,0.627023681640625,-0.005115909036248922,-0.0020903805270791054,0.022660378366708755
1761132340124871700,0.64687158203125,-0.007893393747508526,0.005141683854162693,0.007848385721445084
1761132340144720000,0.666719970703125,-0.010888971388339996,0.006300771608948708,-0.0015508546493947506
1761132340164567800,0.68656787109375,-0.011985905468463898,0.008789238519966602,0.0075690001249313354
1761132340184415000,0.7064150390625,-0.016233814880251884,0.023384394124150276,0.014780668541789055
1761132340204262700,0.7262626953125,-0.017784684896469116,0.011068231426179409,0.021927768364548683
1761132340224110800,0.74611083984375,-0.023399610072374344,0.009414023719727993,-0.0019389959052205086
1761132340243958800,0.765958740234375,-0.027906276285648346,0.009074680507183075,-0.017075147479772568
1761132340263806000,0.785805908203125,-0.02697155438363552,0.015216409228742123,-0.011879002675414085
1761132340283653600,0.805653564453125,-0.02757948823273182,0.021727455779910088,-0.040576331317424774
1761132340303501800,0.825501708984375,-0.03493616729974747,0.026552926748991013,-0.07114675641059875
1761132340323349800,0.845349853515625,-0.027117200195789337,0.020323514938354492,-0.07459478080272675
1761132340343197000,0.865197021484375,-0.02103445678949356,-0.0028644807171076536,-0.07776744663715363
1761132340363044900,0.885044921875,-0.0075901043601334095,0.010126271285116673,-0.05145962908864021
1761132340382892800,0.904892822265625,0.004752976354211569,-0.01741647534072399,-0.012229233980178833
1761132340402740700,0.92474072265625,0.01957688480615616,-0.03886103257536888,0.01215557474642992
1761132340422588000,0.944587890625,0.033207520842552185,-0.043920788913965225,0.045707300305366516
1761132340442435800,0.964435791015625,0.02622874639928341,-0.03082672320306301,0.06826002150774002
1761132340462283800,0.98428369140625,0.021648116409778595,-0.014557517133653164,0.054067183285951614
1761132340482131700,1.004131591796875,0.014524050056934357,-0.004462377168238163,0.013078445568680763
1761132340501979000,1.023978759765625,0.008984804153442383,0.0015959851443767548,-0.0307982936501503
1761132340521826800,1.043826904296875,-0.0014079972170293331,0.01113651692867279,-0.03050532005727291
1761132340541674800,1.0636748046875,-0.0057031153701245785,0.017666548490524292,-0.008935507386922836
1761132340561522700,1.083522705078125,-0.013505770824849606,0.016531048342585564,-0.007613681256771088
1761132340581369900,1.103369873046875,-0.009683487005531788,0.0011255175340920687,-0.013275589793920517
1761132340601217800,1.1232177734375,-0.0014993157237768173,-0.006216946057975292,-0.002274408470839262
1761132340621065700,1.143065673828125,-0.008853157982230186,-0.007151637226343155,-0.0022457921877503395
1761132340640913700,1.16291357421875,-0.012533418834209442,-0.011350207030773163,0.013079099357128143
1761132340660760800,1.1827607421875,-0.008711965754628181,-0.017011141404509544,0.016275910660624504
1761132340680608800,1.20260888671875,-0.010976049117743969,-0.021880602464079857,0.0040777213871479034
1761132340700457000,1.22245703125,-0.00908934511244297,-0.008451340720057487,0.002361765131354332
1761132340720304600,1.2423046875,-0.009353659115731716,0.01160711981356144,0.01618393324315548
1761132340740151800,1.26215185546875,-0.004419304430484772,0.017290275543928146,0.009366973303258419
1761132340759999700,1.281999755859375,0.006010144483298063,0.026040082797408104,-0.003798489458858967
1761132340779848000,1.301847900390625,0.009311830624938011,0.028741884976625443,-0.013986507430672646
1761132340799695600,1.321695556640625,0.008288846351206303,0.030197251588106155,-0.016402333974838257
1761132340819542800,1.341542724609375,0.00847714114934206,0.026789601892232895,-0.010093111544847488
1761132340839390700,1.361390625,0.00450542476028204,0.020686684176325798,0.0002963668666779995
1761132340859239000,1.381239013671875,0.003785927314311266,0.017543720081448555,0.012435220181941986
1761132340879086800,1.4010869140625,-0.0028306685853749514,0.009133949875831604,0.0001056562177836895
1761132340898933800,1.420933837890625,-0.010287546552717686,0.0032215050887316465,0.004656126722693443
1761132340918781700,1.44078173828125,-0.009149499237537384,0.012030377984046936,0.0015298486687242985
1761132340938630000,1.4606298828125,-0.003262678161263466,0.0060600778087973595,-0.0014136265963315964
1761132340958477800,1.480477783203125,0.009795001707971096,-0.00755219254642725,0.016934677958488464
1761132340978325000,1.500324951171875,0.024582523852586746,-0.024315539747476578,0.03009510040283203
1761132340998172700,1.520172607421875,0.03590518608689308,-0.027879560366272926,0.03473217785358429
1761132341018020900,1.540020751953125,0.037037890404462814,-0.013708210550248623,0.034215617924928665
1761132341037869300,1.559869384765625,0.02926946058869362,0.002055443124845624,0.013515859842300415
1761132341057716200,1.57971630859375,0.03113534115254879,0.014258645474910736,-0.014852853491902351
1761132341077564200,1.599564208984375,0.030669445171952248,0.0069449106231331825,-0.020834658294916153
1761132341097412000,1.619412109375,0.03176054358482361,-0.00021419906988739967,0.0007819538004696369
1761132341117260300,1.63926025390625,0.03675658628344536,-0.005148289259523153,0.03292316198348999
1761132341137107200,1.659107177734375,0.030021831393241882,-0.002362780272960663,0.031797200441360474
1761132341156955100,1.678955078125,0.016171373426914215,0.007580334320664406,0.00454538781195879
1761132341176803000,1.698802978515625,0.005274041090160608,0.015373904258012772,-0.014218587428331375
1761132341196651300,1.7186513671875,0.0029831225983798504,0.019807739183306694,-0.02346356026828289
1761132341216498200,1.738498291015625,0.01486583799123764,0.024322815239429474,-0.017475659027695656
1761132341236346400,1.758346435546875,0.03494841232895851,0.016226883977651596,-0.0034254989586770535
1761132341256194000,1.778194091796875,0.049726832658052444,0.003744072513654828,-0.009968671016395092
1761132341276042200,1.798042236328125,0.052040111273527145,-0.020866014063358307,-0.011013283394277096
1761132341295889200,1.81788916015625,0.05133439227938652,-0.034804195165634155,0.012120389379560947
1761132341315737300,1.8377373046875,0.049253541976213455,-0.029398489743471146,0.03014763817191124
1761132341335585000,1.8575849609375,0.0329221673309803,-0.01722918637096882,0.030186763033270836
1761132341355433200,1.87743310546875,0.00834859348833561,0.0008036885410547256,-0.0071759335696697235
1761132341375280000,1.897280029296875,-0.014700211584568024,0.017259547486901283,-0.045453134924173355
1761132341395128300,1.91712841796875,-0.017149586230516434,0.013984604738652706,-0.03825628384947777
1761132341414976000,1.93697607421875,-0.012814032845199108,0.01646239683032036,-0.01653236895799637
1761132341434824200,1.95682421875,-0.010449523106217384,0.022793689742684364,-0.01979130506515503
1761132341454671000,1.976671142578125,-0.008407289162278175,0.020105738192796707,-0.025482792407274246
1761132341474519300,1.996519287109375,-0.009403844363987446,0.01795576885342598,-0.008287293836474419
1761132341494367200,2.0163671875,-0.010606121271848679,0.018959850072860718,-0.005412844941020012
1761132341514215200,2.036215087890625,-0.013564667664468288,0.03153306618332863,-0.026332778856158257
1761132341534062000,2.05606201171875,-0.020252380520105362,0.04211682453751564,-0.03978878632187843
1761132341553910300,2.07591015625,-0.014020953327417374,0.03011457249522209,-0.02549750730395317
1761132341573758200,2.09575830078125,0.0006614239537157118,0.011714445427060127,0.012586802244186401
1761132341593605400,2.11560546875,0.0001446257228963077,-0.005100776441395283,0.023523027077317238
1761132341613453000,2.135453125,-0.015093166381120682,-0.007726296782493591,0.012243884615600109
1761132341633301200,2.15530126953125,-0.025920836254954338,-0.002371666021645069,-0.014018491841852665
1761132341653149200,2.175149169921875,-0.029957205057144165,-0.0009733862243592739,-0.010244743898510933
1761132341672996400,2.194996337890625,-0.02553030475974083,-0.007492551580071449,0.006090530194342136
1761132341692844000,2.214843994140625,-0.016134196892380714,-0.012913868762552738,0.01077594980597496
1761132341712692200,2.234692138671875,-0.014357334934175014,-0.01412347611039877,0.007931960746645927
1761132341732540200,2.2545400390625,-0.01096981018781662,-0.006021963432431221,0.0026371870189905167
1761132341752387300,2.27438720703125,-0.01176086813211441,-0.00449061393737793,-0.00796122383326292
1761132341772235300,2.2942353515625,-0.0025406673084944487,0.005280531011521816,0.0009537297300994396
1761132341792083200,2.314083251953125,0.0045433854684233665,0.002625676104798913,0.010437196120619774
1761132341811931100,2.33393115234375,0.011277017183601856,0.004167400300502777,0.01613251492381096
1761132341831778300,2.3537783203125,0.007477756589651108,0.006563134025782347,0.007500890642404556
1761132341851626200,2.373626220703125,0.002424180507659912,0.008146743290126324,-0.008549447171390057
1761132341871474200,2.39347412109375,-0.000001287669874727726,0.0025587021373212337,-0.011570438742637634
1761132341891322000,2.413322021484375,-0.0022244129795581102,0.0020936892833560705,-0.0108000123873353
1761132341911169300,2.433169189453125,-0.0023918624501675367,-0.012041524052619934,-0.0008532996289432049
1761132341931017200,2.453017333984375,-0.007248801179230213,-0.018903834745287895,0.011520697735249996
1761132341950865200,2.472865234375,-0.014215054921805859,-0.017537057399749756,-0.00328280171379447
1761132341970713000,2.492713134765625,-0.015825167298316956,-0.020327068865299225,0.0005849278531968594
1761132341990560300,2.512560302734375,-0.012641625478863716,-0.01506626233458519,0.0016480614431202412
1761132342010408200,2.532408203125,-0.004634400364011526,-0.012574048712849617,-0.008528504520654678
1761132342030256400,2.55225634765625,0.005767474882304668,-0.0089883953332901,-0.012163091450929642
1761132342050103600,2.572103515625,0.029180649667978287,-0.008704455569386482,-0.0015910882502794266
1761132342069950500,2.591950439453125,0.04867083579301834,0.004402487073093653,0.0029853314626961946
1761132342089798400,2.61179833984375,0.0701453909277916,0.014783026650547981,-0.006587977521121502
1761132342109646600,2.631646484375,0.07590186595916748,0.01676659658551216,-0.028566565364599228
1761132342129494500,2.65149462890625,0.0764075219631195,-0.0008238570298999548,-0.048823654651641846
1761132342149341700,2.671341796875,0.07011125981807709,-0.015324908308684826,-0.02671908028423786
1761132342169189400,2.691189453125,0.07478247582912445,-0.02576986514031887,0.04145125672221184
1761132342189037600,2.71103759765625,0.040877729654312134,-0.012307101860642433,0.05434313416481018
1761132342208885500,2.730885498046875,0.00873511005192995,0.0010205793660134077,0.031628090888261795
1761132342228732400,2.750732421875,-0.007644897326827049,-0.008806610479950905,0.011132455430924892
1761132342248580400,2.770580322265625,-0.022142136469483376,-0.007548987865447998,-0.0020213089883327484
1761132342268428500,2.790428466796875,-0.03849232941865921,0.0049051037058234215,-0.005777822341769934
1761132342288276500,2.8102763671875,-0.038753826171159744,0.01614067517220974,-0.00411487091332674
1761132342308123400,2.830123291015625,-0.02034701034426689,0.010281829163432121,-0.02188185788691044
1761132342327971600,2.8499716796875,-0.005092157982289791,0.012933873571455479,-0.027722114697098732
1761132342347819500,2.869819580078125,0.006139418110251427,0.0025335310492664576,-0.004427236970514059
1761132342367667500,2.88966748046875,0.01598319783806801,0.0005994928069412708,0.029691243544220924
1761132342387514400,2.909514404296875,0.01905946061015129,0.008926193229854107,0.048588454723358154
1761132342407362600,2.929362548828125,0.013386297039687634,0.011254260316491127,0.04348039627075195
1761132342427210500,2.94921044921875,0.00828752014786005,0.01527894102036953,0.01415475644171238
1761132342447058400,2.969058349609375,0.009993278421461582,0.014079399406909943,-0.014895590022206306
1761132342466905300,2.9889052734375,-0.0009974038694053888,0.015014555305242538,-0.03374193236231804
1761132342486753500,3.00875341796875,-0.01458194013684988,0.0081123486161232,-0.020045442506670952
1761132342506601500,3.0286015625,-0.021780245006084442,0.005710753612220287,-0.025823630392551422
1761132342526449400,3.048449462890625,-0.02966710552573204,-0.0007652470376342535,-0.05516219884157181
1761132342546296300,3.06829638671875,-0.03847835585474968,0.002414181362837553,-0.0692698135972023
1761132342566144500,3.08814453125,-0.046029455959796906,-0.00005780463106930256,-0.06249412149190903
1761132342585992400,3.107992431640625,-0.053316790610551834,-0.0017648222856223583,-0.026814859360456467
1761132342605840400,3.12784033203125,-0.05589891970157623,-0.003083608578890562,-0.0028533092699944973
1761132342625687300,3.147687255859375,-0.047688789665699005,-0.009906026534736156,0.004902712069451809
1761132342645535500,3.167535400390625,-0.03494665399193764,-0.010731566697359085,0.008615352213382721
1761132342665383700,3.1873837890625,-0.028472483158111572,-0.007038600742816925,0.003160205902531743
1761132342685231400,3.2072314453125,-0.029722614213824272,0.007982378825545311,-0.0026787230744957924
1761132342705078300,3.227078369140625,-0.022190628573298454,0.005930858664214611,-0.00047813355922698975
1761132342724926500,3.246926513671875,-0.0019866395741701126,0.007507304660975933,0.02918686717748642
1761132342744774700,3.266774658203125,0.004814357031136751,0.00793568603694439,0.037517450749874115
1761132342764622300,3.286622314453125,0.006024415139108896,0.007839134894311428,0.031816206872463226
1761132342784469200,3.30646923828125,-0.0020115806255489588,0.012314590625464916,0.0007854653522372246
1761132342804317400,3.3263173828125,-0.005231763701885939,0.0002082355786114931,-0.005745911505073309
1761132342824165600,3.34616552734375,-0.004493013955652714,-0.014888295903801918,0.008412322029471397
1761132342844013600,3.366013671875,-0.008477890864014626,-0.019417930394411087,0.021411940455436707
1761132342863860500,3.385860595703125,-0.015857215970754623,-0.023702995851635933,0.01890118420124054
1761132342883708400,3.40570849609375,-0.02413957379758358,-0.01699102111160755,0.014500332996249199
1761132342903556400,3.425556396484375,-0.01814424991607666,-0.019255679100751877,0.016590526327490807
1761132342923404500,3.445404541015625,-0.0020822470542043447,-0.01913522556424141,0.03569696471095085
1761132342943251500,3.46525146484375,0.0031873220577836037,-0.006583173759281635,0.043843235820531845
1761132342963099400,3.485099365234375,0.004869264550507069,-0.008392097428441048,0.02503170445561409
1761132342982947300,3.504947265625,0.011394617147743702,-0.012101694010198116,0.013875460252165794
1761132343002795500,3.52479541015625,0.010483300313353539,-0.01325635053217411,0.01183322537690401
1761132343022642400,3.544642333984375,0.0007288243505172431,0.002399782883003354,0.02636665664613247
1761132343042491000,3.564490966796875,-0.00494226161390543,0.007105645723640919,0.02497725747525692
1761132343062339000,3.584339111328125,-0.01634724996984005,0.01436728797852993,0.02154630608856678
1761132343082187000,3.60418701171875,-0.01988680101931095,0.006483984179794788,-0.0003436668775975704
1761132343102034200,3.6240341796875,-0.024220213294029236,0.004435095936059952,-0.01094842329621315
1761132343121881900,3.6438818359375,-0.016358157619833946,-0.0007536394987255335,0.013885408639907837
1761132343141730000,3.66372998046875,-0.00587528245523572,-0.02061099372804165,0.020519154146313667
1761132343161578000,3.683577880859375,-0.0038548652082681656,-0.016519829630851746,0.016384374350309372
1761132343181425200,3.703425048828125,-0.004013001453131437,-0.00581799540668726,0.01354825310409069
1761132343201273000,3.723273193359375,-0.009499451145529747,0.00476033752784133,-0.006129866931587458
1761132343221121000,3.74312109375,0.0018315555062144995,0.015625158324837685,-0.013119986280798912
1761132343240969000,3.762968994140625,0.005768633913248777,0.01751699671149254,0.001385621726512909
1761132343260816100,3.782816162109375,0.007784681860357523,0.01841227151453495,0.0025840657763183117
1761132343280664000,3.8026640625,0.019120758399367332,0.012893986888229847,-0.006908432114869356
1761132343300512000,3.822511962890625,0.03012339398264885,-0.0013238528044894338,0.002418691758066416
1761132343320360000,3.84235986328125,0.043150123208761215,-0.00457769213244319,0.007681140676140785
1761132343340207000,3.86220703125,0.037284884601831436,-0.0003290416207164526,0.01005723886191845
1761132343360055000,3.882054931640625,0.04097472131252289,-0.008322732523083687,0.022047415375709534
1761132343379903000,3.901903076171875,0.03144606202840805,-0.011308463290333748,0.04111981391906738
1761132343399751000,3.9217509765625,0.015511339530348778,-0.0020174100063741207,0.015784364193677902
1761132343419598000,3.94159814453125,-0.002537260763347149,-0.000990601722151041,-0.013334009796380997
1761132343439446000,3.961446044921875,-0.014663110487163067,-0.0005845485720783472,-0.016685985028743744
1761132343459294200,3.981294189453125,-0.008580788038671017,-0.005242956802248955,-0.0034785903990268707
1761132343479142000,4.001141845703125,-0.0033523710444569588,-0.007121582515537739,0.01733836904168129
1761132343498988000,4.020988037109375,-0.004928122274577618,0.007362390402704477,0.00886792317032814
1761132343518836000,4.0408359375,0.003141231369227171,0.0004932831507176161,-0.0027710176073014736
1761132343538684200,4.06068408203125,0.008044654503464699,-0.006254763342440128,-0.020427312701940536
1761132343558531000,4.080531005859375,0.008887712843716145,-0.011392500251531601,-0.00937449000775814
1761132343578379300,4.100379150390625,0.011060824617743492,-0.013029507361352444,0.01685544289648533
1761132343598227000,4.12022705078125,-0.002180590992793441,-0.0029325673822313547,0.01552882045507431
1761132343618073900,4.140073974609375,-0.022255809977650642,0.006616145372390747,-0.0032312339171767235
1761132343637922000,4.159922119140625,-0.0447404570877552,0.01708519086241722,-0.025244150310754776
1761132343657770200,4.179770263671875,-0.05654014274477959,0.02172938920557499,-0.05276326835155487
1761132343677618000,4.199617919921875,-0.059585291892290115,0.00716667203232646,-0.06793171912431717
1761132343697466000,4.219466064453125,-0.06128833442926407,0.012131579220294952,-0.0277731791138649
1761132343717313000,4.23931298828125,-0.04226723685860634,0.0034030131064355373,0.008463867008686066
1761132343737161200,4.2591611328125,-0.029650187119841576,0.005471943877637386,0.02046581357717514
1761132343757009200,4.279009033203125,-0.009604197926819324,0.0018245859537273645,0.011907771229743958
1761132343776857000,4.298857177734375,0.013595525175333023,0.0013872263953089714,0.008884984999895096
1761132343796704000,4.3187041015625,0.03695658966898918,0.004165850579738617,0.010470583103597164
1761132343816552200,4.33855224609375,0.03971800208091736,0.02177467569708824,0.01251550205051899
1761132343836400000,4.358400146484375,0.04597816616296768,0.016612200066447258,0.007903803139925003
1761132343856248000,4.378248046875,0.04144729673862457,0.014128085225820541,0.017433371394872665
1761132343876095000,4.398094970703125,0.034192971885204315,0.019598206505179405,0.03659876808524132
1761132343895943200,4.417943115234375,0.026919126510620117,0.017601896077394485,0.04404912143945694
1761132343915791000,4.437791015625,0.012172161601483822,0.015931837260723114,0.031511884182691574
1761132343935639000,4.45763916015625,0.0029801009222865105,0.009833923541009426,0.016270922496914864
1761132343955487000,4.477487060546875,-0.007557951845228672,-0.003471571719273925,0.0006887707859277725
1761132343975335200,4.497335205078125,-0.010072101838886738,-0.0008837059140205383,-0.0037764529697597027
1761132343995182000,4.51718212890625,-0.022220460698008537,0.0017815076280385256,-0.004739611875265837
1761132344015030300,4.5370302734375,-0.027268201112747192,0.00433629285544157,-0.011709554120898247
1761132344034878000,4.5568779296875,-0.021750086918473244,-0.010900133289396763,0.010726729407906532
1761132344054725600,4.5767255859375,-0.011256405152380466,-0.02123909629881382,0.05132349580526352
1761132344074572500,4.596572509765625,-0.008627575822174549,-0.015268011018633842,0.07097029685974121
1761132344094420700,4.616420654296875,-0.00862303376197815,0.006177444942295551,0.05355309695005417
1761132344114268700,4.6362685546875,-0.004175776150077581,0.02191784232854843,0.015696212649345398
1761132344134116600,4.65611669921875,0.005966018885374069,0.03192581236362457,0.010023267939686775
1761132344153963500,4.675963623046875,0.003302968107163906,0.03909781202673912,0.0008702748455107212
1761132344173811700,4.695811767578125,0.00138327875174582,0.044113997370004654,-0.017911354079842567
1761132344193660000,4.715659912109375,-0.0010334942489862442,0.030840324237942696,-0.03039151057600975
1761132344213507600,4.735507568359375,0.0024006336461752653,0.012748843990266323,-0.025490105152130127
1761132344233354500,4.7553544921875,0.014790063723921776,-0.007274064235389233,-0.00021501118317246437
1761132344253202700,4.77520263671875,0.019847562536597252,-0.017683936282992363,0.008928660303354263
1761132344273051000,4.79505078125,0.020022181794047356,-0.0271870419383049,0.00451638363301754
1761132344292898600,4.814898681640625,0.014160365797579288,-0.037588488310575485,0.002886338159441948
1761132344312745500,4.834745361328125,0.021980827674269676,-0.046117693185806274,0.01216176152229309
1761132344332593700,4.85459375,0.025643611326813698,-0.035914793610572815,0.025480328127741814
1761132344352441900,4.87444189453125,0.025707943364977837,-0.018013346940279007,0.013222359120845795
1761132344372289500,4.89428955078125,0.02455313876271248,-0.018487485125660896,0.00878407433629036
1761132344392136400,4.914136474609375,0.027910320088267326,-0.00837599579244852,-0.007872133515775204
1761132344411984600,4.933984619140625,0.028653478249907494,0.004256239160895348,-0.026763437315821648
1761132344431832800,4.953832763671875,0.009764552116394043,0.01617167703807354,-0.0409650057554245
1761132344451680800,4.9736806640625,-0.004458319395780563,0.019712837412953377,-0.04126119986176491
1761132344471527700,4.993527587890625,-0.0038747931830585003,0.01601925864815712,-0.03897932916879654
1761132344491375600,5.013375732421875,-0.005451827775686979,0.027750488370656967,-0.04257834702730179
1761132344511223800,5.033223876953125,-0.011895352974534035,0.018626907840371132,-0.041826032102108
1761132344531071700,5.05307177734375,-0.005241405684500933,0.0067211780697107315,-0.01944107376039028
1761132344550918700,5.072918701171875,-0.003557473188266158,-0.0013868289534002542,0.0018398337997496128
1761132344570766600,5.0927666015625,0.00117152975872159,-0.00042892969213426113,-0.0002759750932455063
1761132344590614500,5.112614501953125,-0.010937951505184174,0.016659945249557495,-0.020578747615218163
1761132344610462700,5.132462646484375,-0.025899169966578484,0.020145714282989502,-0.032908618450164795
1761132344630309600,5.1523095703125,-0.03232024982571602,0.02837621420621872,-0.04240996018052101
1761132344650157600,5.172157470703125,-0.026557018980383873,0.02654951997101307,-0.010952175594866276
1761132344670005500,5.192005615234375,-0.029882699251174927,0.02436547912657261,0.017780691385269165
1761132344689853700,5.211853759765625,-0.028926678001880646,0.009905563667416573,0.007346527185291052
1761132344709700600,5.23170068359375,-0.031708717346191406,0.011087508872151375,-0.003463338129222393
1761132344729548800,5.251548828125,-0.037918321788311005,0.012068446725606918,-0.006105827633291483
1761132344749396500,5.271396484375,-0.03471514210104942,-0.0026726939249783754,0.01854090765118599
1761132344769244700,5.29124462890625,-0.023584768176078796,-0.007293517701327801,0.02506842464208603
1761132344789091600,5.311091552734375,-0.027818264439702034,-0.00543668307363987,0.025968629866838455
1761132344808939800,5.330939697265625,-0.028510870411992073,-0.01175035908818245,0.021208180114626884
1761132344828787500,5.350787353515625,-0.028056452050805092,-0.011647149920463562,0.030161947011947632
1761132344848635600,5.3706357421875,-0.023119600489735603,-0.0039046017918735743,0.022725362330675125
1761132344868482600,5.390482666015625,-0.02173895575106144,0.008080029860138893,0.016703782603144646
1761132344888330800,5.410330810546875,-0.025554191321134567,0.0069009168073534966,-0.007111872546374798
1761132344908178700,5.4301787109375,-0.03151567652821541,0.0038095193449407816,-0.011718075722455978
1761132344928026600,5.450026611328125,-0.018894772976636887,-0.006623561959713697,0.010186471976339817
1761132344947873500,5.46987353515625,-0.012240388430655003,-0.007762249559164047,0.017774205654859543
1761132344967721700,5.4897216796875,-0.013724079355597496,0.0013023011852055788,0.0026365811936557293
1761132344987569700,5.509569580078125,-0.021709302440285683,-0.0005725643131881952,-0.006720435805618763
1761132345007417600,5.52941748046875,-0.019131245091557503,0.0018943862523883581,-0.0118491780012846
1761132345027264500,5.549264404296875,-0.02497165836393833,0.004965569358319044,-0.004546886309981346
1761132345047112700,5.56911279296875,-0.02613871358335018,-0.0014541164273396134,-0.001844136044383049
1761132345066961000,5.5889609375,-0.022551463916897774,0.0004647299647331238,-0.004722286947071552
1761132345086808600,5.60880859375,-0.015969417989253998,0.005898689851164818,-0.009503244422376156
1761132345106655700,5.62865576171875,-0.006993694230914116,0.0008104655425995588,-0.014662563800811768
1761132345126503700,5.648503662109375,0.0016729752533137798,-0.008418639190495014,-0.001676604151725769
1761132345146351900,5.668351806640625,0.010934246703982353,-0.00951699260622263,0.006809195037931204
1761132345166199800,5.68819970703125,0.013497378677129745,-0.014108126983046532,0.001095194835215807
1761132345186046700,5.708046630859375,0.008933202363550663,-0.005611813627183437,-0.02550732158124447
1761132345205894700,5.727894775390625,0.00919246580451727,-0.0005807697307318449,-0.012589825317263603
1761132345225742800,5.747742919921875,0.00815628468990326,0.00943663064390421,-0.02026970498263836
1761132345245590800,5.7675908203125,0.0011433186009526253,0.0016942375805228949,-0.026448845863342285
1761132345265438000,5.78743798828125,0.010344687849283218,-0.009461279027163982,-0.007623465731739998
1761132345285285600,5.80728564453125,0.024642806500196457,-0.01934686303138733,-0.0011047483421862125
1761132345305133800,5.8271337890625,0.017863856628537178,-0.024724388495087624,-0.005584017373621464
1761132345324981800,5.846981689453125,0.02007802203297615,-0.03607996553182602,0.0014999224804341793
1761132345344829000,5.866828857421875,0.021661147475242615,-0.04318632557988167,0.004854484461247921
1761132345364676600,5.886676513671875,0.020087504759430885,-0.02925523743033409,0.007721255533397198
1761132345384524800,5.90652490234375,0.022311391308903694,-0.02158060483634472,0.02697087824344635
1761132345404372700,5.926372802734375,0.026227852329611778,-0.010625334456562996,0.03826841339468956
1761132345424220000,5.946219970703125,0.024396969005465508,0.0003328714519739151,0.011537737213075161
1761132345444067800,5.96606787109375,0.015556255355477333,0.015022985637187958,-0.023541904985904694
1761132345463915800,5.985915771484375,0.002507271245121956,0.028144152835011482,-0.04763133451342583
1761132345483763700,6.005763671875,-0.01197571400552988,0.03670273721218109,-0.06516002118587494
1761132345503611000,6.02561083984375,-0.0208135899156332,0.04360352084040642,-0.08061312884092331
1761132345523458800,6.045458740234375,-0.015185143798589706,0.03761895000934601,-0.05197112634778023
1761132345543306800,6.065306640625,-0.01597840152680874,0.022475015372037888,0.029394643381237984
1761132345563154700,6.08515478515625,-0.02459319494664669,0.014837868511676788,0.03733246028423309
1761132345583001900,6.105001953125,-0.017661795020103455,0.019069232046604156,0.0194986741989851
1761132345602849800,6.124849853515625,-0.01433601789176464,0.011649934574961662,-0.022660905495285988
1761132345622697700,6.14469775390625,-0.017358411103487015,0.006156594026833773,-0.02561108209192753
1761132345642545700,6.164545654296875,-0.00724832946434617,-0.01243086252361536,0.019967583939433098
1761132345662392800,6.184392822265625,-0.01181365642696619,-0.001801449921913445,0.04333725571632385
1761132345682240800,6.20424072265625,-0.011069836094975471,0.005130225792527199,0.017952805384993553
1761132345702089000,6.2240888671875,0.00252264435403049,-0.0088705038651824,-0.008549181744456291
1761132345721936600,6.2439365234375,0.012400555424392223,-0.017645452171564102,-0.015359829179942608
1761132345741783800,6.26378369140625,0.03125595673918724,-0.032720062881708145,0.0013744593597948551
1761132345761631700,6.2836318359375,0.04214269295334816,-0.044400155544281006,0.018922826275229454
1761132345781480000,6.30347998046875,0.04342709109187126,-0.048081494867801666,0.0354645699262619
1761132345801327600,6.32332763671875,0.04759496450424194,-0.04141217842698097,0.04079975187778473
1761132345821174800,6.3431748046875,0.03760393336415291,-0.032945308834314346,0.03601160645484924
1761132345841022700,6.363022705078125,0.03193658962845802,-0.038875970989465714,0.0554850734770298
1761132345860871000,6.382870849609375,0.026098983362317085,-0.03826312720775604,0.07620894908905029
1761132345880718600,6.402718505859375,0.010757173411548138,-0.028694720938801765,0.08523190766572952
1761132345900565800,6.422565673828125,-0.02359655313193798,-0.042794279754161835,0.10995656996965408
1761132345920413700,6.44241357421875,-0.02779763750731945,-0.05304763838648796,0.09561105072498322
1761132345940262000,6.462261962890625,-0.0484607107937336,-0.02402244508266449,0.029225798323750496
1761132345960109800,6.48210986328125,-0.05188535898923874,0.0029063636902719736,-0.017111754044890404
1761132345979957000,6.50195703125,-0.06975934654474258,-0.004856606014072895,-0.02640490233898163
1761132345999804700,6.5218046875,-0.06196044757962227,0.02253318391740322,-0.004325868561863899
1761132346019652900,6.54165283203125,-0.05707232281565666,0.020087402313947678,0.002940520877018571
1761132346039501300,6.561501220703125,-0.04446490481495857,0.021667543798685074,-0.01647644303739071
1761132346059348200,6.58134814453125,-0.027333449572324753,0.0050843749195337296,-0.03170723095536232
1761132346079196200,6.601196044921875,-0.00997725035995245,0.004829352721571922,-0.016583112999796867
1761132346099044000,6.621044189453125,0.009569918736815453,-0.009072111919522285,0.01077963039278984
1761132346118892300,6.640892333984375,0.0320889838039875,-0.01592417061328888,0.04428764060139656
1761132346138739200,6.6607392578125,0.05145104601979256,-0.01797066442668438,0.05304007604718208
1761132346158587100,6.680587158203125,0.061037298291921616,-0.012386158108711243,0.04093671217560768
1761132346178435000,6.70043505859375,0.06426705420017242,0.0017547651659697294,0.0070313080213963985
1761132346198283300,6.720283203125,0.05079353228211403,0.01539511326700449,-0.026863936334848404
1761132346218130200,6.740130126953125,0.033022332936525345,0.031492508947849274,-0.02894066460430622
1761132346237978000,6.75997802734375,0.02361006662249565,0.026999246329069138,-0.010281979106366634
1761132346257826000,6.779825927734375,0.007605754770338535,0.03013240359723568,0.005341770127415657
1761132346277674200,6.79967431640625,-0.0062013487331569195,0.03428339213132858,0.010026149451732635
1761132346297521200,6.819521240234375,-0.012616514228284359,0.019224263727664948,0.006702746730297804
1761132346317369300,6.839369384765625,-0.02160857804119587,0.0017887824214994907,0.005056474823504686
1761132346337217000,6.859217041015625,-0.03333235904574394,-0.0013264548033475876,0.010736269876360893
1761132346357064200,6.879064208984375,-0.04335010424256325,0.006113884970545769,0.01577550172805786
1761132346376912100,6.898912109375,-0.04995939880609512,0.01596924476325512,0.007262805476784706
1761132346396760300,6.91876025390625,-0.05769266188144684,0.022264376282691956,-0.0013355696573853493
1761132346416608000,6.93860791015625,-0.0560893788933754,0.020535916090011597,-0.00649087131023407
1761132346436456200,6.958456298828125,-0.04010818153619766,0.016799738630652428,0.00824928842484951
1761132346456303000,6.97830322265625,-0.03415791317820549,-0.0019570759031921625,0.02077464945614338
1761132346476151300,6.9981513671875,-0.029267912730574608,-0.0017131570493802428,0.021656803786754608
1761132346495999000,7.0179990234375,-0.021144123747944832,0.00247534504160285,0.007937482558190823
1761132346515846100,7.03784619140625,-0.016423936933279037,0.004992564674466848,0.0033549813088029623
1761132346535694000,7.057694091796875,-0.010718252509832382,0.0015082817990332842,0.0032398344483226538
1761132346555542300,7.077542236328125,-0.0014962311834096909,-0.007624269463121891,0.005535285919904709
1761132346575390200,7.09739013671875,0.008844051510095596,-0.003005056409165263,0.006623260676860809
1761132346595237400,7.1172373046875,0.008370275609195232,-0.001026061363518238,0.0033859219402074814
1761132346615085000,7.1370849609375,0.0008610569057054818,-0.008930562995374203,-0.014413697645068169
1761132346634933200,7.156933349609375,-0.004648054484277964,-0.01827535592019558,-0.007339159958064556
1761132346654781200,7.17678125,-0.01923235133290291,-0.015971148386597633,-0.001102642621845007
1761132346674628400,7.19662841796875,-0.03296517953276634,-0.005551837384700775,-0.010753598995506763
1761132346694476000,7.21647607421875,-0.043935760855674744,-0.0050210184417665005,-0.008510734885931015
1761132346714324200,7.23632421875,-0.037676192820072174,0.0004632435739040375,-0.008439871482551098
1761132346734172200,7.256172119140625,-0.029233815148472786,0.005596115719527006,-0.01660221815109253
1761132346754019300,7.276019287109375,-0.02480478771030903,0.0014450305607169867,-0.02503008209168911
1761132346773867000,7.295866943359375,-0.011605335399508476,0.0026759032625705004,-0.02599700167775154
1761132346793715200,7.315715087890625,-0.010524628683924675,0.004907415248453617,-0.017051124945282936
1761132346813563100,7.335563232421875,-0.0037279981188476086,0.009307746775448322,-0.017312241718173027
1761132346833410300,7.355410400390625,0.006988374050706625,0.006337721832096577,-0.01400352455675602
1761132346853258200,7.37525830078125,0.0022163265384733677,0.0038732383400201797,-0.010875886306166649
1761132346873106200,7.395106201171875,-0.0019747887272387743,0.018131569027900696,0.003704293631017208
1761132346892954000,7.4149541015625,0.010770988650619984,0.006703035440295935,-0.0014793085865676403
1761132346912801300,7.43480126953125,0.018335025757551193,0.0024863819126039743,-0.006108779460191727
1761132346932649200,7.454649169921875,0.024711770936846733,-0.0019925113301724195,-0.007717306260019541
1761132346952497200,7.4744970703125,0.02529778890311718,-0.015736572444438934,-0.004330343101173639
1761132346972345000,7.494344970703125,0.029655415564775467,-0.02529134787619114,0.0290062315762043
1761132346992192300,7.514192138671875,0.03112969361245632,-0.015301618725061417,0.054438136518001556
1761132347012040200,7.534040283203125,0.02671552449464798,-0.000745484372600913,0.04159358888864517
1761132347031888100,7.55388818359375,0.022345460951328278,0.008694211021065712,0.012323366478085518
1761132347051735300,7.5737353515625,0.021672643721103668,-0.005538496188819408,0.0020655724219977856
1761132347071582200,7.593582275390625,0.021235086023807526,0.005454500205814838,0.013871898874640465
1761132347091430100,7.61343017578125,0.013573926873505116,0.014551271684467793,0.021233191713690758
1761132347111278300,7.6332783203125,0.00943811982870102,0.01890275813639164,0.005746595561504364
1761132347131126500,7.65312646484375,0.01700769178569317,0.004990200977772474,0.0008073071949183941
1761132347150973400,7.672973388671875,0.026588765904307365,0.00792456790804863,0.025299232453107834
1761132347170821000,7.692821044921875,0.03209736943244934,0.010532050393521786,0.02330954186618328
1761132347190669300,7.71266943359375,0.03395869582891464,0.014594278298318386,0.0025880220346152782
1761132347210517500,7.732517578125,0.04048452526330948,0.006645836867392063,-0.021030135452747345
1761132347230364400,7.752364501953125,0.05124921724200249,0.0020830316934734583,-0.03274087607860565
1761132347250212000,7.772212158203125,0.04574516788125038,-0.003173262346535921,-0.01236437726765871
1761132347270060300,7.792060302734375,0.03048115409910679,-0.0068368976935744286,0.006284630391746759
1761132347289908500,7.811908447265625,0.009933634661138058,-0.010800778865814209,0.014380468055605888
1761132347309755400,7.83175537109375,0.006345474626868963,-0.008376119658350945,0.007471477147191763
1761132347329603000,7.85160302734375,-0.0004244474694132805,-0.0016633844934403896,0.0007910332642495632
1761132347349451300,7.871451171875,0.0004945818218402565,-0.02034621872007847,0.008195080794394016
1761132347369299500,7.891299560546875,-0.006102168001234531,-0.026952426880598068,0.016508841887116432
1761132347389146400,7.911146484375,-0.007860947400331497,-0.026760108768939972,0.023339509963989258
1761132347408994300,7.930994384765625,0.0015605348162353039,-0.03243361413478851,0.011628136970102787
1761132347428842200,7.95084228515625,0.004763767588883638,-0.021253224462270737,-0.014344485476613045
1761132347448690400,7.9706904296875,-0.00637733843177557,-0.0016982583329081535,-0.018745360895991325
1761132347468537300,7.990537353515625,-0.018394310027360916,0.009121499955654144,-0.00553189218044281
1761132347488385300,8.01038525390625,-0.011372284963726997,-0.0018264263635501266,-0.015063269063830376
1761132347508232400,8.030232421875,-0.001973397098481655,-0.019073987379670143,-0.028504949063062668
1761132347528080100,8.050080078125,-0.009868080727756023,-0.01402130164206028,-0.008709335699677467
1761132347547928300,8.06992822265625,-0.017099158838391304,-0.010741233825683594,0.0019892873242497444
1761132347567776300,8.0897763671875,-0.0153964813798666,-0.01461180578917265,0.013554571196436882
1761132347587623400,8.10962353515625,-0.020424621179699898,-0.011742355301976204,0.018151018768548965
1761132347607471000,8.12947119140625,-0.02875877358019352,-0.00842610839754343,0.02070031687617302
1761132347627319300,8.1493193359375,-0.027289489284157753,-0.00194814323913306,0.02334844321012497
1761132347647167200,8.169167236328125,-0.026705246418714523,-0.0026066626887768507,0.020302705466747284
1761132347667014400,8.189014404296875,-0.03245798498392105,0.004777696914970875,0.008075384423136711
1761132347686862300,8.2088623046875,-0.03799060732126236,0.005310617387294769,0.003570530330762267
1761132347706710300,8.228710205078125,-0.03610937297344208,0.011846005916595459,0.0029107388108968735
1761132347726558200,8.24855810546875,-0.028504062443971634,0.01413949765264988,0.001931448932737112
1761132347746405400,8.2684052734375,-0.028428146615624428,0.015168633311986923,0.00020506512373685837
1761132347766253300,8.28825341796875,-0.021642301231622696,-0.0002493648789823055,0.009379679337143898
1761132347786101200,8.308101318359375,-0.00361062865704298,0.00025970092974603176,0.044816676527261734
1761132347805949200,8.32794921875,0.00626181298866868,-0.0062691220082342625,0.04688013345003128
1761132347825796400,8.34779638671875,0.008480880409479141,-0.0017399061471223831,0.022246647626161575
1761132347845644300,8.367644287109375,0.004591744858771563,0.014354397542774677,-0.008787388913333416
1761132347865492200,8.3874921875,-0.001576301408931613,0.013779130764305592,-0.015787944197654724
1761132347885339100,8.407339111328126,0.008356040343642235,0.017264287918806076,-0.020294860005378723
1761132347905187300,8.427187255859375,0.008386211469769478,0.01735156774520874,-0.04052769020199776
1761132347925035300,8.44703515625,-0.00357774063013494,0.015187393873929977,-0.05438143387436867
1761132347944883500,8.466883544921876,-0.00018875772366300225,-0.00434145936742425,-0.025117795914411545
1761132347964731100,8.486731201171875,0.012034940533339977,-0.020552465692162514,0.005211759824305773
1761132347984578300,8.506578369140625,0.008951311931014061,-0.012319251894950867,0.0031882403418421745
1761132348004426200,8.52642626953125,0.006371390540152788,0.005915084388107061,-0.02309180609881878
1761132348024274400,8.5462744140625,0.01300358772277832,0.011773169972002506,-0.03164038434624672
1761132348044121600,8.56612158203125,0.016898993402719498,0.002667555818334222,-0.017412979155778885
1761132348063969300,8.58596923828125,0.013517968356609344,0.010455423966050148,-0.016272656619548798
1761132348083817500,8.6058173828125,0.01584508828818798,0.01612050086259842,-0.031161431223154068
1761132348103665400,8.62566552734375,0.01489949319511652,-0.0006336986552923918,-0.019290775060653687
1761132348123512600,8.6455126953125,0.0033750473521649837,-0.01942942477762699,0.04652256891131401
1761132348143360300,8.6653603515625,0.021676961332559586,-0.028129639104008675,0.07499106228351593
1761132348163208400,8.68520849609375,0.015887092798948288,-0.024310028180480003,0.06442525237798691
1761132348183056400,8.705056396484375,0.012395266443490982,-0.009467591531574726,0.015492627397179604
1761132348202903600,8.724903564453125,0.004249923396855593,0.003613004693761468,-0.021626584231853485
1761132348222751500,8.74475146484375,0.010408969596028328,0.00011675199493765831,-0.033230461180210114
1761132348242599400,8.764599365234375,0.0203557051718235,-0.010412301868200302,-0.02508397027850151
1761132348262447400,8.784447265625,0.006233822088688612,-0.003870639018714428,-0.01677721180021763
1761132348282294500,8.80429443359375,0.016018075868487358,0.0028632187750190496,-0.01404366921633482
1761132348302142500,8.824142578125,0.038718272000551224,-0.024301212280988693,-0.04206239804625511
