time,seconds_elapsed,z,y,x
1761132325966899200,0.125899169921875,-0.051025390625,0.7042346000671387,-0.31443631649017334
1761132325986899200,0.145899169921875,-0.019811630249023438,0.574142575263977,-0.21258509159088135
1761132325996886300,0.15588623046875,-0.0036869049072265625,0.5119447708129883,-0.16183972358703613
1761132326006886400,0.165886474609375,0.013052940368652344,0.45053303241729736,-0.11013031005859375
1761132326016886300,0.17588623046875,0.027357101440429688,0.39513731002807617,-0.07954663038253784
1761132326026886400,0.185886474609375,0.03772735595703125,0.3580961227416992,-0.05280512571334839
1761132326036886300,0.19588623046875,0.04390239715576172,0.33968091011047363,-0.029283523559570312
1761132326046886400,0.205886474609375,0.04523944854736328,0.3407111167907715,-0.012404322624206543
1761132326066886400,0.225886474609375,0.03576183319091797,0.3905482292175293,0.0022283196449279785
1761132326076886300,0.23588623046875,0.028041839599609375,0.43143343925476074,0.012553095817565918
1761132326086886400,0.245886474609375,0.02030467987060547,0.4774348735809326,0.03152799606323242
1761132326096886500,0.255886474609375,0.01390838623046875,0.5233418941497803,0.06103849411010742
1761132326106886400,0.265886474609375,0.010010719299316406,0.5633741617202759,0.10040658712387085
1761132326116886500,0.275886474609375,0.0092315673828125,0.592315673828125,0.1456926465034485
1761132326126886400,0.285886474609375,0.011256217956542969,0.6091747283935547,0.19267398118972778
1761132326136886500,0.295886474609375,0.015256881713867188,0.6166225671768188,0.23899823427200317
1761132326146886400,0.305886474609375,0.020293235778808594,0.6183092594146729,0.2829543948173523
1761132326156887000,0.315886962890625,0.025667190551757812,0.6166095733642578,0.32291179895401
1761132326166887000,0.325886962890625,0.03172111511230469,0.6120076179504395,0.3625125288963318
1761132326176887000,0.335886962890625,0.036902427673339844,0.6113994121551514,0.40010493993759155
1761132326186887000,0.345886962890625,0.039841651916503906,0.6171697378158569,0.42935889959335327
1761132326196886000,0.355885986328125,-2.560802936553955,0.6671010255813599,0.7590320110321045
1761132326206886000,0.365885986328125,-2.3328285217285156,0.7502015829086304,0.5070710182189941
1761132326216886000,0.375885986328125,-1.8352546691894531,0.6755287647247314,0.2516976594924927
1761132326226886000,0.385885986328125,-1.347102165222168,0.6012650728225708,0.029131531715393066
1761132326236886000,0.395885986328125,-0.8960456848144531,0.5614122152328491,-0.14442753791809082
1761132326246886000,0.405885986328125,-0.5006589889526367,0.5167001485824585,-0.17635047435760498
1761132326256886000,0.415885986328125,-0.2041492462158203,0.4676734209060669,-0.10829603672027588
1761132326266886000,0.425885986328125,0.16823577880859375,0.3894059658050537,0.09170818328857422
1761132326276886000,0.435885986328125,0.7480049133300781,0.26773345470428467,0.22617077827453613
1761132326286886000,0.445885986328125,2.54512882232666,-0.18739867210388184,0.32777369022369385
1761132326296886800,0.45588671875,1.7672042846679688,-0.5258183479309082,0.44317543506622314
1761132326306887000,0.465886962890625,2.8052310943603516,-0.410028874874115,0.1211402416229248
1761132326316886800,0.47588671875,2.7571496963500977,-0.730413019657135,0.5406746864318848
1761132326326887000,0.485886962890625,2.6257991790771484,-0.8125818967819214,0.357074499130249
1761132326336886800,0.49588671875,2.0948143005371094,-1.111017107963562,0.3962581157684326
1761132326346887000,0.505886962890625,1.6109838485717773,-1.0514336824417114,0.0962672233581543
1761132326356886800,0.51588671875,0.9569110870361328,-1.0096238851547241,-0.049628615379333496
1761132326366887000,0.525886962890625,0.33934688568115234,-1.0004816055297852,-0.02766096591949463
1761132326376886800,0.53588671875,-0.18465518951416016,-0.9048720598220825,-0.13889849185943604
1761132326386887000,0.545886962890625,-1.1217527389526367,-0.8854632377624512,-0.13393473625183105
1761132326396886000,0.555885986328125,-2.1734213829040527,-1.147618293762207,0.2375870943069458
1761132326406886100,0.56588623046875,-2.859189033508301,-0.7471468448638916,-0.28312182426452637
1761132326416886000,0.575885986328125,-3.578646659851074,-0.25425899028778076,-0.7146425247192383
1761132326426886100,0.58588623046875,-4.307840824127197,0.03851890563964844,-0.8392417430877686
1761132326436886000,0.595885986328125,-4.986165523529053,0.20691680908203125,-0.6924169063568115
1761132326446886100,0.60588623046875,-5.6357598304748535,0.24978172779083252,-0.42214441299438477
1761132326456885800,0.6158857421875,-5.883339881896973,0.3037039637565613,-0.2711048126220703
1761132326466886000,0.625885986328125,-5.829581260681152,0.24766647815704346,-0.24073147773742676
1761132326476885800,0.6358857421875,-5.574392318725586,0.35287466645240784,-0.6876051425933838
1761132326486886000,0.645885986328125,-5.483146667480469,0.6363625526428223,-0.9959022998809814
1761132326496886500,0.655886474609375,-5.732003688812256,0.7864447236061096,-0.9490478038787842
1761132326506886700,0.66588671875,-6.2850446701049805,-0.018761543557047844,1.1730859279632568
1761132326516886500,0.675886474609375,-6.287117004394531,-0.408253014087677,2.241027593612671
1761132326526886700,0.68588671875,-5.57379150390625,0.0882212370634079,2.5387966632843018
1761132326536886500,0.695886474609375,-4.843966007232666,0.7258986830711365,2.2862725257873535
1761132326546886700,0.70588671875,-4.5140275955200195,1.01163911819458,2.3392906188964844
1761132326556886500,0.715886474609375,-4.599839210510254,0.8165339231491089,4.211781024932861
1761132326566886700,0.72588671875,-5.551446437835693,-0.9565983414649963,2.208031177520752
1761132326576886500,0.735886474609375,-5.700082302093506,-0.225141704082489,1.538062334060669
1761132326586886700,0.74588671875,-6.044045448303223,0.346221387386322,1.1890363693237305
1761132326596885800,0.7558857421875,-6.100664138793945,0.9980723857879639,0.37609779834747314
1761132326606885600,0.7658857421875,-5.763626575469971,1.9421961307525635,-0.5940210819244385
1761132326616885800,0.7758857421875,-4.326582908630371,2.1551523208618164,-0.7107663154602051
1761132326626885600,0.7858857421875,-3.125303268432617,2.937857151031494,-0.7794432640075684
1761132326636885800,0.7958857421875,-1.1943778991699219,3.857344150543213,-0.3805156946182251
1761132326646885600,0.8058857421875,1.8381376266479492,4.235795974731445,1.5782217979431152
1761132326656885800,0.8158857421875,10.72636890411377,3.782456874847412,3.5330820083618164
1761132326666885600,0.8258857421875,24.739688873291016,2.2533018589019775,4.583789825439453
1761132326676885800,0.8358857421875,38.89606475830078,0.3275038003921509,5.766098976135254
1761132326686885600,0.8458857421875,45.44818878173828,-1.3482742309570312,9.34507942199707
1761132326696886500,0.855886474609375,44.26832962036133,-0.5311148166656494,12.253600120544434
1761132326706886400,0.865886474609375,38.836769104003906,0.3436276912689209,13.650894165039062
1761132326716886500,0.875886474609375,32.97948455810547,0.02379786968231201,14.598963737487793
1761132326726886400,0.885886474609375,28.404075622558594,1.2157843112945557,13.401721954345703
1761132326736886500,0.895886474609375,22.770246505737305,1.1682792901992798,13.724398612976074
1761132326746886400,0.905886474609375,19.114564895629883,1.1580208539962769,12.041784286499023
1761132326756886500,0.915886474609375,16.275667190551758,0.7558277249336243,9.603996276855469
1761132326766886400,0.925886474609375,13.709062576293945,0.3298201560974121,7.437129020690918
1761132326776886500,0.935886474609375,13.707037925720215,0.2548407316207886,7.591531276702881
1761132326786886400,0.945886474609375,8.419544219970703,0.2845061421394348,5.410077095031738
1761132326796885500,0.955885498046875,8.416924476623535,0.2159906029701233,5.471469879150391
1761132326806885400,0.965885498046875,3.395376205444336,1.4236743450164795,5.946218013763428
1761132326816885500,0.975885498046875,0.7818899154663086,1.7986466884613037,6.561239719390869
1761132326826885400,0.985885498046875,-2.6502718925476074,2.0503153800964355,6.135992527008057
1761132326836885500,0.995885498046875,-6.468223571777344,1.590451955795288,5.483719348907471
1761132326846885600,1.0058857421875,-10.491581916809082,0.46622970700263977,3.5823252201080322
1761132326856885500,1.015885498046875,-12.820749282836914,-0.2075064778327942,0.7918058633804321
1761132326866885400,1.025885498046875,-14.166558265686035,-0.8376054763793945,-1.651940941810608
1761132326876885500,1.035885498046875,-15.631516456604004,-1.6309466361999512,-3.7956814765930176
1761132326886885400,1.045885498046875,-16.068279266357422,-2.058974266052246,-4.711900234222412
1761132326896886300,1.05588623046875,-15.574949264526367,-2.317005157470703,-4.546477317810059
1761132326906886400,1.065886474609375,-14.531164169311523,-2.3827109336853027,-3.879396915435791
1761132326916886300,1.07588623046875,-14.501461029052734,-2.6453850269317627,-0.600500762462616
1761132326926886400,1.085886474609375,-15.23353385925293,-2.3541693687438965,-1.2646305561065674
1761132326936886300,1.09588623046875,-15.879762649536133,-1.866400957107544,-3.1908624172210693
1761132326946886400,1.105886474609375,-16.89640998840332,-2.203098773956299,-3.336359739303589
1761132326956886300,1.11588623046875,-18.099868774414062,-2.887782573699951,-2.4375839233398438
1761132326966886400,1.125886474609375,-18.921709060668945,-3.1729836463928223,-2.2768588066101074
1761132326976886300,1.13588623046875,-19.002853393554688,-3.460129976272583,-2.704392671585083
1761132326986886400,1.145886474609375,-18.452335357666016,-3.8459486961364746,-3.3055899143218994
1761132326996885500,1.155885498046875,-17.116374969482422,-4.064340114593506,-3.831864356994629
1761132327006885600,1.1658857421875,-15.269756317138672,-4.349830627441406,-4.026647090911865
1761132327016885500,1.175885498046875,-13.546449661254883,-4.702147483825684,-4.26345682144165
1761132327026885600,1.1858857421875,-12.192577362060547,-4.941450119018555,-4.819025039672852
1761132327036885500,1.195885498046875,-11.379733085632324,-4.944087505340576,-5.140799045562744
1761132327046885600,1.2058857421875,-9.349032402038574,-4.540097236633301,-5.887946605682373
1761132327056885500,1.215885498046875,-10.325248718261719,-4.7269792556762695,-5.284908294677734
1761132327066885600,1.2258857421875,-10.06682014465332,-4.828015327453613,-4.433550834655762
1761132327076885500,1.235885498046875,-10.416337013244629,-4.428220748901367,-4.336951732635498
1761132327086885600,1.2458857421875,-11.005258560180664,-4.510611057281494,-4.419720649719238
1761132327096886000,1.255885986328125,-11.708629608154297,-4.30150842666626,-4.5124735832214355
1761132327106886100,1.26588623046875,-12.184459686279297,-4.002688884735107,-4.22308349609375
1761132327116886000,1.275885986328125,-12.00282096862793,-3.8931849002838135,-3.851081609725952
1761132327126886100,1.28588623046875,-11.009230613708496,-3.9746928215026855,-3.764493465423584
1761132327136886000,1.295885986328125,-8.981279373168945,-3.9112677574157715,-3.6238436698913574
1761132327146886100,1.30588623046875,-6.949480056762695,-3.726924180984497,-3.039797306060791
1761132327156886000,1.315885986328125,-4.82356595993042,-3.856722593307495,-1.2647459506988525
1761132327166886100,1.32588623046875,-3.172152519226074,-3.8125600814819336,1.2378534078598022
1761132327176886000,1.335885986328125,-2.297842502593994,-3.412919521331787,3.3479866981506348
1761132327186886100,1.34588623046875,-0.08465099334716797,-2.5920324325561523,4.052070140838623
1761132327196885200,1.35588525390625,4.149879455566406,-1.7526674270629883,3.014871835708618
1761132327206885400,1.365885498046875,10.583822250366211,-1.8154277801513672,1.9848411083221436
1761132327216885200,1.37588525390625,17.020740509033203,-3.505640745162964,4.158531188964844
1761132327226885000,1.385885009765625,17.036720275878906,-3.1655144691467285,3.8833179473876953
1761132327236885200,1.39588525390625,36.50390625,-7.765417098999023,10.682190895080566
1761132327246885000,1.405885009765625,43.15167999267578,-7.642900466918945,12.12963581085205
1761132327256885200,1.41588525390625,46.17168426513672,-6.037702560424805,13.184622764587402
1761132327266885000,1.425885009765625,46.330684661865234,-3.9418375492095947,14.67569637298584
1761132327276885200,1.43588525390625,43.37141418457031,-0.8323328495025635,16.96475601196289
1761132327286885000,1.445885009765625,37.96998596191406,2.656222343444824,19.10778045654297
1761132327296886000,1.455885986328125,30.805095672607422,5.939876079559326,19.598739624023438
1761132327306886100,1.46588623046875,23.248498916625977,8.506239891052246,19.250986099243164
1761132327316886000,1.475885986328125,16.323877334594727,9.308759689331055,18.480241775512695
1761132327326886100,1.48588623046875,10.854135513305664,8.779050827026367,16.627681732177734
1761132327336886000,1.495885986328125,10.861849784851074,8.797447204589844,16.510351181030273
1761132327346886100,1.50588623046875,6.397663116455078,5.422603607177734,10.922905921936035
1761132327356886300,1.51588623046875,4.9966630935668945,4.447851181030273,7.011922359466553
1761132327366886100,1.52588623046875,3.8777570724487305,4.09674072265625,3.982357978820801
1761132327376886300,1.53588623046875,3.50518798828125,4.104129314422607,1.9728569984436035
1761132327386886100,1.54588623046875,2.884675979614258,3.929129123687744,1.4792053699493408
1761132327396885800,1.5558857421875,2.2509374618530273,4.414025783538818,0.44439631700515747
1761132327406885600,1.5658857421875,0.46059703826904297,3.9185783863067627,0.1678532212972641
1761132327416885500,1.575885498046875,-2.2215657234191895,3.085132360458374,-0.2366233766078949
1761132327430198500,1.589198486328125,-5.705822944641113,1.8665064573287964,-0.6045076847076416
1761132327440198400,1.599198486328125,-8.477457046508789,0.5953593254089355,-1.2114940881729126
1761132327450198500,1.609198486328125,-10.827957153320312,-0.9306764602661133,-1.668163537979126
1761132327460198400,1.619198486328125,-12.372417449951172,-2.425905466079712,-2.344158411026001
1761132327470198500,1.629198486328125,-13.781665802001953,-3.826737880706787,-3.047536849975586
1761132327480198400,1.639198486328125,-15.130682945251465,-5.034921169281006,-3.3555331230163574
1761132327490198500,1.649198486328125,-16.292402267456055,-6.283097267150879,-3.294009208679199
1761132327500199200,1.65919921875,-16.281810760498047,-6.696484565734863,-3.3405237197875977
1761132327510199300,1.66919921875,-16.992698669433594,-8.118180274963379,-4.562676429748535
1761132327520199200,1.67919921875,-16.755207061767578,-8.939826965332031,-5.945657730102539
1761132327530200600,1.68920068359375,-16.815185546875,-9.648533821105957,-7.220493316650391
1761132327540200400,1.699200439453125,-17.165842056274414,-9.834555625915527,-7.839968681335449
1761132327550200600,1.70920068359375,-17.65619659423828,-9.555831909179688,-8.075068473815918
1761132327560200400,1.719200439453125,-17.552494049072266,-9.172708511352539,-7.917442321777344
1761132327570200600,1.72920068359375,-16.750568389892578,-8.952722549438477,-7.4758710861206055
1761132327580200400,1.739200439453125,-15.714498519897461,-8.842790603637695,-7.190155506134033
1761132327590200600,1.74920068359375,-14.744674682617188,-8.768193244934082,-7.096240520477295
1761132327600199700,1.75919970703125,-14.72476863861084,-8.740509986877441,-6.8431010246276855
1761132327610199600,1.769199462890625,-13.166662216186523,-8.150303840637207,-5.908761501312256
1761132327620199700,1.77919970703125,-12.603919982910156,-7.692755699157715,-4.530481815338135
1761132327630199600,1.789199462890625,-12.126794815063477,-7.232263088226318,-2.962679386138916
1761132327640199700,1.79919970703125,-12.084975242614746,-6.904918670654297,-1.5720610618591309
1761132327650199600,1.809199462890625,-12.503267288208008,-6.632604598999023,-0.9404776096343994
1761132327660199400,1.819199462890625,-12.152442932128906,-6.465542793273926,-1.2680165767669678
1761132327670199600,1.829199462890625,-11.348394393920898,-6.445923805236816,-2.059757709503174
1761132327680199700,1.83919970703125,-10.149815559387207,-6.278914451599121,-3.214540719985962
1761132327690199600,1.849199462890625,-8.18405532836914,-5.613222599029541,-4.032565116882324
1761132327700200400,1.859200439453125,-4.492551803588867,-4.748282432556152,-4.09475040435791
1761132327710200300,1.869200439453125,0.2478771209716797,-3.4648995399475098,-2.9178943634033203
1761132327720200400,1.879200439453125,5.005034446716309,-1.7953531742095947,-0.673271656036377
1761132327730200300,1.889200439453125,7.816937446594238,0.600525975227356,0.6610647439956665
1761132327740200400,1.899200439453125,11.084379196166992,3.1574456691741943,2.7899317741394043
1761132327750200300,1.909200439453125,16.11606216430664,4.489804744720459,5.565237998962402
1761132327760200400,1.919200439453125,22.271900177001953,4.123716354370117,7.663650989532471
1761132327770200600,1.92920068359375,28.63421058654785,2.5601119995117188,8.517385482788086
1761132327780200400,1.939200439453125,35.792076110839844,0.7555338144302368,8.532570838928223
1761132327790200600,1.94920068359375,41.0645637512207,-0.2859874367713928,7.85000467300415
1761132327800199700,1.95919970703125,41.21476745605469,0.9242614507675171,5.997122287750244
1761132327810199800,1.96919970703125,36.21017074584961,2.992544174194336,4.386626720428467
1761132327820199700,1.97919970703125,29.242507934570312,5.908960342407227,4.105010986328125
1761132327830198500,1.989198486328125,22.711156845092773,8.279157638549805,5.739150524139404
1761132327840198400,1.999198486328125,16.989883422851562,9.365410804748535,7.88059139251709
1761132327850198500,2.009198486328125,15.919574737548828,9.326343536376953,9.458189010620117
1761132327860198400,2.019198486328125,19.33177947998047,8.353797912597656,10.237483978271484
1761132327870198500,2.029198486328125,19.4507999420166,6.915122032165527,8.30048656463623
1761132327880198400,2.039198486328125,14.426531791687012,5.872851371765137,4.3072190284729
1761132327890198500,2.049198486328125,7.157288551330566,5.446724891662598,0.5116380453109741
1761132327900199200,2.05919921875,1.8837223052978516,5.340622425079346,-1.4967925548553467
1761132327910199300,2.06919921875,-1.8373174667358398,5.312717914581299,-1.7279472351074219
1761132327920199400,2.079199462890625,-4.280292510986328,5.174476623535156,-1.1268165111541748
1761132327930199300,2.08919921875,-6.400218963623047,4.956582069396973,-0.3004899024963379
1761132327940199400,2.099199462890625,-8.377874374389648,4.685314178466797,0.556842565536499
1761132327950199300,2.10919921875,-10.513419151306152,3.8761849403381348,1.3392438888549805
1761132327960199400,2.119199462890625,-12.270185470581055,3.1921133995056152,1.4125454425811768
1761132327970199300,2.12919921875,-14.101007461547852,2.5021257400512695,1.2129627466201782
1761132327980199400,2.139199462890625,-15.703683853149414,1.5453044176101685,1.1327769756317139
1761132327990199300,2.14919921875,-16.85775375366211,0.7157536745071411,0.8440524339675903
1761132328000198400,2.159198486328125,-17.997390747070312,0.029169917106628418,0.4857795238494873
1761132328010198500,2.169198486328125,-18.787532806396484,-0.6083949208259583,0.20220765471458435
1761132328020198400,2.179198486328125,-18.9542236328125,-1.168100118637085,-0.08830027282238007
1761132328030198500,2.189198486328125,-18.20252799987793,-1.7861473560333252,-0.9723082780838013
1761132328040198400,2.199198486328125,-16.732553482055664,-2.41564679145813,-2.163465738296509
1761132328050198500,2.209198486328125,-15.302972793579102,-3.0269112586975098,-3.1032683849334717
1761132328060198400,2.219198486328125,-14.275347709655762,-3.4838221073150635,-3.7843148708343506
1761132328070198300,2.2291982421875,-13.242713928222656,-3.70900821685791,-4.5703206062316895
1761132328080198400,2.239198486328125,-12.359516143798828,-3.8207011222839355,-5.091721057891846
1761132328090198300,2.2491982421875,-11.424745559692383,-3.8270015716552734,-4.953176498413086
1761132328100199200,2.25919921875,-10.697861671447754,-3.843905210494995,-4.356383323669434
1761132328110199300,2.26919921875,-10.505537033081055,-3.9432196617126465,-3.843153715133667
1761132328120199200,2.27919921875,-10.409958839416504,-3.9945318698883057,-3.6682395935058594
1761132328130199300,2.28919921875,-10.40877914428711,-3.9686739444732666,-3.6518898010253906
1761132328140199200,2.29919921875,-9.319596290588379,-3.6627144813537598,-2.7517454624176025
1761132328150199300,2.30919921875,-8.432894706726074,-3.5554118156433105,-2.4417362213134766
1761132328160199400,2.319199462890625,-7.144894599914551,-3.5226519107818604,-2.2900986671447754
1761132328170199600,2.329199462890625,-5.230068206787109,-3.6878063678741455,-1.8594756126403809
1761132328180199400,2.339199462890625,-2.457869052886963,-3.927027702331543,-1.536900520324707
1761132328190199600,2.349199462890625,0.403411865234375,-4.203505516052246,-1.0898207426071167
1761132328200198700,2.35919873046875,3.366729736328125,-4.215731143951416,-0.4598909616470337
1761132328210198800,2.36919873046875,6.523423194885254,-4.012563705444336,0.2708383798599243
1761132328220198700,2.37919873046875,9.82497787475586,-3.2798116207122803,0.4337284564971924
1761132328230198500,2.389198486328125,12.671024322509766,-1.9948874711990356,0.054250359535217285
1761132328240198700,2.39919873046875,16.391010284423828,-0.9783162474632263,0.9417957067489624
1761132328250198500,2.409198486328125,20.99074935913086,-1.1188783645629883,2.784420967102051
1761132328260198700,2.41919873046875,25.862152099609375,-1.3319611549377441,4.361851692199707
1761132328270198500,2.429198486328125,29.67165756225586,-1.392326831817627,6.304854393005371
1761132328280165400,2.439165283203125,32.230594635009766,-1.219156265258789,8.185967445373535
1761132328290132000,2.449132080078125,35.63702392578125,-0.8668220043182373,10.30315113067627
1761132328300099600,2.459099609375,36.07035827636719,-0.4954812526702881,11.107091903686523
1761132328310066200,2.469066162109375,32.343528747558594,1.1599085330963135,11.202685356140137
1761132328320032800,2.47903271484375,25.74637222290039,3.2333879470825195,11.725714683532715
1761132328329999600,2.48899951171875,18.672470092773438,5.0601701736450195,11.73620319366455
1761132328339966200,2.49896630859375,12.458028793334961,6.077289581298828,10.738385200500488
1761132328349932800,2.508932861328125,7.3039140701293945,6.335297584533691,8.580750465393066
1761132328359899600,2.518899658203125,7.344993591308594,6.5035200119018555,8.675539016723633
1761132328369866200,2.5288662109375,2.4459705352783203,5.152179718017578,3.72419810295105
1761132328379832800,2.538832763671875,1.9623479843139648,4.615797519683838,2.0442731380462646
1761132328389799400,2.54879931640625,2.9052324295043945,4.728974342346191,1.7498703002929688
1761132328399765200,2.55876513671875,3.316227912902832,5.185736656188965,1.91952645778656
1761132328409732000,2.568732177734375,3.1037235260009766,6.284886360168457,2.375657558441162
1761132328419698700,2.57869873046875,1.6618432998657227,7.071081161499023,2.459167957305908
1761132328429665300,2.588665283203125,-0.8162164688110352,7.512462615966797,2.0523476600646973
1761132328439632000,2.5986318359375,-3.569054126739502,7.842394828796387,1.5086575746536255
1761132328449598700,2.6085986328125,-6.136911392211914,7.975797653198242,1.0200223922729492
1761132328459565000,2.61856494140625,-8.719791412353516,7.8293657302856445,0.6463181376457214
1761132328469531600,2.62853173828125,-10.64358139038086,7.49854040145874,0.44736427068710327
1761132328479498200,2.638498291015625,-12.135866165161133,7.123551368713379,0.3671746850013733
1761132328489465000,2.648465087890625,-13.130987167358398,6.552641868591309,0.43181872367858887
1761132328499432400,2.658432373046875,-13.61235237121582,5.902993202209473,0.6907627582550049
1761132328509399000,2.66839892578125,-13.859878540039062,5.186483383178711,0.7514899969100952
1761132328519366000,2.678365966796875,-14.020761489868164,4.23388147354126,1.0091772079467773
1761132328529332500,2.68833251953125,-14.091306686401367,3.3908700942993164,1.302563190460205
1761132328539299000,2.698299072265625,-14.07447624206543,2.658379077911377,0.877295970916748
1761132328549266000,2.708265869140625,-13.850955963134766,1.804215669631958,0.04861724376678467
1761132328559232500,2.718232421875,-13.48263931274414,0.8505130410194397,-0.9437539577484131
1761132328569199000,2.72819921875,-12.97427749633789,-0.027592062950134277,-1.9509661197662354
1761132328579199200,2.73819921875,-11.945284843444824,-0.7402079105377197,-3.3141279220581055
1761132328589199000,2.74819921875,-10.937681198120117,-1.412514090538025,-4.230465888977051
1761132328599198200,2.7581982421875,-10.146036148071289,-1.8592901229858398,-4.670828342437744
1761132328609198300,2.7681982421875,-9.606924057006836,-1.9967992305755615,-4.523336410522461
1761132328619198200,2.7781982421875,-9.459425926208496,-2.0034916400909424,-3.517545700073242
1761132328629198300,2.7881982421875,-9.478259086608887,-2.1616742610931396,-2.165470838546753
1761132328639198200,2.7981982421875,-9.715706825256348,-2.2810182571411133,-1.4392220973968506
1761132328649198300,2.8081982421875,-9.678422927856445,-2.38216495513916,-1.2205300331115723
1761132328659198200,2.8181982421875,-8.870542526245117,-2.6828935146331787,-1.230907678604126
1761132328669198300,2.8281982421875,-7.797094345092773,-3.1055121421813965,-1.7234841585159302
1761132328679198200,2.8381982421875,-6.678646087646484,-3.3485395908355713,-2.3239026069641113
1761132328689198300,2.8481982421875,-5.622971534729004,-3.64268159866333,-2.8634049892425537
1761132328699199000,2.858198974609375,-4.373386383056641,-4.062749862670898,-3.0129687786102295
1761132328709199000,2.86819921875,-1.9989328384399414,-4.0532684326171875,-2.6284842491149902
1761132328719199200,2.87819921875,1.2516040802001953,-3.738776683807373,-2.034665822982788
1761132328729199000,2.88819921875,4.612034797668457,-3.388049840927124,-2.3304567337036133
1761132328739199200,2.89819921875,7.963176727294922,-3.1216397285461426,-3.4858181476593018
1761132328749199000,2.90819921875,10.622361183166504,-2.938918352127075,-3.523303747177124
1761132328759199200,2.91819921875,11.49327278137207,-2.125819683074951,-3.1482107639312744
1761132328769199000,2.92819921875,12.111543655395508,-0.7393355369567871,-1.5932388305664062
1761132328779199200,2.93819921875,13.885940551757812,-0.30593204498291016,1.1569480895996094
1761132328789199000,2.94819921875,18.121936798095703,-0.5297832489013672,3.3780579566955566
1761132328799198200,2.9581982421875,22.422142028808594,-1.8149083852767944,4.758781433105469
1761132328809198300,2.9681982421875,27.23635482788086,-3.2384471893310547,5.5889482498168945
1761132328819198200,2.9781982421875,31.428102493286133,-3.153972625732422,5.340848445892334
1761132328829198300,2.9881982421875,31.69171905517578,-2.0287978649139404,4.492023468017578
1761132328839198200,2.9981982421875,27.95193862915039,0.43205755949020386,3.35432505607605
1761132328849198300,3.0081982421875,23.404266357421875,2.319056510925293,2.757323741912842
1761132328859198200,3.0181982421875,18.045516967773438,3.8978633880615234,2.6555871963500977
1761132328869198300,3.0281982421875,12.817643165588379,5.67153263092041,2.115722894668579
1761132328879198200,3.0381982421875,9.48532772064209,6.55000114440918,1.1624037027359009
1761132328889198300,3.0481982421875,5.612646102905273,6.826668739318848,0.4322795569896698
1761132328899199200,3.05819921875,1.7121305465698242,7.357029914855957,0.20008361339569092
1761132328909199000,3.06819921875,-2.246985912322998,7.629871845245361,0.16325469315052032
1761132328919199200,3.07819921875,-6.698392391204834,7.975741386413574,0.3365170359611511
1761132328929199000,3.08819921875,-9.510733604431152,8.21302318572998,1.0066784620285034
1761132328939199200,3.09819921875,-11.234929084777832,8.130196571350098,1.7769681215286255
1761132328949199000,3.10819921875,-11.981194496154785,7.779511451721191,2.311152219772339
1761132328959199200,3.11819921875,-12.656707763671875,7.140934944152832,2.712873697280884
1761132328969199000,3.12819921875,-12.678611755371094,6.954677581787109,2.753016471862793
1761132328979199200,3.13819921875,-13.71430778503418,5.4130330085754395,2.844730854034424
1761132328989199000,3.14819921875,-14.066802978515625,4.632551670074463,2.42915415763855
1761132328999198200,3.1581982421875,-14.566585540771484,3.9355578422546387,1.7929109334945679
1761132329009198300,3.1681982421875,-14.799488067626953,3.1890552043914795,1.2178804874420166
1761132329019198200,3.1781982421875,-15.059321403503418,2.6008005142211914,0.7891467213630676
1761132329029198300,3.1881982421875,-15.090648651123047,2.123455286026001,0.4877476096153259
1761132329039198200,3.1981982421875,-15.049901962280273,1.6069769859313965,0.49112677574157715
1761132329049198300,3.2081982421875,-14.521632194519043,1.1100153923034668,0.6898566484451294
1761132329059198200,3.2181982421875,-13.45224666595459,0.7246303558349609,1.1200305223464966
1761132329069198300,3.2281982421875,-12.349634170532227,0.4148790240287781,1.598454475402832
1761132329079198200,3.2381982421875,-11.233068466186523,0.03522026538848877,1.8998602628707886
1761132329089198300,3.2481982421875,-10.468649864196777,-0.19759505987167358,1.9131786823272705
1761132329099199200,3.25819921875,-10.15415096282959,-0.4631666839122772,1.5731604099273682
1761132329109199000,3.26819921875,-9.78888988494873,-0.7290294170379639,1.2243720293045044
1761132329119199200,3.27819921875,-9.784634590148926,-0.7806431651115417,1.1996195316314697
1761132329129199000,3.28819921875,-7.7565999031066895,-1.7208142280578613,0.9069749116897583
1761132329139199200,3.29819921875,-6.3739094734191895,-2.2117044925689697,1.1825182437896729
1761132329149199000,3.30819921875,-5.018307209014893,-2.6679527759552,1.3382539749145508
1761132329159199200,3.31819921875,-2.580954074859619,-2.9123783111572266,1.0260952711105347
1761132329169199000,3.32819921875,0.2045459747314453,-3.1076900959014893,0.408332884311676
1761132329179199200,3.33819921875,3.0731630325317383,-3.292147159576416,0.018452584743499756
1761132329189199000,3.34819921875,5.691377639770508,-3.6659109592437744,-0.17820990085601807
1761132329199198500,3.358198486328125,7.320625305175781,-4.2171711921691895,-0.074859619140625
1761132329209198300,3.3681982421875,8.21182918548584,-4.322491645812988,-0.12867140769958496
1761132329219198500,3.378198486328125,8.244385719299316,-4.467624187469482,-0.2315654158592224
1761132329229198300,3.3881982421875,4.655231475830078,-0.9104324579238892,-0.13561207056045532
1761132329239198500,3.398198486328125,4.875218391418457,2.7271971702575684,-1.122183918952942
1761132329249198300,3.4081982421875,11.147184371948242,4.423333168029785,-1.4425326585769653
1761132329259198500,3.418198486328125,21.763856887817383,4.003686904907227,-0.6059861183166504
1761132329269198300,3.4281982421875,32.917999267578125,1.6416573524475098,1.6220173835754395
1761132329279198500,3.438198486328125,38.81191635131836,-0.26447999477386475,3.2343266010284424
1761132329289198300,3.4481982421875,39.040283203125,-0.18256676197052002,4.532183647155762
1761132329299199200,3.45819921875,34.475440979003906,1.421520471572876,6.618943691253662
1761132329309199000,3.46819921875,27.65017318725586,3.6633405685424805,9.249532699584961
1761132329319199200,3.47819921875,19.99247932434082,6.009214878082275,11.0868501663208
1761132329329199000,3.48819921875,11.493545532226562,7.828488349914551,11.594377517700195
1761132329339199200,3.49819921875,5.2202253341674805,8.788043975830078,10.261618614196777
1761132329349199000,3.50819921875,0.6638374328613281,8.621460914611816,7.956792831420898
1761132329359199200,3.51819921875,-1.8365626335144043,7.44498872756958,5.68232536315918
1761132329369199400,3.528199462890625,-2.552100658416748,5.883640289306641,4.0576934814453125
1761132329379199200,3.53819921875,-2.2668137550354004,4.605615139007568,2.8786520957946777
1761132329389199400,3.548199462890625,-1.4464693069458008,3.389476776123047,1.965951681137085
1761132329399198500,3.558198486328125,-1.4763412475585938,3.647702932357788,2.327766180038452
1761132329409198300,3.5681982421875,-1.6372709274291992,2.2635912895202637,1.1856398582458496
1761132329419198500,3.578198486328125,-2.3519248962402344,2.140042304992676,0.6558553576469421
1761132329429198300,3.5881982421875,-3.3387093544006348,2.2255074977874756,0.2567296624183655
1761132329439198500,3.598198486328125,-4.936331748962402,2.4302921295166016,0.44670289754867554
1761132329449198300,3.6081982421875,-6.64437198638916,2.594362258911133,1.1775394678115845
1761132329459198500,3.618198486328125,-8.266719818115234,2.5789451599121094,1.8705074787139893
1761132329469198300,3.6281982421875,-9.762145042419434,2.280851125717163,2.4147863388061523
1761132329479198500,3.638198486328125,-11.406975746154785,1.9410492181777954,2.9804086685180664
1761132329489198300,3.6481982421875,-13.18358039855957,1.6298620700836182,3.5474534034729004
1761132329499199200,3.65819921875,-14.948312759399414,1.2205026149749756,4.134397506713867
1761132329509199000,3.66819921875,-15.79327392578125,1.0012221336364746,4.289473533630371
1761132329519199200,3.67819921875,-16.15317726135254,0.961104154586792,4.102235794067383
1761132329529199000,3.68819921875,-16.33917808532715,0.7125780582427979,3.8406982421875
1761132329539199200,3.69819921875,-16.43480682373047,0.42425644397735596,3.753889560699463
1761132329549199000,3.70819921875,-16.207210540771484,0.15639352798461914,3.737919807434082
1761132329559199200,3.71819921875,-15.628387451171875,-0.05334758758544922,3.832674026489258
1761132329569199000,3.72819921875,-15.171466827392578,0.04985654354095459,3.9798693656921387
1761132329579199200,3.73819921875,-14.747207641601562,0.12841355800628662,3.8645219802856445
1761132329589199000,3.74819921875,-14.126337051391602,-0.10246133804321289,3.6353671550750732
1761132329599198200,3.7581982421875,-13.179279327392578,-0.571333646774292,3.204263687133789
1761132329609198300,3.7681982421875,-12.152192115783691,-1.1423523426055908,2.7351369857788086
1761132329619198200,3.7781982421875,-11.127246856689453,-2.066589117050171,1.8794761896133423
1761132329629198300,3.7881982421875,-10.275744438171387,-2.881767511367798,1.028300404548645
1761132329639198200,3.7981982421875,-9.214771270751953,-3.3783135414123535,0.12629127502441406
1761132329649198300,3.8081982421875,-7.8950581550598145,-3.806358814239502,-0.27485156059265137
1761132329659198200,3.8181982421875,-6.656435012817383,-4.24314546585083,-0.2884225845336914
1761132329669198300,3.8281982421875,-5.461991310119629,-4.801697254180908,0.025843143463134766
1761132329679198200,3.8381982421875,-4.021073818206787,-5.490997791290283,0.1632673740386963
1761132329689198300,3.8481982421875,-2.4850621223449707,-5.8539886474609375,-0.31710267066955566
1761132329699199000,3.858198974609375,-1.057389259338379,-6.018390655517578,-0.7433056831359863
1761132329709199000,3.86819921875,0.2546224594116211,-6.099668502807617,-1.0527870655059814
1761132329719199200,3.87819921875,1.3820581436157227,-5.930904865264893,-1.0821092128753662
1761132329729199000,3.88819921875,2.0265254974365234,-6.291399955749512,-0.3921091556549072
1761132329739199200,3.89819921875,2.5864944458007812,-6.4300031661987305,0.640143871307373
1761132329749199000,3.90819921875,2.5717010498046875,-5.397939682006836,0.826781153678894
1761132329759199200,3.91819921875,1.5955572128295898,-3.61918568611145,0.6995677947998047
1761132329769199000,3.92819921875,0.47341346740722656,-1.306453824043274,0.37703728675842285
1761132329779199200,3.93819921875,1.7265501022338867,1.111879825592041,1.047714352607727
1761132329789199000,3.94819921875,8.275910377502441,2.076138496398926,1.9146891832351685
1761132329799198500,3.958198486328125,17.882844924926758,1.4664233922958374,2.607748031616211
1761132329809198300,3.9681982421875,26.290361404418945,0.43140506744384766,3.2618653774261475
1761132329819198500,3.978198486328125,32.562252044677734,-0.3650650680065155,3.8088579177856445
1761132329829198300,3.9881982421875,39.31783676147461,-1.512587308883667,4.509435176849365
1761132329839198500,3.998198486328125,42.43185806274414,-1.477412462234497,4.408483505249023
1761132329849198300,4.0081982421875,38.176021575927734,0.4809854328632355,3.7887487411499023
1761132329859198500,4.018198486328125,31.02286148071289,2.927675485610962,3.4137439727783203
1761132329869198300,4.0281982421875,24.0755558013916,4.583861351013184,3.8539562225341797
1761132329879198500,4.038198486328125,18.40814971923828,5.686896324157715,3.7521862983703613
1761132329889198300,4.0481982421875,13.933181762695312,6.614009857177734,2.8394463062286377
1761132329899199200,4.05819921875,10.36960506439209,7.597461700439453,1.7461549043655396
1761132329909199000,4.06819921875,8.027074813842773,7.9718499183654785,1.7333310842514038
1761132329919199200,4.07819921875,7.271244049072266,7.782477855682373,3.484210968017578
1761132329929199400,4.088199462890625,7.258645057678223,7.366339683532715,5.433728218078613
1761132329939199200,4.09819921875,5.635540008544922,6.894045829772949,5.857102394104004
1761132329949199400,4.108199462890625,2.445237159729004,6.671570301055908,5.186764717102051
1761132329959199200,4.11819921875,-1.4358205795288086,6.340392589569092,4.3968095779418945
1761132329969199400,4.128199462890625,-5.190419673919678,5.856679916381836,3.182462692260742
1761132329979199200,4.13819921875,-7.483937740325928,5.524958610534668,2.4891324043273926
1761132329989199400,4.148199462890625,-8.915594100952148,4.926384449005127,2.306807518005371
1761132329999198500,4.158198486328125,-9.934971809387207,4.212832927703857,2.4041519165039062
1761132330029198300,4.1881982421875,-14.086824417114258,1.581916332244873,3.111450672149658
1761132330039198200,4.1981982421875,-15.871496200561523,0.6998134851455688,3.0748019218444824
1761132330049198300,4.2081982421875,-17.4124755859375,-0.13852828741073608,2.7991600036621094
1761132330059198200,4.2181982421875,-18.442108154296875,-1.0222240686416626,2.207087516784668
1761132330069198300,4.2281982421875,-18.92078399658203,-1.887024998664856,1.6588214635849
1761132330079198200,4.2381982421875,-18.798049926757812,-2.891115427017212,1.0320725440979004
1761132330089198300,4.2481982421875,-18.115489959716797,-3.6079490184783936,0.20165228843688965
1761132330099199000,4.258198974609375,-16.826889038085938,-4.179953575134277,-0.552715539932251
1761132330109199000,4.26819921875,-15.093994140625,-4.8126749992370605,-0.9982762336730957
1761132330119199200,4.27819921875,-13.183758735656738,-5.431052207946777,-1.3499361276626587
1761132330129199000,4.28819921875,-11.63815975189209,-6.052927017211914,-1.569850206375122
1761132330139199200,4.29819921875,-10.437311172485352,-6.62583589553833,-1.6600456237792969
1761132330149199000,4.30819921875,-10.056836128234863,-6.951929092407227,-1.8617892265319824
1761132330159199200,4.31819921875,-10.040850639343262,-6.894326686859131,-1.7629132270812988
1761132330169199000,4.32819921875,-10.683382034301758,-6.5878119468688965,-2.2434895038604736
1761132330179199200,4.33819921875,-11.169929504394531,-6.283315181732178,-2.138726234436035
1761132330189199000,4.34819921875,-11.33279037475586,-6.010711669921875,-1.6788697242736816
1761132330199198200,4.3581982421875,-11.049160957336426,-5.736385345458984,-1.0527853965759277
1761132330209198300,4.3681982421875,-10.096424102783203,-5.457581520080566,-0.7750751972198486
1761132330219198200,4.3781982421875,-8.263635635375977,-5.086414813995361,-1.145695447921753
1761132330229198300,4.3881982421875,-4.999009609222412,-4.884339809417725,-2.0996947288513184
1761132330239198200,4.3981982421875,-0.7010259628295898,-5.073880195617676,-2.91872501373291
1761132330249198300,4.4081982421875,4.966259002685547,-5.05523157119751,-2.875673294067383
1761132330259198200,4.4181982421875,9.585919380187988,-4.4122538566589355,-1.9544737339019775
1761132330269198300,4.4281982421875,12.525870323181152,-3.453775405883789,-0.09735894203186035
1761132330279198200,4.4381982421875,13.96252727508545,-1.867546558380127,0.42275094985961914
1761132330289198300,4.4481982421875,14.084249496459961,-0.40409696102142334,0.11575198173522949
1761132330299199200,4.45819921875,11.72545051574707,0.6144676208496094,-0.004708766937255859
1761132330309199000,4.46819921875,6.382157325744629,3.648344039916992,0.35088396072387695
1761132330319199200,4.47819921875,4.360146522521973,7.461490154266357,3.152190923690796
1761132330329199000,4.48819921875,11.396966934204102,9.260003089904785,7.901345729827881
1761132330339199200,4.49819921875,23.965457916259766,7.334806442260742,11.95821762084961
1761132330349199000,4.50819921875,34.161651611328125,3.446484327316284,12.979061126708984
1761132330359199200,4.51819921875,37.110870361328125,1.890531301498413,11.745301246643066
1761132330369199000,4.52819921875,34.48933410644531,3.9567413330078125,9.277691841125488
1761132330379199200,4.53819921875,29.918489456176758,7.073258399963379,8.363482475280762
1761132330389199000,4.54819921875,24.230688095092773,9.676929473876953,9.564251899719238
1761132330399198500,4.558198486328125,17.929317474365234,11.691736221313477,11.68717098236084
1761132330409198300,4.5681982421875,11.2586030960083,11.01413345336914,13.0563383102417
1761132330419198500,4.578198486328125,5.819967269897461,9.467525482177734,12.095734596252441
1761132330429198300,4.5881982421875,0.12253570556640625,7.562368869781494,9.816293716430664
1761132330439198500,4.598198486328125,-4.762088298797607,5.874443054199219,7.374349594116211
1761132330449198300,4.6081982421875,-8.589316368103027,4.757680416107178,5.539259910583496
1761132330459198500,4.618198486328125,-10.756096839904785,3.9772584438323975,3.6578030586242676
1761132330469198300,4.6281982421875,-11.884259223937988,3.326942205429077,1.8853954076766968
1761132330479198500,4.638198486328125,-12.769140243530273,2.589588165283203,0.6348113417625427
1761132330489198300,4.6481982421875,-13.131278991699219,1.9212909936904907,0.061047837138175964
1761132330499199200,4.65819921875,-13.173051834106445,1.2062263488769531,0.08250808715820312
1761132330509199000,4.66819921875,-13.527454376220703,0.5022766590118408,0.4304272532463074
1761132330519199200,4.67819921875,-14.442666053771973,-0.2584235668182373,0.8614335060119629
1761132330529199000,4.68819921875,-15.687795639038086,-0.9436191320419312,1.0949066877365112
1761132330539199200,4.69819921875,-16.939483642578125,-1.5157907009124756,1.3997011184692383
1761132330549199000,4.70819921875,-17.911333084106445,-2.0125341415405273,1.666904330253601
1761132330559199200,4.71819921875,-18.508831024169922,-2.451632261276245,1.746631145477295
1761132330569199000,4.72819921875,-18.691390991210938,-2.865558624267578,1.5858532190322876
1761132330579199200,4.73819921875,-18.37853240966797,-3.430509567260742,1.1634045839309692
1761132330589199000,4.74819921875,-17.718929290771484,-4.023134708404541,0.5724136233329773
1761132330599198200,4.7581982421875,-16.483890533447266,-4.694808006286621,-0.10254597663879395
1761132330609198300,4.7681982421875,-14.713449478149414,-5.094506740570068,-1.011777639389038
1761132330619198200,4.7781982421875,-13.35714340209961,-5.317465305328369,-1.715172529220581
1761132330629198300,4.7881982421875,-12.194063186645508,-5.506882667541504,-1.898100733757019
1761132330639198200,4.7981982421875,-11.41297721862793,-5.635867118835449,-1.2855395078659058
1761132330649198300,4.8081982421875,-11.14178466796875,-5.553153038024902,-0.5301966667175293
1761132330659198200,4.8181982421875,-10.990280151367188,-5.338999271392822,0.2322378158569336
1761132330669198300,4.8281982421875,-11.02884578704834,-4.9747843742370605,0.6989865303039551
1761132330679198200,4.8381982421875,-11.193222045898438,-4.612458229064941,1.00099778175354
1761132330689198300,4.8481982421875,-11.297900199890137,-4.053435325622559,1.3349153995513916
1761132330699199000,4.858198974609375,-11.254631996154785,-3.494795799255371,1.7536756992340088
1761132330709199000,4.86819921875,-10.361007690429688,-3.001917839050293,1.6719837188720703
1761132330729199000,4.88819921875,-4.964295864105225,-3.131234645843506,-0.16583752632141113
1761132330739199000,4.898198974609375,-0.6211576461791992,-3.2661423683166504,-1.4003934860229492
1761132330749199000,4.90819921875,4.040694236755371,-2.5918307304382324,-2.2191271781921387
1761132330759199000,4.918198974609375,8.938965797424316,-0.9959878921508789,-2.501643419265747
1761132330769199000,4.92819921875,15.649406433105469,0.3422929644584656,-1.0183415412902832
1761132330779199000,4.938198974609375,23.301410675048828,-0.07144191861152649,2.8162550926208496
1761132330789199000,4.94819921875,32.049991607666016,-1.4877787828445435,4.640135765075684
1761132330799198200,4.9581982421875,41.351810455322266,-3.6276466846466064,4.747202396392822
1761132330809198300,4.9681982421875,45.86360168457031,-4.766321659088135,3.960237741470337
1761132330819198200,4.9781982421875,44.409156799316406,-3.5457065105438232,2.9576892852783203
1761132330829198300,4.9881982421875,40.13785171508789,-0.7442765235900879,3.312631845474243
1761132330839198200,4.9981982421875,35.22735595703125,1.7898356914520264,4.463840007781982
1761132330849198300,5.0081982421875,30.04811668395996,4.535580635070801,4.540610313415527
1761132330859198200,5.0181982421875,25.813430786132812,5.613399982452393,4.574267864227295
1761132330869198300,5.0281982421875,20.919174194335938,5.4575371742248535,3.991703987121582
1761132330879198200,5.0381982421875,15.097811698913574,6.240952491760254,2.4755496978759766
1761132330889198300,5.0481982421875,8.908454895019531,7.327944755554199,1.7377104759216309
1761132330899199000,5.058198974609375,5.320219039916992,7.978005409240723,1.7767055034637451
1761132330909199000,5.06819921875,3.1023387908935547,7.798790454864502,1.8821392059326172
1761132330919199200,5.07819921875,1.4598064422607422,7.2511749267578125,1.9183768033981323
1761132330929199000,5.08819921875,-0.0064411163330078125,6.895942687988281,1.2286456823349
1761132330939199200,5.09819921875,-1.4444184303283691,6.8321533203125,0.33624517917633057
1761132330949199000,5.10819921875,-3.2586159706115723,6.686302661895752,-0.6772602796554565
1761132330959199200,5.11819921875,-4.402477741241455,6.799633502960205,-1.0294722318649292
1761132330969199000,5.12819921875,-5.4891204833984375,6.7998247146606445,-0.6627053022384644
1761132330979199200,5.13819921875,-6.608710289001465,6.761646270751953,0.03323256969451904
1761132330989199000,5.14819921875,-7.894479751586914,6.358175277709961,0.7964098453521729
1761132330999198200,5.1581982421875,-7.91694450378418,6.219116687774658,0.8503081798553467
1761132331009198300,5.1681982421875,-10.754133224487305,4.913649559020996,2.0231285095214844
1761132331019198200,5.1781982421875,-11.873038291931152,4.503084182739258,1.8461387157440186
1761132331029198300,5.1881982421875,-11.9296293258667,4.27340030670166,1.7766872644424438
1761132331039198200,5.1981982421875,-13.483591079711914,2.7262558937072754,1.8859329223632812
1761132331049198300,5.2081982421875,-13.752973556518555,1.997498631477356,1.8175132274627686
1761132331059198200,5.2181982421875,-13.917704582214355,1.234976053237915,1.4799641370773315
1761132331069198300,5.2281982421875,-14.395892143249512,0.6061267256736755,1.1790567636489868
1761132331079198200,5.2381982421875,-14.931915283203125,-0.018463313579559326,1.0172007083892822
1761132331089198300,5.2481982421875,-15.1116361618042,-0.49333932995796204,1.003417730331421
1761132331099199000,5.258198974609375,-14.559778213500977,-0.8890799283981323,0.9453482627868652
1761132331109199000,5.26819921875,-13.364957809448242,-1.2401220798492432,0.7090680599212646
1761132331119199200,5.27819921875,-12.000869750976562,-1.6334223747253418,0.4914602041244507
1761132331129199000,5.28819921875,-11.991720199584961,-1.7071149349212646,0.537462592124939
1761132331139199200,5.29819921875,-10.53323745727539,-1.7287254333496094,0.6208077669143677
1761132331149199000,5.30819921875,-10.362918853759766,-1.6819384098052979,1.2190872430801392
1761132331159199200,5.31819921875,-10.456887245178223,-1.5674835443496704,1.8579201698303223
1761132331169199000,5.32819921875,-10.347469329833984,-1.642335295677185,2.4054455757141113
1761132331179199200,5.33819921875,-9.459434509277344,-1.9402168989181519,2.422210454940796
1761132331189199000,5.34819921875,-8.41273021697998,-2.421881914138794,2.1512112617492676
1761132331199198500,5.358198486328125,-7.652786731719971,-2.889336347579956,1.7050031423568726
1761132331209198300,5.3681982421875,-7.147278785705566,-3.09244441986084,0.9511491060256958
1761132331219198500,5.378198486328125,-6.575838565826416,-2.9917349815368652,-0.06890881061553955
1761132331229198300,5.3881982421875,-5.646159648895264,-2.759016513824463,-0.7967138290405273
1761132331239198500,5.398198486328125,-3.158511161804199,-2.5085158348083496,-0.9349831342697144
1761132331249198300,5.4081982421875,0.6848573684692383,-2.56628155708313,-0.8176523447036743
1761132331259198500,5.418198486328125,5.753209114074707,-3.049741744995117,-0.8330274820327759
1761132331269198300,5.4281982421875,10.828314781188965,-2.88922381401062,-1.439232587814331
1761132331279198500,5.438198486328125,13.94752311706543,-1.713865876197815,-1.931370496749878
1761132331289198300,5.4481982421875,14.017343521118164,0.7517695426940918,-1.026694416999817
1761132331299199200,5.45819921875,12.836250305175781,3.269587516784668,0.6638053059577942
1761132331309199000,5.46819921875,14.294060707092285,5.565239429473877,0.5515003204345703
1761132331319199200,5.47819921875,19.250774383544922,6.195104598999023,-0.7686232328414917
1761132331329199400,5.488199462890625,27.802915573120117,4.044519424438477,-1.695814847946167
1761132331339199200,5.49819921875,35.52349090576172,0.40228211879730225,-3.12443208694458
1761132331349199400,5.508199462890625,38.3726692199707,-1.9699163436889648,-5.544156074523926
1761132331359199200,5.51819921875,34.749813079833984,-1.767425775527954,-6.943246841430664
1761132331369199400,5.528199462890625,28.059804916381836,-0.04312393069267273,-7.1057281494140625
1761132331379199200,5.53819921875,21.400768280029297,2.032839775085449,-6.349928855895996
1761132331389199400,5.548199462890625,15.493714332580566,3.766820192337036,-4.639892101287842
1761132331399198500,5.558198486328125,10.304025650024414,4.897129058837891,-2.186124324798584
1761132331409198300,5.5681982421875,5.205264091491699,5.011266231536865,1.2071771621704102
1761132331419198500,5.578198486328125,1.308150291442871,4.501506805419922,3.951284408569336
1761132331429198300,5.5881982421875,-1.4714994430541992,4.289065361022949,5.799032688140869
1761132331439198500,5.598198486328125,-2.5322017669677734,3.7831621170043945,7.315634250640869
1761132331449198300,5.6081982421875,-2.170103073120117,3.061782121658325,7.876100063323975
1761132331459198500,5.618198486328125,-2.3525352478027344,2.556702136993408,7.325448036193848
1761132331469198300,5.6281982421875,-4.080595970153809,2.2278268337249756,6.002273082733154
1761132331479198500,5.638198486328125,-5.953604698181152,2.0615224838256836,4.725311279296875
1761132331489198300,5.6481982421875,-7.685192584991455,2.04959774017334,3.7876574993133545
1761132331499199200,5.65819921875,-8.932475090026855,2.1362979412078857,3.633389949798584
1761132331509199000,5.66819921875,-9.743809700012207,2.1466691493988037,4.164994716644287
1761132331519199200,5.67819921875,-10.573513984680176,1.9136466979980469,4.732860565185547
1761132331529199000,5.68819921875,-11.447538375854492,1.4316327571868896,4.999124526977539
1761132331539199200,5.69819921875,-12.374272346496582,0.9331178665161133,5.247106552124023
1761132331549199000,5.70819921875,-13.388102531433105,0.5511786937713623,5.57039737701416
1761132331559199200,5.71819921875,-14.33920669555664,0.17524302005767822,5.766416549682617
1761132331569199000,5.72819921875,-14.456771850585938,-0.2378782033920288,6.008907318115234
1761132331579199200,5.73819921875,-14.50219440460205,-0.3062279224395752,5.559998035430908
1761132331589199000,5.74819921875,-14.229238510131836,-0.551325798034668,4.9833197593688965
1761132331599198200,5.7581982421875,-14.394702911376953,-0.8431376218795776,4.86682653427124
1761132331609198300,5.7681982421875,-14.474687576293945,-1.0085225105285645,4.32862663269043
1761132331619198200,5.7781982421875,-14.455181121826172,-1.0491055250167847,3.448392868041992
1761132331629198300,5.7881982421875,-14.15485954284668,-1.1775227785110474,2.570582389831543
1761132331639198200,5.7981982421875,-13.396270751953125,-1.4538322687149048,1.6810288429260254
1761132331649198300,5.8081982421875,-12.585779190063477,-1.6500556468963623,1.302681565284729
1761132331659198200,5.8181982421875,-11.885340690612793,-1.8520289659500122,1.3945019245147705
1761132331669198300,5.8281982421875,-11.305671691894531,-1.9979853630065918,1.6383461952209473
1761132331679198200,5.8381982421875,-10.964096069335938,-2.0252718925476074,1.9406161308288574
1761132331689198300,5.8481982421875,-10.901938438415527,-2.053382158279419,2.236783266067505
1761132331699199000,5.858198974609375,-10.59465503692627,-2.1264216899871826,2.357419490814209
1761132331709199000,5.86819921875,-9.851746559143066,-2.184126853942871,2.2393927574157715
1761132331719199200,5.87819921875,-8.49036693572998,-2.326995372772217,2.2233614921569824
1761132331729199000,5.88819921875,-6.314733028411865,-2.440551519393921,2.1182861328125
1761132331739199200,5.89819921875,-3.941524028778076,-2.629359006881714,1.7212188243865967
1761132331749199000,5.90819921875,-3.9578824043273926,-2.608546733856201,1.6321017742156982
1761132331759199200,5.91819921875,0.5978479385375977,-2.878384828567505,0.025366246700286865
1761132331769199000,5.92819921875,2.852749824523926,-2.851456880569458,-1.0656660795211792
1761132331779199200,5.93819921875,2.8503894805908203,-2.851177453994751,-1.0925300121307373
1761132331789199000,5.94819921875,4.998220443725586,-0.6103625297546387,-3.0150465965270996
1761132331799198200,5.9581982421875,6.453611373901367,1.0268661975860596,-3.6725807189941406
1761132331809198300,5.9681982421875,10.914056777954102,1.8766686916351318,-2.874793529510498
1761132331819198200,5.9781982421875,18.788433074951172,1.8337087631225586,-0.9280714392662048
1761132331829198300,5.9881982421875,18.732337951660156,1.9766700267791748,-1.1044089794158936
1761132331839198200,5.9981982421875,29.506427764892578,0.8649873733520508,0.4698355793952942
1761132331849198300,6.0081982421875,31.838701248168945,0.5398578643798828,0.5412693619728088
1761132331859198200,6.0181982421875,32.38339614868164,0.22523093223571777,1.0855441093444824
1761132331869198300,6.0281982421875,30.138538360595703,0.4487030506134033,2.0869009494781494
1761132331879198200,6.0381982421875,25.740726470947266,1.3495376110076904,2.5023891925811768
1761132331889198300,6.0481982421875,20.358264923095703,2.3668553829193115,2.4782423973083496
1761132331899199200,6.05819921875,15.014841079711914,3.115433931350708,2.100216865539551
1761132331909199000,6.06819921875,10.228856086730957,3.9024572372436523,1.7491120100021362
1761132331919199200,6.07819921875,6.526618957519531,4.328045845031738,1.7072551250457764
1761132331929199000,6.08819921875,3.7861671447753906,4.408927917480469,1.9521970748901367
1761132331939199200,6.09819921875,2.429762840270996,4.195589542388916,2.158599853515625
1761132331949199000,6.10819921875,1.8322639465332031,3.845808982849121,2.26528263092041
1761132331959199200,6.11819921875,1.2610769271850586,3.4600672721862793,2.188915252685547
1761132331969199000,6.12819921875,0.2618389129638672,3.2882118225097656,1.7824376821517944
1761132331979199200,6.13819921875,-0.9523029327392578,3.3595378398895264,1.0101356506347656
1761132331989199000,6.14819921875,-2.3218278884887695,3.5982589721679688,0.47384655475616455
1761132331999198200,6.1581982421875,-3.3712644577026367,3.8386929035186768,0.38614368438720703
1761132332009198300,6.1681982421875,-4.413564205169678,3.9706082344055176,0.4852181673049927
1761132332019198200,6.1781982421875,-5.387752532958984,4.058019638061523,0.7901684045791626
1761132332029198300,6.1881982421875,-6.1535964012146,4.015731334686279,1.290266752243042
1761132332039198200,6.1981982421875,-6.652583122253418,3.708890438079834,2.1374027729034424
1761132332049198300,6.2081982421875,-7.281773567199707,3.1071584224700928,2.817302703857422
1761132332059198200,6.2181982421875,-7.954664707183838,2.28733229637146,3.1027910709381104
1761132332069198300,6.2281982421875,-8.133039474487305,1.4333735704421997,3.4549999237060547
1761132332079198200,6.2381982421875,-8.459659576416016,0.565949559211731,3.663525104522705
1761132332089198000,6.248197998046875,-8.44746208190918,0.22228240966796875,3.4640183448791504
1761132332099199000,6.258198974609375,-11.49104118347168,-1.0086389780044556,2.6895599365234375
1761132332109199000,6.26819921875,-13.19616985321045,-1.6694103479385376,1.755267858505249
1761132332119199000,6.278198974609375,-14.869161605834961,-2.2304928302764893,1.2124114036560059
1761132332129199000,6.28819921875,-16.211198806762695,-2.754178047180176,1.207144021987915
1761132332139199000,6.298198974609375,-16.623491287231445,-2.9214155673980713,1.0811901092529297
1761132332149199000,6.30819921875,-15.593254089355469,-3.2361278533935547,1.9020018577575684
1761132332159199000,6.318198974609375,-14.39035415649414,-3.2788288593292236,2.4232020378112793
1761132332169199000,6.32819921875,-13.511266708374023,-3.059553861618042,2.8123297691345215
1761132332179199000,6.338198974609375,-12.895459175109863,-2.917050361633301,3.25260066986084
1761132332189199000,6.34819921875,-12.549015998840332,-2.987308979034424,3.589792251586914
1761132332199198200,6.3581982421875,-12.237138748168945,-2.9604241847991943,3.67202091217041
1761132332209198300,6.3681982421875,-11.611660957336426,-2.8414463996887207,3.430757522583008
1761132332219198200,6.3781982421875,-10.77584457397461,-2.5323386192321777,3.373978614807129
1761132332229198300,6.3881982421875,-9.457700729370117,-2.4788403511047363,3.3406519889831543
1761132332239198200,6.3981982421875,-7.430667877197266,-2.3048994541168213,3.0263330936431885
1761132332249198300,6.4081982421875,-5.137158393859863,-2.1939961910247803,2.425595998764038
1761132332259198200,6.4181982421875,-2.2813572883605957,-2.331718683242798,1.6549599170684814
1761132332269198300,6.4281982421875,1.1305932998657227,-2.2101738452911377,1.113092064857483
1761132332279198200,6.4381982421875,4.184047698974609,-2.035433769226074,0.2922746539115906
1761132332289198300,6.4481982421875,5.5055952072143555,-1.525641918182373,-1.0331885814666748
1761132332299199000,6.458198974609375,5.971912384033203,-0.2543172836303711,-1.9475281238555908
1761132332309199000,6.46819921875,5.959074020385742,-0.2342696189880371,-1.858168601989746
1761132332319199200,6.47819921875,9.791545867919922,3.5515036582946777,0.22475188970565796
1761132332329199000,6.48819921875,13.337647438049316,4.297563076019287,1.7423055171966553
1761132332339199200,6.49819921875,17.116561889648438,4.051054000854492,2.3219196796417236
1761132332349199000,6.50819921875,20.594905853271484,3.8694891929626465,2.605825901031494
1761132332359199200,6.51819921875,22.993637084960938,3.551053524017334,2.734736919403076
1761132332369199000,6.52819921875,22.893741607666016,3.7761473655700684,2.586275339126587
1761132332379199200,6.53819921875,22.330230712890625,2.487258195877075,2.0259594917297363
1761132332389199000,6.54819921875,18.918872833251953,2.556974411010742,0.6775894165039062
1761132332399198200,6.5581982421875,15.635624885559082,2.8101720809936523,-0.15828531980514526
1761132332409198300,6.5681982421875,12.82953929901123,3.1777539253234863,0.20919746160507202
1761132332419198200,6.5781982421875,11.105698585510254,3.444122552871704,1.5179790258407593
1761132332429198300,6.5881982421875,10.047052383422852,3.4440925121307373,2.9719743728637695
1761132332439198200,6.5981982421875,9.076119422912598,3.373992919921875,3.702425479888916
1761132332449198300,6.6081982421875,7.82191276550293,3.265660285949707,3.4360482692718506
1761132332459198200,6.6181982421875,6.599804878234863,3.1415061950683594,2.3100481033325195
1761132332469198300,6.6281982421875,4.973687171936035,3.1328911781311035,0.6043974161148071
1761132332479198200,6.6381982421875,2.94240665435791,3.4618163108825684,-1.2073711156845093
1761132332489198300,6.6481982421875,1.1540203094482422,3.7623093128204346,-2.731205701828003
1761132332499199200,6.65819921875,-0.09747123718261719,4.208132266998291,-3.259781837463379
1761132332509199000,6.66819921875,-1.3405437469482422,4.626189231872559,-2.616518020629883
1761132332519199200,6.67819921875,-2.6451663970947266,4.50482177734375,-1.573068618774414
1761132332529199000,6.68819921875,-4.80742073059082,4.123380184173584,-1.3372246026992798
1761132332539199200,6.69819921875,-7.63360595703125,3.4203503131866455,-1.3362537622451782
1761132332549199000,6.70819921875,-10.650388717651367,2.5152950286865234,-1.127236008644104
1761132332559199200,6.71819921875,-12.875764846801758,1.7099616527557373,-0.5284727811813354
1761132332569199000,6.72819921875,-13.804080963134766,0.8727766275405884,0.3558085560798645
1761132332579199200,6.73819921875,-15.356941223144531,0.24210357666015625,1.3127243518829346
1761132332589199000,6.74819921875,-16.823963165283203,0.1944422721862793,2.4768803119659424
1761132332599198200,6.7581982421875,-17.095081329345703,0.3597599267959595,3.764432907104492
1761132332609198300,6.7681982421875,-16.8778018951416,0.18008637428283691,4.406097888946533
1761132332619198200,6.7781982421875,-16.560863494873047,0.2555391788482666,4.296854496002197
1761132332629198300,6.7881982421875,-16.034448623657227,0.14184975624084473,3.7583863735198975
1761132332639198200,6.7981982421875,-15.16059684753418,-0.18403887748718262,3.107786178588867
1761132332649198300,6.8081982421875,-13.79702377319336,-0.6197396516799927,2.105825185775757
1761132332659198200,6.8181982421875,-12.081087112426758,-1.208674430847168,1.298469066619873
1761132332669198300,6.8281982421875,-10.773053169250488,-1.7134850025177002,0.4887255132198334
1761132332679198200,6.8381982421875,-9.306760787963867,-2.324000597000122,-0.19366832077503204
1761132332689198000,6.848197998046875,-8.209108352661133,-2.6612420082092285,-0.6332882046699524
1761132332699199000,6.858198974609375,-7.184225082397461,-2.880312919616699,-0.9076986312866211
1761132332709199000,6.86819921875,-6.274204254150391,-2.922882318496704,-0.953633189201355
1761132332719199200,6.87819921875,-5.555272102355957,-2.794813394546509,-0.7675701975822449
1761132332729199000,6.88819921875,-4.969627380371094,-2.6863479614257812,-0.3561071753501892
1761132332739199200,6.89819921875,-3.839787006378174,-2.4461119174957275,-0.3031882345676422
1761132332749199000,6.90819921875,-2.8680200576782227,-2.26108717918396,-0.8299109935760498
1761132332759199200,6.91819921875,-1.4757804870605469,-2.1515092849731445,-1.5945874452590942
1761132332769199000,6.92819921875,0.9518022537231445,-2.280094861984253,-2.4896080493927
1761132332779199200,6.93819921875,3.6603574752807617,-2.853968620300293,-2.6168301105499268
1761132332789199000,6.94819921875,6.313471794128418,-3.00876522064209,-2.0565357208251953
1761132332799198200,6.9581982421875,6.31809139251709,-3.033914089202881,-2.082002878189087
1761132332809198300,6.9681982421875,9.848335266113281,-1.892408847808838,1.7797951698303223
1761132332819198200,6.9781982421875,10.26282787322998,-0.9357482194900513,4.177565097808838
1761132332829198300,6.9881982421875,11.097794532775879,-0.027352094650268555,6.688645839691162
1761132332839198200,6.9981982421875,13.38835620880127,1.2217960357666016,9.431095123291016
1761132332849198300,7.0081982421875,16.04943084716797,1.869226336479187,11.594263076782227
1761132332859198200,7.0181982421875,17.048381805419922,0.9728857278823853,13.083498001098633
1761132332869198300,7.0281982421875,17.069435119628906,1.1932836771011353,12.69674301147461
1761132332879198200,7.0381982421875,20.534042358398438,0.10548949241638184,16.525569915771484
1761132332889198300,7.0481982421875,20.503238677978516,0.09891623258590698,15.084449768066406
1761132332899199000,7.058198974609375,19.899703979492188,0.33153605461120605,12.280584335327148
1761132332909199000,7.06819921875,19.00910186767578,0.5122308135032654,8.95436954498291
1761132332919165700,7.078165771484375,18.9117431640625,1.0464146137237549,6.075326442718506
1761132332929132500,7.088132568359375,17.863929748535156,1.7802748680114746,3.551234722137451
1761132332939099100,7.09809912109375,16.289661407470703,2.866304397583008,0.6260759830474854
1761132332949065700,7.108065673828125,14.590152740478516,4.386580467224121,-2.4818191528320312
1761132332959032600,7.118032470703125,13.048213958740234,6.2115912437438965,-4.99185037612915
1761132332968999200,7.127999267578125,11.62571907043457,7.642867088317871,-5.946737289428711
1761132332978965800,7.1379658203125,9.421711921691895,8.5667724609375,-6.261707305908203
1761132332988932600,7.1479326171875,6.444037437438965,8.688665390014648,-6.4863481521606445
1761132332998898200,7.157898193359375,2.988358497619629,8.245311737060547,-7.019577980041504
1761132333008865000,7.167864990234375,-0.2964916229248047,7.712296009063721,-7.513725757598877
1761132333018831600,7.17783154296875,-3.846149444580078,6.894556045532227,-6.484128952026367
1761132333028798200,7.187798095703125,-6.844428062438965,5.88381814956665,-5.2004804611206055
1761132333038764800,7.197764892578125,-9.77553653717041,5.001643180847168,-4.122912406921387
1761132333048731600,7.207731689453125,-12.896469116210938,4.178595542907715,-3.317532539367676
1761132333058698200,7.2176982421875,-16.119714736938477,3.6283445358276367,-2.620906352996826
1761132333068664800,7.227664794921875,-18.793354034423828,3.3812761306762695,-2.4931857585906982
1761132333078631400,7.23763134765625,-21.01216697692871,3.268933057785034,-2.7788453102111816
1761132333088598300,7.247598388671875,-21.391460418701172,3.0440168380737305,-3.2445034980773926
1761132333098565600,7.257565673828125,-20.773441314697266,2.8077878952026367,-3.85849666595459
1761132333108532500,7.267532470703125,-19.196691513061523,2.4979729652404785,-4.403765678405762
1761132333118499000,7.2774990234375,-16.806411743164062,2.1265225410461426,-5.103187561035156
1761132333128465700,7.287465576171875,-13.885896682739258,1.6053180694580078,-5.696673393249512
1761132333138432500,7.2974326171875,-11.485421180725098,0.9906666874885559,-5.780635833740234
1761132333148399000,7.307399169921875,-9.70993423461914,0.39450716972351074,-5.8327412605285645
1761132333158365400,7.317365478515625,-8.697579383850098,-0.10235723853111267,-6.12221622467041
1761132333168332000,7.32733203125,-8.326929092407227,-0.6718828678131104,-6.378745079040527
1761132333178298600,7.337298583984375,-8.098784446716309,-1.242307186126709,-6.529785633087158
1761132333188265500,7.347265380859375,-7.871062278747559,-1.5159995555877686,-6.55357551574707
1761132333198231300,7.357231201171875,-7.50172233581543,-1.6765408515930176,-6.553888320922852
1761132333208198000,7.367197998046875,-6.762020111083984,-1.9540839195251465,-6.267987251281738
1761132333218197800,7.37719775390625,-5.647573471069336,-2.307637929916382,-5.6716766357421875
1761132333228198000,7.387197998046875,-4.823240280151367,-2.7289671897888184,-4.882161617279053
1761132333238197800,7.39719775390625,-4.784031867980957,-2.8306617736816406,-5.039391040802002
1761132333248198000,7.407197998046875,-3.8501648902893066,-3.436708927154541,-2.789949893951416
1761132333258197800,7.41719775390625,-3.520968437194824,-3.6296372413635254,-1.758423089981079
1761132333268198000,7.427197998046875,-2.9987549781799316,-3.866732597351074,-0.47204017639160156
1761132333278197800,7.43719775390625,-2.1481738090515137,-4.303530693054199,1.0615694522857666
1761132333288198000,7.447197998046875,-1.049281120300293,-4.707723617553711,2.084226131439209
1761132333298198800,7.45719873046875,-0.9435758590698242,-4.872179985046387,1.8889861106872559
1761132333308198700,7.46719873046875,2.843557357788086,-5.909137725830078,2.377139091491699
1761132333318198800,7.47719873046875,5.164002418518066,-5.835213661193848,4.15948486328125
1761132333328198700,7.48719873046875,7.537789344787598,-4.921661853790283,6.368680953979492
1761132333338198800,7.49719873046875,11.044891357421875,-4.289066314697266,8.656675338745117
1761132333348198700,7.50719873046875,15.161229133605957,-4.19404935836792,10.7937593460083
1761132333358198800,7.51719873046875,15.102592468261719,-4.0514631271362305,10.869691848754883
1761132333368198700,7.52719873046875,20.94998550415039,-2.695758104324341,10.167280197143555
1761132333378198800,7.53719873046875,21.8963623046875,-2.430208206176758,10.527008056640625
1761132333388198700,7.54719873046875,22.502147674560547,-2.2987465858459473,12.027449607849121
1761132333398198000,7.557197998046875,21.106826782226562,-1.922140121459961,12.850934982299805
1761132333408198000,7.567197998046875,21.09870719909668,-1.7653985023498535,12.82304573059082
1761132333418197800,7.57719775390625,16.140396118164062,-0.031790852546691895,13.387085914611816
1761132333428198000,7.587197998046875,13.234301567077637,1.188610553741455,12.192866325378418
1761132333438198000,7.597197998046875,9.571382522583008,2.2150235176086426,10.383018493652344
1761132333448198000,7.607197998046875,6.550189971923828,2.892979621887207,9.71822738647461
1761132333458198300,7.6171982421875,4.992799758911133,3.5312745571136475,9.466339111328125
1761132333468198400,7.627198486328125,3.860240936279297,4.141327381134033,8.823450088500977
1761132333478198300,7.6371982421875,2.310898780822754,4.592043399810791,7.440985679626465
1761132333488198100,7.6471982421875,1.353865623474121,4.810438632965088,6.817929267883301
1761132333498199000,7.657198974609375,0.7889537811279297,5.4765543937683105,6.203595161437988
1761132333508199200,7.66719921875,-0.7336492538452148,6.589217662811279,4.956571578979492
1761132333518199000,7.677198974609375,-3.0079379081726074,7.3146281242370605,4.040139675140381
1761132333528199200,7.68719921875,-4.499120712280273,7.91550350189209,2.057551383972168
1761132333538199000,7.697198974609375,-6.747068405151367,8.177616119384766,0.028080463409423828
1761132333548199200,7.70719921875,-8.494706153869629,8.43390941619873,-1.066451072692871
1761132333558199000,7.717198974609375,-9.760239601135254,8.52405071258545,-1.9643259048461914
1761132333568199000,7.727198974609375,-10.591501235961914,8.567666053771973,-2.3470029830932617
1761132333578199000,7.737198974609375,-11.600713729858398,8.582778930664062,-2.001265525817871
1761132333588199000,7.747198974609375,-12.220718383789062,8.50489616394043,-1.482182264328003
1761132333598198000,7.757197998046875,-13.035757064819336,8.271764755249023,-1.0632119178771973
1761132333608198100,7.7671982421875,-13.918142318725586,7.716813087463379,-0.9948611259460449
1761132333618198000,7.777197998046875,-14.566850662231445,7.130289077758789,-1.120706558227539
1761132333628198100,7.7871982421875,-14.935890197753906,6.490265846252441,-1.5569500923156738
1761132333638198000,7.797197998046875,-14.9400634765625,6.367428779602051,-1.5606002807617188
1761132333648198100,7.8071982421875,-14.617729187011719,5.027653217315674,-2.354792833328247
1761132333658198000,7.817197998046875,-13.823982238769531,4.391727447509766,-2.6109819412231445
1761132333668198000,7.827197998046875,-12.940460205078125,3.6583445072174072,-2.717316150665283
1761132333678198000,7.837197998046875,-11.987247467041016,2.987213373184204,-2.8036794662475586
1761132333688198100,7.8471982421875,-11.065082550048828,2.4607932567596436,-2.7913877964019775
1761132333698198800,7.85719873046875,-10.243881225585938,2.050529718399048,-2.469425678253174
1761132333708199000,7.867198974609375,-9.27172565460205,1.5483925342559814,-2.108333110809326
1761132333718199000,7.877198974609375,-8.743309020996094,1.1679179668426514,-2.0724382400512695
1761132333728199000,7.887198974609375,-8.3563871383667,0.8004711866378784,-2.0307676792144775
1761132333738198800,7.89719873046875,-7.69889497756958,0.5770718455314636,-1.5652661323547363
1761132333748199000,7.907198974609375,-6.845393657684326,0.19592779874801636,-1.0465993881225586
1761132333758199000,7.917198974609375,-5.4986982345581055,-0.20286431908607483,-0.586829662322998
1761132333768199000,7.927198974609375,-3.16262149810791,-0.6721645593643188,-0.1420896053314209
1761132333778199000,7.937198974609375,-1.039179801940918,-1.0293779373168945,0.3365175724029541
1761132333788199000,7.947198974609375,0.9319324493408203,-1.5715749263763428,0.6393682956695557
1761132333798198000,7.957197998046875,3.2252769470214844,-2.274848699569702,0.5180103778839111
1761132333808198100,7.9671982421875,5.454913139343262,-3.1233925819396973,0.36182355880737305
1761132333818198000,7.977197998046875,7.19791316986084,-4.141226768493652,0.9357032775878906
1761132333828198100,7.9871982421875,9.142845153808594,-4.687504768371582,1.6300227642059326
1761132333838198000,7.997197998046875,11.05993938446045,-5.331116199493408,2.406773090362549
1761132333848198100,8.0071982421875,12.269793510437012,-6.361642837524414,3.7186498641967773
1761132333858198300,8.0171982421875,12.63950252532959,-7.039114475250244,4.690251350402832
1761132333868198100,8.0271982421875,12.505208969116211,-7.360528945922852,5.25792121887207
1761132333878198300,8.0371982421875,13.24025821685791,-7.399655818939209,6.153624534606934
1761132333888198100,8.0471982421875,13.756110191345215,-6.215607166290283,7.6517205238342285
1761132333898199000,8.057198974609374,14.83828067779541,-4.499427795410156,7.672792434692383
1761132333908199200,8.06719921875,17.809711456298828,-2.507930278778076,6.675390243530273
1761132333918199000,8.077198974609376,20.829954147338867,-1.2939643859863281,6.301081657409668
1761132333928199200,8.08719921875,23.92929458618164,-1.0033206939697266,6.783055305480957
1761132333938199000,8.097198974609375,25.147266387939453,-0.5261322855949402,6.6983184814453125
1761132333948199200,8.10719921875,22.993114471435547,0.5876495838165283,5.3154096603393555
1761132333958199000,8.117198974609375,19.140460968017578,2.406991481781006,3.867884397506714
1761132333968199200,8.12719921875,15.430078506469727,4.391495704650879,2.900421380996704
1761132333978199000,8.137198974609374,12.425068855285645,5.972811698913574,3.2913718223571777
1761132333988199200,8.14719921875,10.179679870605469,7.34456729888916,4.844744682312012
1761132333998198300,8.1571982421875,8.257988929748535,8.089221954345703,6.0193376541137695
1761132334008198400,8.167198486328125,4.499300003051758,8.720463752746582,6.543196678161621
1761132334018198300,8.1771982421875,0.6278495788574219,8.933777809143066,5.985942363739014
1761132334028198100,8.1871982421875,-2.7074694633483887,8.887809753417969,4.945343017578125
1761132334038198300,8.1971982421875,-5.558387279510498,8.583538055419922,3.729407787322998
1761132334048198100,8.2071982421875,-7.8911004066467285,7.904745578765869,2.36527681350708
1761132334058198300,8.2171982421875,-9.752300262451172,7.236447334289551,0.764001727104187
1761132334068198100,8.2271982421875,-10.809639930725098,6.756314277648926,-0.16505593061447144
1761132334078198300,8.2371982421875,-11.561829566955566,6.15036678314209,-0.5735443830490112
1761132334088198100,8.2471982421875,-11.965232849121094,5.564112186431885,-0.6379523873329163
1761132334098199000,8.257198974609375,-12.127552032470703,5.0264811515808105,-0.44807812571525574
1761132334108199200,8.26719921875,-12.127817153930664,4.946506023406982,-0.39001449942588806
1761132334118199000,8.277198974609375,-12.825338363647461,3.799809455871582,0.8017083406448364
1761132334128199200,8.28719921875,-13.454340934753418,3.0711922645568848,1.2111293077468872
1761132334138199000,8.297198974609374,-13.99644660949707,2.2810540199279785,1.1797325611114502
1761132334148199200,8.30719921875,-14.32352066040039,1.5097640752792358,0.7996276021003723
1761132334158199000,8.317198974609376,-14.329233169555664,0.7545150518417358,0.3551257848739624
1761132334168199200,8.32719921875,-14.170587539672852,-0.03438246250152588,-0.1562516689300537
1761132334178199000,8.337198974609375,-13.601369857788086,-0.5821895599365234,-0.5717950463294983
1761132334188199200,8.34719921875,-12.648985862731934,-1.0627732276916504,-0.868039608001709
1761132334198198300,8.3571982421875,-11.492358207702637,-1.5436104536056519,-1.071915864944458
1761132334208198400,8.367198486328125,-10.309749603271484,-1.7970240116119385,-1.2672245502471924
1761132334228198100,8.3871982421875,-8.705350875854492,-2.0443103313446045,-1.0801016092300415
1761132334238198300,8.3971982421875,-8.539471626281738,-2.0169734954833984,-0.8575083017349243
1761132334248198100,8.4071982421875,-8.601683616638184,-1.9235893487930298,-0.47899365425109863
1761132334258198300,8.4171982421875,-8.502577781677246,-1.8055821657180786,0.08740159869194031
1761132334268198100,8.4271982421875,-8.040458679199219,-1.7407159805297852,0.5289520621299744
1761132334278198300,8.4371982421875,-8.019331932067871,-1.8358910083770752,0.5582724213600159
1761132334288198100,8.4471982421875,-4.7942609786987305,-1.7845414876937866,0.42718401551246643
1761132334298199000,8.457198974609375,-2.3397579193115234,-1.9224340915679932,0.42095863819122314
1761132334308199000,8.467198974609374,-0.1855926513671875,-2.125751256942749,0.7757425904273987
1761132334318199000,8.477198974609376,1.1865758895874023,-2.070633888244629,1.2076177597045898
1761132334328199000,8.487198974609376,2.021214485168457,-1.3070094585418701,0.6269192695617676
1761132334338199000,8.497198974609375,3.2628555297851562,-0.4331514835357666,-2.409238338470459
1761132334348199000,8.507198974609375,3.6464719772338867,-0.09676766395568848,-3.3988966941833496
1761132334358199000,8.517198974609375,5.074448585510254,0.7299504280090332,-4.569697380065918
1761132334368199200,8.52719921875,6.22318172454834,1.909837245941162,-3.9315032958984375
1761132334378199000,8.537198974609375,5.399465560913086,1.4789338111877441,-1.811550498008728
1761132334388199200,8.54719921875,3.6456308364868164,2.925752878189087,-0.4544576108455658
1761132334398198300,8.5571982421875,1.957636833190918,5.379524230957031,1.6677340269088745
1761132334408198100,8.5671982421875,-0.6399374008178711,5.647882461547852,5.360831260681152
1761132334418198300,8.5771982421875,0.1339120864868164,3.7643747329711914,6.676119804382324
1761132334428198100,8.5871982421875,5.618936538696289,0.8503541946411133,4.777636528015137
1761132334438198300,8.5971982421875,14.241511344909668,-2.4397807121276855,1.5197833776474
1761132334448198100,8.6071982421875,16.173362731933594,-5.038737773895264,-0.24244892597198486
1761132334458198300,8.6171982421875,16.476726531982422,-1.7365328073501587,-2.6991569995880127
1761132334468198100,8.6271982421875,14.016302108764648,-0.4724334478378296,-0.08628213405609131
1761132334478198300,8.6371982421875,8.988716125488281,0.8856221437454224,2.2175540924072266
1761132334488198100,8.6471982421875,4.543436050415039,3.7935450077056885,0.6162904500961304
1761132334498199000,8.657198974609376,0.3960733413696289,2.367375135421753,1.1527400016784668
1761132334508199200,8.66719921875,-1.6173572540283203,-0.030450165271759033,1.649156093597412
1761132334518199000,8.677198974609375,-2.0150856971740723,-0.18071770668029785,1.5710409879684448
1761132334528199200,8.68719921875,-1.853095531463623,0.624129056930542,1.6335200071334839
1761132334538199000,8.697198974609375,-1.4278621673583984,1.4725544452667236,1.5033795833587646
1761132334548199200,8.70719921875,-1.524428367614746,1.8724350929260254,1.5398513078689575
1761132334558199300,8.71719921875,-1.5200433731079102,2.0829365253448486,1.4595366716384888
1761132334568199400,8.727199462890624,-2.895171642303467,1.6202075481414795,1.790073037147522
1761132334578199300,8.73719921875,-3.434544563293457,2.0163252353668213,1.490161418914795
1761132334588199400,8.747199462890626,-3.3877410888671875,2.3086676597595215,1.3426241874694824
1761132334598198500,8.757198486328125,-2.8154444694519043,2.6724510192871094,0.6444043517112732
1761132334608198400,8.767198486328125,-2.373779296875,3.2852983474731445,0.08441833406686783
1761132334618198500,8.777198486328125,-1.9692678451538086,3.2700161933898926,0.3635411262512207
1761132334628198400,8.787198486328125,-0.46496105194091797,2.997359275817871,0.5301690101623535
1761132334638198500,8.797198486328124,1.3076257705688477,2.9144392013549805,0.6720454692840576
1761132334648198400,8.807198486328126,2.8883485794067383,3.391622543334961,-0.239104762673378
1761132334658198500,8.817198486328126,3.9666643142700195,3.463794708251953,-0.40311160683631897
1761132334668198400,8.827198486328125,4.138314247131348,2.8060989379882812,-0.11594730615615845
1761132334678198500,8.837198486328125,3.6271276473999023,1.6664901971817017,0.7324986457824707
1761132334688198400,8.847198486328125,3.391885757446289,-0.00037157535552978516,1.6063607931137085
1761132334698199300,8.85719921875,2.76992130279541,-1.1912819147109985,2.069361686706543
1761132334708199400,8.867199462890625,-0.3107633590698242,0.7823218703269958,0.09601098299026489
1761132334718199300,8.87719921875,-2.5279812812805176,3.8960936069488525,-1.4940056800842285
1761132334728199400,8.887199462890624,-3.2770838737487793,3.569408416748047,-0.8667423725128174
1761132334738199300,8.89719921875,-3.4417061805725098,2.775949001312256,1.6856653690338135
1761132334748199400,8.907199462890626,-0.9372720718383789,1.6214168071746826,3.6578502655029297
1761132334758199300,8.91719921875,2.980226516723633,0.9364725351333618,4.127403736114502
1761132334768199400,8.927199462890625,5.955328941345215,-1.3786861896514893,4.029530048370361
1761132334778199300,8.93719921875,7.476903915405273,-3.7117109298706055,3.7972311973571777
1761132334788199400,8.947199462890625,6.207514762878418,-3.9090912342071533,2.1825342178344727
1761132334798198500,8.957198486328124,3.7529211044311523,-2.973475456237793,1.0348856449127197
1761132334808198400,8.967198486328124,0.8201694488525391,-0.9957230091094971,-0.4107089638710022
1761132334818198500,8.977198486328126,-1.4949865341186523,0.39983105659484863,-0.7919191122055054
1761132334828198400,8.987198486328126,-3.1780829429626465,1.2068455219268799,0.03126460313796997
1761132334838198500,8.997198486328125,-3.1242995262145996,1.9808602333068848,0.515414834022522
1761132334848198400,9.007198486328125,-1.9671154022216797,2.698791742324829,0.3316711187362671
1761132334858198300,9.0171982421875,-1.1054801940917969,2.486520767211914,0.22284376621246338
1761132334868198100,9.0271982421875,-0.7510337829589844,1.5557719469070435,0.3268585205078125
1761132334878198300,9.0371982421875,-0.6279239654541016,0.9201550483703613,0.39907872676849365
1761132334888198100,9.0471982421875,-0.3524503707885742,0.6692179441452026,0.44906771183013916
1761132334898199000,9.057198974609374,-0.492279052734375,0.8205738067626953,0.31642234325408936
1761132334908199200,9.06719921875,-0.5609521865844727,1.1223876476287842,0.18244624137878418
1761132334918199000,9.077198974609376,-0.3991384506225586,1.7305495738983154,0.2815384864807129
1761132334928199200,9.08719921875,-2.8781909942626953,2.851017475128174,-0.3419175148010254
1761132334938199000,9.097198974609375,-5.057412147521973,2.4785866737365723,0.4271136522293091
1761132334948199200,9.10719921875,-5.523583889007568,1.68866765499115,1.9445669651031494
1761132334958198800,9.11719873046875,-4.861807823181152,1.6347450017929077,2.417616128921509
1761132334968198700,9.12719873046875,-3.3925223350524902,1.979968786239624,2.1776957511901855
1761132334978198800,9.13719873046875,-1.196563720703125,1.9971948862075806,1.9258086681365967
1761132334988198700,9.14719873046875,0.20099735260009766,1.49937105178833,1.1671736240386963
