time,seconds_elapsed,z,y,x
1761132325956873200,0.115873291015625,0.6015495657920837,0.6895905137062073,0.5876523852348328
1761132325991125000,0.150125,0.6015495657920837,0.6895905137062073,0.5876523852348328
1761132326001116400,0.160116455078125,0.6015495657920837,0.6895905137062073,0.5876523852348328
1761132326011116300,0.1701162109375,0.4366159439086914,0.41836634278297424,0.5418374538421631
1761132326021116400,0.180116455078125,0.34804046154022217,0.3554472029209137,0.35735616087913513
1761132326031116300,0.1901162109375,0.26251932978630066,0.3041345477104187,0.16920967400074005
1761132326041116400,0.200116455078125,0.18005253374576569,0.21678079664707184,-0.027488935738801956
1761132326051116300,0.2101162109375,0.10491610318422318,0.11171197891235352,-0.2028072625398636
1761132326071116300,0.2301162109375,0.046273041516542435,0.1178206354379654,-0.43249258399009705
1761132326081116400,0.240116455078125,0.08170322328805923,0.21555908024311066,-0.4893030524253845
1761132326091116300,0.2501162109375,0.15561792254447937,0.3401755690574646,-0.4954117238521576
1761132326101116400,0.260116455078125,0.2509129047393799,0.4611268937587738,-0.4440990388393402
1761132326111116500,0.270116455078125,0.3364340364933014,0.5387067794799805,-0.3384193480014801
1761132326121116400,0.280116455078125,0.395077109336853,0.5668066143989563,-0.22052235901355743
1761132326131116500,0.290116455078125,0.4311181604862213,0.5668066143989563,-0.12828169763088226
1761132326141116400,0.300116455078125,0.44028112292289734,0.54359370470047,-0.07147123664617538
1761132326151116500,0.310116455078125,0.36942076683044434,0.48861584067344666,-0.02871066704392433
1761132326161117000,0.320116943359375,0.3260493278503418,0.4770093858242035,0.005497787147760391
1761132326171117000,0.330116943359375,0.2747366428375244,0.4464661478996277,-0.030543262138962746
1761132326181117000,0.340116943359375,0.2203696370124817,0.3487277030944824,-0.0910189226269722
1761132326191117000,0.350116943359375,0.19349156320095062,0.3053562641143799,-0.12400564551353455
1761132326201116200,0.3601162109375,0.1892155110836029,0.2900846302509308,-0.15760323405265808
1761132326211116000,0.370115966796875,0.1843285858631134,0.23021984100341797,-0.2828305959701538
1761132326221116200,0.3801162109375,0.1635591685771942,0.16913332045078278,-0.38728857040405273
1761132326231116000,0.390115966796875,0.13790282607078552,0.15202908217906952,-0.46670106053352356
1761132326241116200,0.4001162109375,0.13301590085029602,0.1422552466392517,-0.5167919993400574
1761132326251116000,0.410115966796875,0.144622340798378,0.10804679244756699,-0.5540547966957092
1761132326261116200,0.4201162109375,0.15806138515472412,0.05734497308731079,-0.5797111392021179
1761132326271116000,0.430115966796875,0.1495092660188675,-0.004352414980530739,-0.6059783101081848
1761132326281116200,0.4401162109375,0.10980302840471268,-0.0746019184589386,-0.6511823534965515
1761132326291116000,0.450115966796875,0.09941831976175308,0.3902665376663208,-0.7000515460968018
1761132326301117000,0.460116943359375,0.09453139454126358,0.4855615198612213,-0.7458664774894714
1761132326311116800,0.47011669921875,0.09941831976175308,0.6309474110603333,-0.7244861721992493
1761132326321117000,0.480116943359375,0.08536841720342636,0.5674174427986145,-0.6786713004112244
1761132326331117000,0.490116943359375,0.03344487398862839,0.4867832362651825,-0.6126978397369385
1761132326341117000,0.500116943359375,0.009010262787342072,0.4922810196876526,-0.5222898125648499
1761132326351117000,0.510116943359375,-0.009926560334861279,0.5490915179252625,-0.45875978469848633
1761132326361117000,0.520116943359375,-0.005039638374000788,0.6529386043548584,-0.394008070230484
1761132326371117000,0.530116943359375,-0.005650503560900688,0.7372379899024963,-0.34697145223617554
1761132326381117000,0.540116943359375,-0.04108068719506264,0.753731369972229,-0.31581732630729675
1761132326391117000,0.550116943359375,-0.06490442901849747,0.7488444447517395,-0.27977627515792847
1761132326401116200,0.5601162109375,-0.08689557760953903,0.7299076318740845,-0.2669481039047241
1761132326411116300,0.5701162109375,-0.13698652386665344,0.6840927004814148,-0.31031954288482666
1761132326421116200,0.5801162109375,-0.14676037430763245,0.6413321495056152,-0.3701843321323395
1761132326431116300,0.5901162109375,-0.09728029370307922,0.5784130096435547,-0.46364670991897583
1761132326441116200,0.6001162109375,0.001679879380390048,0.4000403881072998,-0.6774495840072632
1761132326451116300,0.6101162109375,0.060322944074869156,0.20761781930923462,-0.8582656979560852
1761132326461116000,0.620115966796875,0.11652254313230515,-0.0006872233934700489,-1.0494664907455444
1761132326471115800,0.63011572265625,0.18188512325286865,-0.20838139951229095,-1.2235630750656128
1761132326481116000,0.640115966796875,0.294895201921463,-0.40996694564819336,-1.3603968620300293
1761132326491115800,0.65011572265625,0.4915938079357147,-0.6005569100379944,-1.4593570232391357
1761132326501116700,0.66011669921875,0.7420485615730286,-0.7086800336837769,-1.5344934463500977
1761132326511116500,0.670116455078125,0.9821186065673828,-0.701349675655365,-1.6194037199020386
1761132326521116700,0.68011669921875,1.0584768056869507,-0.6335436105728149,-1.7531832456588745
1761132326531116500,0.690116455078125,1.0438159704208374,-0.5706244707107544,-1.8417587280273438
1761132326541116700,0.70011669921875,1.0224356651306152,-0.6207154393196106,-1.806328535079956
1761132326551116500,0.710116455078125,1.0248792171478271,-0.8119162917137146,-1.6786576509475708
1761132326561116700,0.72011669921875,0.9424123764038086,-0.9438631534576416,-1.4526375532150269
1761132326571116500,0.730116455078125,0.8379544019699097,-1.2163090705871582,-1.2027937173843384
1761132326581116700,0.74011669921875,0.8733845949172974,-1.25051748752594,-1.10139000415802
1761132326591116500,0.750116455078125,1.018770456314087,-1.0196104049682617,-1.0299187898635864
1761132326601116000,0.760115966796875,1.1183415651321411,-0.6585890650749207,-0.9639453291893005
1761132326611115800,0.77011572265625,1.117730736732483,-0.28412869572639465,-0.9260717034339905
1761132326621115600,0.78011572265625,1.1855367422103882,-0.07643451541662216,-0.960280179977417
1761132326631115800,0.79011572265625,1.2618948221206665,-0.03978259861469269,-1.0018190145492554
1761132326641115600,0.80011572265625,1.2924381494522095,0.032299499958753586,-1.0604621171951294
1761132326651115800,0.81011572265625,1.3156510591506958,-0.19982929527759552,-1.3066407442092896
1761132326661115600,0.82011572265625,1.228297233581543,-0.8949939608573914,-1.834428310394287
1761132326671115800,0.83011572265625,0.9955576062202454,-2.053805351257324,-2.2266037464141846
1761132326681115600,0.84011572265625,0.8342891931533813,-3.9719221591949463,-1.4911220073699951
1761132326691115800,0.85011572265625,0.8458956480026245,-4.373260498046875,-0.23518311977386475
1761132326701116400,0.860116455078125,0.6815729141235352,-3.9529852867126465,1.0757336616516113
1761132326711116500,0.870116455078125,0.44394633173942566,-2.9303970336914062,1.8374826908111572
1761132326721116400,0.880116455078125,0.2399173229932785,-1.232802391052246,2.021353006362915
1761132326731116500,0.890116455078125,0.029168816283345222,0.6327800154685974,1.8771889209747314
1761132326741116400,0.900116455078125,-0.22067506611347198,1.8618409633636475,1.605353832244873
1761132326751116500,0.910116455078125,-0.6397286057472229,2.3651938438415527,1.2785409688949585
1761132326761116400,0.920116455078125,-0.9909761548042297,2.2027037143707275,1.0018190145492554
1761132326771116500,0.930116455078125,-1.1552989482879639,1.7079029083251953,0.8142833709716797
1761132326781116400,0.940116455078125,-1.1125383377075195,1.1911108493804932,0.7360926270484924
1761132326791116500,0.950116455078125,-0.9494373202323914,0.7176902890205383,0.7605272531509399
1761132326801115600,0.96011572265625,-0.7570147514343262,0.2894737720489502,0.8735373020172119
1761132326811115500,0.970115478515625,-0.5981897711753845,-0.1295797973871231,1.0543533563613892
1761132326821115600,0.98011572265625,-0.554818332195282,-0.42096251249313354,1.330464482307434
1761132326831115500,0.990115478515625,-0.6446155309677124,-0.5419138073921204,1.6297885179519653
1761132326841115600,1.00011572265625,-0.7979426980018616,-0.4887685477733612,1.8399261236190796
1761132326851115500,1.010115478515625,-1.0221302509307861,-0.38980838656425476,1.8906279802322388
1761132326861115600,1.02011572265625,-1.2188289165496826,-0.21693351864814758,1.7922786474227905
1761132326871115500,1.030115478515625,-1.2536481618881226,0.029856039211153984,1.6303993463516235
1761132326881115600,1.04011572265625,-1.1271990537643433,0.23999367654323578,1.4862351417541504
1761132326891115500,1.050115478515625,-0.8498662710189819,0.20517437160015106,1.330464482307434
1761132326901116400,1.060116455078125,-0.5175555944442749,-0.06849326193332672,1.186300277709961
1761132326911116300,1.0701162109375,-0.13026700913906097,-0.6585890650749207,1.19912850856781
1761132326921116400,1.080116455078125,-0.005650503560900688,-1.0397690534591675,1.3823879957199097
1761132326931116500,1.090116455078125,-0.17058411240577698,-1.3806318044662476,1.5570955276489258
1761132326941116400,1.100116455078125,-0.289702832698822,-1.5034157037734985,1.665218710899353
1761132326951116500,1.110116455078125,-0.2793181240558624,-1.3085497617721558,1.6731599569320679
1761132326961116400,1.120116455078125,-0.3104722499847412,-0.9322566986083984,1.5045610666275024
1761132326971116500,1.130116455078125,-0.44913867115974426,-0.5333617329597473,1.151481032371521
1761132326981116400,1.140116455078125,-0.622013509273529,-0.1601230502128601,0.6823364496231079
1761132326991116500,1.150116455078125,-0.7814493775367737,0.1630246639251709,0.16065755486488342
1761132327001115600,1.16011572265625,-0.9060658812522888,0.4256967306137085,-0.3335324227809906
1761132327011115500,1.170115478515625,-0.9976956844329834,0.5985715985298157,-0.7269296646118164
1761132327021115600,1.18011572265625,-1.0728321075439453,0.7140251398086548,-0.970054030418396
1761132327031115500,1.190115478515625,-1.124755620956421,0.8093200922012329,-1.0781772136688232
1761132327041115600,1.20011572265625,-1.1186469793319702,0.875904381275177,-1.1105530261993408
1761132327051115500,1.210115478515625,-1.062447428703308,0.9174432158470154,-1.0793988704681396
1761132327061115600,1.22011572265625,-0.9317222237586975,0.9577603340148926,-0.9205739498138428
1761132327071115500,1.230115478515625,-0.8113817572593689,0.9516516923904419,-0.846659243106842
1761132327081115600,1.24011572265625,-0.7283040881156921,0.9718102216720581,-0.7837401032447815
1761132327091115500,1.250115478515625,-0.5890268087387085,1.0817660093307495,-0.7299839854240417
1761132327101116200,1.2601162109375,-0.38927388191223145,1.1923326253890991,-0.7507534027099609
1761132327111116000,1.270115966796875,-0.1498146951198578,1.2240976095199585,-0.8649851679801941
1761132327121116200,1.2801162109375,0.06215553730726242,1.1648436784744263,-1.06351637840271
1761132327131116300,1.2901162109375,0.24113905429840088,1.0658835172653198,-1.2956452369689941
1761132327141116200,1.3001162109375,0.5899431109428406,0.8612436652183533,-1.576032280921936
1761132327151116000,1.310115966796875,0.8752171993255615,0.6993643641471863,-1.6139060258865356
1761132327161116200,1.3201162109375,1.1189523935317993,0.4409683346748352,-1.5460999011993408
1761132327171116000,1.330115966796875,1.2050844430923462,0.03352123126387596,-1.425148606300354
1761132327181116200,1.3401162109375,1.0291552543640137,-0.40508002042770386,-1.3720033168792725
1761132327191116000,1.350115966796875,0.6638578176498413,-1.130787968635559,-1.6041321754455566
1761132327201115400,1.360115478515625,0.304669052362442,-2.036090135574341,-2.096489429473877
1761132327211115300,1.370115234375,0.1843285858631134,-2.7184267044067383,-2.7458393573760986
1761132327221115400,1.380115478515625,0.3871358633041382,-2.865034341812134,-3.517972946166992
1761132327231115300,1.390115234375,0.6039929986000061,-2.5846471786499023,-4.237572193145752
1761132327241115400,1.400115478515625,0.7341073155403137,-2.056248664855957,-4.48436164855957
1761132327251115300,1.410115234375,0.850782573223114,-1.1032990217208862,-4.1190643310546875
1761132327261115400,1.420115478515625,0.9851729273796082,-0.1705077588558197,-3.444669008255005
1761132327271115300,1.430115234375,1.1537717580795288,0.3187952935695648,-2.643213987350464
1761132327281115400,1.440115478515625,1.2643383741378784,0.31146490573883057,-1.7318029403686523
1761132327291115300,1.450115234375,1.1763737201690674,-0.03550654277205467,-0.8796459436416626
1761132327301116200,1.4601162109375,0.8385652899742126,-0.47594037652015686,-0.23884831368923187
1761132327311116000,1.470115966796875,0.35353827476501465,-0.843070387840271,0.06902777403593063
1761132327321116200,1.4801162109375,-0.25244006514549255,-1.069090485572815,0.03237585723400116
1761132327331116300,1.4901162109375,-0.9378308653831482,-0.9420305490493774,-0.20952677726745605
1761132327341116200,1.5001162109375,-1.5774067640304565,-0.4472297132015228,-0.5931501388549805
1761132327351116300,1.5101162109375,-2.127185583114624,0.2803107798099518,-0.8912523984909058
1761132327361116200,1.5201162109375,-2.501645803451538,1.0939832925796509,-0.921795666217804
1761132327371116300,1.5301162109375,-2.6366472244262695,1.7097355127334595,-0.5705481171607971
1761132327381116200,1.5401162109375,-2.537075996398926,1.6058883666992188,-0.07635815441608429
1761132327391116300,1.5501162109375,-2.381305456161499,1.1715631484985352,0.6255260109901428
1761132327401115600,1.56011572265625,-2.2395846843719482,0.5368741750717163,1.4685200452804565
1761132327411115800,1.57011572265625,-2.0673208236694336,-0.12163854390382767,2.3829853534698486
1761132327421115600,1.58011572265625,-1.9451476335525513,-0.6701955199241638,3.235753297805786
1761132327440198400,1.599198486328125,-1.8358027935028076,-1.3122148513793945,4.359745025634766
1761132327450198500,1.609198486328125,-1.837024450302124,-1.4172837734222412,4.586987018585205
1761132327460198400,1.619198486328125,-1.8700112104415894,-1.363527536392212,4.622417449951172
1761132327470198500,1.629198486328125,-1.924989104270935,-1.19370698928833,4.533842086791992
1761132327480198400,1.639198486328125,-1.9866864681243896,-0.9267589449882507,4.321260929107666
1761132327490198500,1.649198486328125,-2.0734293460845947,-0.5015967488288879,3.9852848052978516
1761132327500199200,1.65919921875,-2.2017111778259277,0.0720057412981987,3.555846691131592
1761132327510199300,1.66919921875,-2.3379340171813965,0.7421249151229858,3.0726521015167236
1761132327520199200,1.67919921875,-2.4057400226593018,1.4366786479949951,2.5778512954711914
1761132327530200600,1.68920068359375,-2.3159427642822266,2.147725820541382,2.1117610931396484
1761132327540200400,1.699200439453125,-2.093587875366211,2.7726409435272217,1.6694947481155396
1761132327550200600,1.70920068359375,-1.8351919651031494,3.138549327850342,1.236391305923462
1761132327560200400,1.719200439453125,-1.5859588384628296,3.2106313705444336,0.8087855577468872
1761132327570200600,1.72920068359375,-1.3581061363220215,3.0261499881744385,0.40744712948799133
1761132327580200400,1.739200439453125,-1.1681270599365234,2.7023913860321045,0.08857546001672745
1761132327590200600,1.74920068359375,-0.9818131923675537,2.379854679107666,-0.13072516024112701
1761132327600199700,1.75919970703125,-0.746630072593689,1.9858465194702148,-0.27550023794174194
1761132327610199600,1.769199462890625,-0.25854870676994324,1.742111325263977,-0.3952298164367676
1761132327620199700,1.77919970703125,0.060933809727430344,1.5845080614089966,-0.40683624148368835
1761132327630199600,1.789199462890625,0.30283644795417786,1.436067819595337,-0.38667771220207214
1761132327640199700,1.79919970703125,0.4213443100452423,1.2790755033493042,-0.35246923565864563
1761132327650199600,1.809199462890625,0.41828998923301697,1.1159744262695312,-0.3549126982688904
1761132327660199400,1.819199462890625,0.3804163336753845,0.8337547183036804,-0.4660901725292206
1761132327670199600,1.829199462890625,0.4115704596042633,0.5460371971130371,-0.6163630485534668
1761132327680199700,1.83919970703125,0.5703954100608826,0.3548363447189331,-0.7874053120613098
1761132327690199600,1.849199462890625,0.8739954233169556,0.1880701333284378,-0.9627236127853394
1761132327700200400,1.859200439453125,1.2582297325134277,-0.15401439368724823,-1.1410962343215942
1761132327710200300,1.869200439453125,1.630246639251709,-0.6207154393196106,-1.218676209449768
1761132327720200400,1.879200439453125,1.820225715637207,-1.0367146730422974,-1.1954632997512817
1761132327730200300,1.889200439453125,1.7945693731307983,-1.4557682275772095,-1.2907582521438599
1761132327740200400,1.899200439453125,1.6803375482559204,-2.006157875061035,-1.8136589527130127
1761132327750200300,1.909200439453125,1.3883439302444458,-2.4288766384124756,-2.7458393573760986
1761132327760200400,1.919200439453125,0.974177360534668,-2.5180628299713135,-3.857614040374756
1761132327770200600,1.92920068359375,0.6418666839599609,-2.0941224098205566,-4.925406455993652
1761132327780200400,1.939200439453125,0.4983133375644684,-1.052597165107727,-5.728083610534668
1761132327790200600,1.94920068359375,0.49037206172943115,0.2485457956790924,-6.130032539367676
1761132327800199700,1.95919970703125,0.517861008644104,1.5918384790420532,-5.7519073486328125
1761132327810199800,1.96919970703125,0.5545129179954529,2.276618480682373,-4.911356449127197
1761132327820199700,1.97919970703125,0.6137668490409851,2.1691062450408936,-4.0494256019592285
1761132327830198500,1.989198486328125,0.7163922190666199,0.8484154939651489,-3.193603515625
1761132327840198400,1.999198486328125,0.5795583724975586,-0.09170614182949066,-2.9223792552948
1761132327850198500,2.009198486328125,0.28756481409072876,-0.8277987837791443,-2.746450185775757
1761132327860198400,2.019198486328125,-0.17669276893138885,-1.2822824716567993,-2.284025192260742
1761132327870198500,2.029198486328125,-0.6293439269065857,-1.0116691589355469,-1.2101240158081055
1761132327880198400,2.039198486328125,-0.8339837789535522,-0.377591073513031,0.025045474991202354
1761132327890198500,2.049198486328125,-0.7118107080459595,0.11293371021747589,1.026253581047058
1761132327900199200,2.05919921875,-0.3520110845565796,0.20578522980213165,1.7269160747528076
1761132327910199300,2.06919921875,0.06704246252775192,-0.07582364976406097,2.2174408435821533
1761132327920199400,2.079199462890625,0.42562034726142883,-0.5358051657676697,2.6053402423858643
1761132327930199300,2.08919921875,0.6553056836128235,-1.004949688911438,2.976135492324829
1761132327940199400,2.099199462890625,0.7518224120140076,-1.4160619974136353,3.2895092964172363
1761132327950199300,2.10919921875,0.7206682562828064,-1.6750688552856445,3.514918565750122
1761132327960199400,2.119199462890625,0.5991060733795166,-1.7502052783966064,3.6450328826904297
1761132327970199300,2.12919921875,0.4427245855331421,-1.7227163314819336,3.662748098373413
1761132327980199400,2.139199462890625,0.2710714638233185,-1.602375864982605,3.550959587097168
1761132327990199300,2.14919921875,0.05910121276974678,-1.4197272062301636,3.305391788482666
1761132328000198400,2.159198486328125,-0.17241671681404114,-1.1497247219085693,2.9443705081939697
1761132328010198500,2.169198486328125,-0.413097620010376,-0.7990881204605103,2.4605650901794434
1761132328020198400,2.179198486328125,-0.6690501570701599,-0.38614320755004883,1.8771889209747314
1761132328030198500,2.189198486328125,-0.9451612234115601,0.08483391255140305,1.2571606636047363
1761132328040198400,2.199198486328125,-1.1840095520019531,0.5124396085739136,0.6811147332191467
1761132328050198500,2.209198486328125,-1.3135130405426025,0.8484154939651489,0.2382374405860901
1761132328060198400,2.219198486328125,-1.3556627035140991,1.1691197156906128,-0.1820378452539444
1761132328070198300,2.2291982421875,-1.316567301750183,1.238147497177124,-0.34758231043815613
1761132328080198400,2.239198486328125,-1.193172574043274,1.159956693649292,-0.4337143301963806
1761132328090198300,2.2491982421875,-1.0044151544570923,0.9290496706962585,-0.4434881806373596
1761132328100199200,2.25919921875,-0.8205447196960449,0.621173620223999,-0.38606682419776917
1761132328110199300,2.26919921875,-0.6855435371398926,0.37194058299064636,-0.2932153046131134
1761132328120199200,2.27919921875,-0.5627595782279968,0.17157678306102753,-0.23090706765651703
1761132328130199300,2.28919921875,-0.4112650156021118,-0.0697149932384491,-0.21502456068992615
1761132328140199200,2.29919921875,-0.2664899528026581,-0.3268892765045166,-0.22479841113090515
1761132328150199300,2.30919921875,-0.168751522898674,-0.5516876578330994,-0.252287358045578
1761132328160199400,2.319199462890625,-0.062460970133543015,-0.7599927186965942,-0.29077184200286865
1761132328170199600,2.329199462890625,0.05910121276974678,-1.0098365545272827,-0.34636059403419495
1761132328180199400,2.339199462890625,0.18677204847335815,-1.2083678245544434,-0.3842342495918274
1761132328190199600,2.349199462890625,0.355981707572937,-1.25357186794281,-0.3689626157283783
1761132328200198700,2.35919873046875,0.5600107312202454,-1.2102004289627075,-0.3396410644054413
1761132328210198800,2.36919873046875,0.707840085029602,-1.148503065109253,-0.36102136969566345
1761132328220198700,2.37919873046875,0.7652614116668701,-1.1246793270111084,-0.42760565876960754
1761132328230198500,2.389198486328125,0.8086328506469727,-1.19370698928833,-0.5760459303855896
1761132328240198700,2.39919873046875,0.8727737069129944,-1.2554044723510742,-0.8991936445236206
1761132328250198500,2.409198486328125,0.9283624291419983,-1.2682325839996338,-1.36955988407135
1761132328260198700,2.41919873046875,0.9772316813468933,-1.147281289100647,-1.795332908630371
1761132328270198500,2.429198486328125,1.0877982378005981,-0.9560804963111877,-2.1154263019561768
1761132328280165400,2.439165283203125,1.2362385988235474,-0.7416667938232422,-2.3695461750030518
1761132328290132000,2.449132080078125,1.3303117752075195,-0.43134722113609314,-2.512488842010498
1761132328300099600,2.459099609375,1.3797918558120728,0.05062545835971832,-2.328007459640503
1761132328310066200,2.469066162109375,1.4353805780410767,0.6718754172325134,-1.8313740491867065
1761132328320032800,2.47903271484375,1.4152220487594604,1.0781008005142212,-1.3274102210998535
1761132328329999600,2.48899951171875,1.1946996450424194,1.2094367742538452,-1.1074986457824707
1761132328339966200,2.49896630859375,0.5777258276939392,1.1367439031600952,-1.3530665636062622
1761132328349932800,2.508932861328125,0.16661348938941956,0.9559277296066284,-1.7690657377243042
1761132328359899600,2.518899658203125,-0.14553864300251007,0.7030295133590698,-2.2009475231170654
1761132328369866200,2.5288662109375,-0.2866485118865967,0.4550182521343231,-2.509434461593628
1761132328379832800,2.538832763671875,-0.22067506611347198,0.1269836127758026,-2.6652050018310547
1761132328389799400,2.54879931640625,-0.05451972410082817,-0.24381159245967865,-2.517986536026001
1761132328399765200,2.55876513671875,0.10308351367712021,-0.4991532564163208,-1.9938641786575317
1761132328409732000,2.568732177734375,0.19776763021945953,-0.7447211146354675,-1.2192870378494263
1761132328419698700,2.57869873046875,0.19898934662342072,-0.9823476672172546,-0.2938261926174164
1761132328429665300,2.588665283203125,0.14767667651176453,-1.176602840423584,0.6212499737739563
1761132328439632000,2.5986318359375,0.09025534242391586,-1.3592514991760254,1.3854423761367798
1761132328449598700,2.6085986328125,0.03649919852614403,-1.4863115549087524,1.9492709636688232
1761132328459565000,2.61856494140625,-0.01237002108246088,-1.510135293006897,2.3237314224243164
1761132328469531600,2.62853173828125,-0.07284568250179291,-1.4081207513809204,2.5222625732421875
1761132328479498200,2.638498291015625,-0.15103642642498016,-1.1869875192642212,2.565023183822632
1761132328489465000,2.648465087890625,-0.26343563199043274,-0.8925504684448242,2.479501962661743
1761132328499432400,2.658432373046875,-0.41920626163482666,-0.5694027543067932,2.314568519592285
1761132328509399000,2.66839892578125,-0.6262896060943604,-0.21815524995326996,2.1117610931396484
1761132328519366000,2.678365966796875,-0.8657487630844116,0.11965323239564896,1.8979582786560059
1761132328529332500,2.68833251953125,-1.146135926246643,0.42752930521965027,1.673770785331726
1761132328539299000,2.698299072265625,-1.4760031700134277,0.6999751925468445,1.4489723443984985
1761132328549266000,2.708265869140625,-1.8034268617630005,0.8911760449409485,1.2260065078735352
1761132328559232500,2.718232421875,-2.0673208236694336,1.0206794738769531,1.0152580738067627
1761132328569199000,2.72819921875,-2.3104450702667236,1.1831696033477783,0.7519751191139221
1761132328579199200,2.73819921875,-2.353205680847168,1.2540299892425537,0.6230825781822205
1761132328589199000,2.74819921875,-2.268906354904175,1.2919036149978638,0.5742133259773254
1761132328599198200,2.7581982421875,-2.070985794067383,1.3138947486877441,0.6090326309204102
1761132328609198300,2.7681982421875,-1.7967073917388916,1.305342674255371,0.7079927921295166
1761132328619198200,2.7781982421875,-1.5273158550262451,1.2308170795440674,0.8472700715065002
1761132328629198300,2.7881982421875,-1.3678799867630005,1.0939832925796509,0.9865473508834839
1761132328639198200,2.7981982421875,-1.333060622215271,0.9528734087944031,1.1068878173828125
1761132328649198300,2.8081982421875,-1.3464996814727783,0.8227591514587402,1.1740829944610596
1761132328659198200,2.8181982421875,-1.3672691583633423,0.6498842835426331,1.2040153741836548
1761132328669198300,2.8281982421875,-1.3782646656036377,0.5093852281570435,1.2589932680130005
1761132328679198200,2.8381982421875,-1.30801522731781,0.37866008281707764,1.3469579219818115
1761132328689198300,2.8481982421875,-1.143081545829773,0.258930504322052,1.4404202699661255
1761132328699199000,2.858198974609375,-0.9201157689094543,0.12454015016555786,1.4831807613372803
1761132328709199000,2.86819921875,-0.671493649482727,-0.16439910233020782,1.4269812107086182
1761132328719199200,2.87819921875,-0.471129834651947,-0.5706244707107544,1.351233959197998
1761132328729199000,2.88819921875,-0.41004329919815063,-0.965854287147522,1.2571606636047363
1761132328739199200,2.89819921875,-0.3721696436405182,-1.3873512744903564,1.0824532508850098
1761132328749199000,2.90819921875,-0.1547016203403473,-1.7984635829925537,0.8350527882575989
1761132328759199200,2.91819921875,0.18188512325286865,-2.109394073486328,0.4758640229701996
1761132328769199000,2.92819921875,0.5655084848403931,-2.3952789306640625,-0.1472185254096985
1761132328779199200,2.93819921875,0.8947648406028748,-2.6988790035247803,-1.092837929725647
1761132328789199000,2.94819921875,1.0743592977523804,-3.0116419792175293,-2.29746413230896
1761132328799198200,2.9581982421875,1.2362385988235474,-2.921844720840454,-3.3903021812438965
1761132328809198300,2.9681982421875,1.6241379976272583,-1.4551573991775513,-4.415945053100586
1761132328819198200,2.9781982421875,1.8452712297439575,0.09949467331171036,-4.491081237792969
1761132328829198300,2.9881982421875,2.004096269607544,1.6816356182098389,-3.984063148498535
1761132328839198200,2.9981982421875,2.1030564308166504,2.6889524459838867,-3.2253684997558594
1761132328849198300,3.0081982421875,2.0725131034851074,3.071964979171753,-2.478891134262085
1761132328859198200,3.0181982421875,1.9423987865447998,2.9754481315612793,-1.7220290899276733
1761132328869198300,3.0281982421875,1.7597500085830688,2.368248224258423,-1.0464121103286743
1761132328879198200,3.0381982421875,1.5850425958633423,1.4971543550491333,-0.3854559659957886
1761132328889198300,3.0481982421875,1.5294538736343384,0.8056548833847046,0.3194825351238251
1761132328899199200,3.05819921875,1.5740469694137573,0.29313895106315613,0.9425650835037231
1761132328909199000,3.06819921875,1.6271922588348389,0.043905939906835556,1.444696307182312
1761132328919199200,3.07819921875,1.6711746454238892,-0.025121834129095078,1.76723313331604
1761132328929199000,3.08819921875,1.7029396295547485,0.044516805559396744,1.872912883758545
1761132328939199200,3.09819921875,1.6687310934066772,0.13981178402900696,1.8576412200927734
1761132328949199000,3.10819921875,1.564884066581726,0.22533291578292847,1.8264870643615723
1761132328959199200,3.11819921875,1.4237741231918335,0.26748260855674744,1.855197787284851
1761132328969199000,3.12819921875,1.2594513893127441,0.22777637839317322,1.9058995246887207
1761132328979199200,3.13819921875,1.0658071041107178,0.1227075532078743,1.9541579484939575
1761132328989199000,3.14819921875,0.85994553565979,-0.044058654457330704,1.9792033433914185
1761132328999198200,3.1581982421875,0.679740309715271,-0.15279266238212585,1.9706512689590454
1761132329009198300,3.1681982421875,0.5502368807792664,-0.18333593010902405,1.8955148458480835
1761132329019198200,3.1781982421875,0.47448956966400146,-0.16867516934871674,1.7666223049163818
1761132329029198300,3.1881982421875,0.4335615932941437,-0.17844900488853455,1.580308437347412
1761132329039198200,3.1981982421875,0.39996400475502014,-0.15890131890773773,1.2357803583145142
1761132329049198300,3.2081982421875,0.3724750876426697,-0.13935363292694092,0.9779952764511108
1761132329059198200,3.2181982421875,0.3199406862258911,-0.1350775808095932,0.7440338730812073
1761132329069198300,3.2281982421875,0.2252565622329712,-0.13691017031669617,0.5778785347938538
1761132329079198200,3.2381982421875,0.0933096632361412,-0.10270171612501144,0.4960225820541382
1761132329089198300,3.2481982421875,-0.05757404863834381,-0.10209085047245026,0.48685958981513977
1761132329099199200,3.25819921875,-0.19807305932044983,-0.15340353548526764,0.513126790523529
1761132329109199000,3.26819921875,-0.3159700334072113,-0.277409166097641,0.5241223573684692
1761132329119199200,3.27819921875,-0.39538252353668213,-0.4789946973323822,0.5253441333770752
1761132329129199000,3.28819921875,-0.432034432888031,-0.7221190929412842,0.5308418869972229
1761132329139199200,3.29819921875,-0.4509712755680084,-0.8992699980735779,0.5650503635406494
1761132329149199000,3.30819921875,-0.4772384762763977,-0.9652434587478638,0.59803706407547
1761132329159199200,3.31819921875,-0.5077817440032959,-0.9634108543395996,0.6047565937042236
1761132329169199000,3.32819921875,-0.5059491395950317,-0.9389762282371521,0.6615670323371887
1761132329179199200,3.33819921875,-0.42348232865333557,-0.9414197206497192,0.8130616545677185
1761132329189199000,3.34819921875,-0.27809640765190125,-0.994564950466156,1.047023057937622
1761132329199198500,3.358198486328125,-0.09117163717746735,-1.014723539352417,1.3530665636062622
1761132329209198300,3.3681982421875,0.08231408894062042,-1.050764560699463,1.626123309135437
1761132329219198500,3.378198486328125,0.24846944212913513,-1.0012844800949097,1.8264870643615723
1761132329229198300,3.3881982421875,0.38896843791007996,-0.8027532696723938,1.712866187095642
1761132329239198500,3.398198486328125,0.4726569950580597,-0.701349675655365,0.9804387092590332
1761132329249198300,3.4081982421875,0.4873177409172058,-1.070312261581421,-0.30482175946235657
1761132329259198500,3.418198486328125,0.5099197626113892,-1.7709747552871704,-1.4978415966033936
1761132329269198300,3.4281982421875,0.7353290319442749,-2.577927589416504,-1.958433985710144
1761132329279198500,3.438198486328125,1.0059423446655273,-2.6078600883483887,-1.291369080543518
1761132329289198300,3.4481982421875,1.4359915256500244,-2.01715350151062,-0.2565633952617645
1761132329299199200,3.45819921875,1.9533942937850952,-0.852233350276947,0.675006091594696
1761132329309199000,3.46819921875,2.249664068222046,0.4647921025753021,1.178359031677246
1761132329319199200,3.47819921875,2.19163179397583,1.5539648532867432,1.2748757600784302
1761132329329199000,3.48819921875,1.831221342086792,2.425058603286743,0.9779952764511108
1761132329339199200,3.49819921875,1.2777774333953857,3.0817387104034424,0.34636059403419495
1761132329349199000,3.50819921875,0.7017314434051514,3.4568099975585938,-0.4746423065662384
1761132329359199200,3.51819921875,0.2509129047393799,3.6901605129241943,-1.3096951246261597
1761132329369199400,3.528199462890625,-0.07467827945947647,3.795229434967041,-2.0176877975463867
1761132329379199200,3.53819921875,-0.29825496673583984,3.801337957382202,-2.4831671714782715
1761132329389199400,3.548199462890625,-0.432034432888031,3.666947603225708,-2.6529877185821533
1761132329399198500,3.558198486328125,-0.4870123267173767,3.393890857696533,-2.5338690280914307
1761132329409198300,3.5681982421875,-0.4668537676334381,3.008435010910034,-2.188730239868164
1761132329419198500,3.578198486328125,-0.3660610020160675,2.5961010456085205,-1.6786576509475708
1761132329429198300,3.5881982421875,-0.1742493063211441,2.1917080879211426,-1.0506882667541504
1761132329439198500,3.598198486328125,0.10613783448934555,1.7280614376068115,-0.34574973583221436
1761132329449198300,3.6081982421875,0.4066835343837738,1.1703414916992188,0.37079519033432007
1761132329459198500,3.618198486328125,0.650418758392334,0.5387067794799805,1.0421360731124878
1761132329469198300,3.6281982421875,0.821461021900177,-0.09781479835510254,1.6297885179519653
1761132329479198500,3.638198486328125,0.9198103547096252,-0.6549239158630371,2.1142046451568604
1761132329489198300,3.6481982421875,0.9424123764038086,-1.0434341430664062,2.4410176277160645
1761132329499199200,3.65819921875,0.8379544019699097,-1.137507438659668,2.5552492141723633
1761132329509199000,3.66819921875,0.6779077053070068,-0.8638398051261902,2.39214825630188
1761132329519199200,3.67819921875,0.4879286289215088,-0.43195807933807373,2.101376533508301
1761132329529199000,3.68819921875,0.29856038093566895,0.14164437353610992,1.7452419996261597
1761132329539199200,3.69819921875,0.1134682223200798,0.801989734172821,1.33168625831604
1761132329549199000,3.70819921875,-0.06734789162874222,1.4782174825668335,0.8741481900215149
1761132329559199200,3.71819921875,-0.24388794600963593,2.0738110542297363,0.4331034719944
1761132329569199000,3.72819921875,-0.4534147381782532,2.4513258934020996,0.05314527451992035
1761132329579199200,3.73819921875,-0.7203628420829773,2.471484422683716,-0.2834414839744568
1761132329589199000,3.74819921875,-1.0227410793304443,2.23996639251709,-0.5723807215690613
1761132329599198200,3.7581982421875,-1.3043500185012817,1.9021580219268799,-0.79840087890625
1761132329609198300,3.7681982421875,-1.5291484594345093,1.5405257940292358,-0.9584475755691528
1761132329619198200,3.7781982421875,-1.6690365076065063,1.2326496839523315,-1.064738154411316
1761132329629198300,3.7881982421875,-1.7197383642196655,1.0164034366607666,-1.1331549882888794
1761132329639198200,3.7981982421875,-1.6653714179992676,0.8526915311813354,-1.1722503900527954
1761132329649198300,3.8081982421875,-1.5034921169281006,0.6902013421058655,-1.1655309200286865
1761132329659198200,3.8181982421875,-1.2762502431869507,0.553978443145752,-1.0769554376602173
1761132329669198300,3.8281982421875,-1.0221302509307861,0.4415792226791382,-0.9053022861480713
1761132329679198200,3.8381982421875,-0.774118959903717,0.3407864570617676,-0.6591235995292664
1761132329689198300,3.8481982421875,-0.545655369758606,0.17096590995788574,-0.3677408695220947
1761132329699199000,3.858198974609375,-0.2970332205295563,-0.07643451541662216,-0.004886921960860491
1761132329709199000,3.86819921875,-0.013591751456260681,-0.47105345129966736,0.4043927788734436
1761132329719199200,3.87819921875,0.2912299931049347,-0.9524152874946594,0.8203920125961304
1761132329729199000,3.88819921875,0.7115052938461304,-1.528461217880249,1.3915510177612305
1761132329739199200,3.89819921875,0.8837692737579346,-1.7795268297195435,1.6084082126617432
1761132329749199000,3.90819921875,0.9430232048034668,-1.8064048290252686,1.6786576509475708
1761132329759199200,3.91819921875,0.9118691086769104,-1.6298648118972778,1.4844025373458862
1761132329769199000,3.92819921875,0.8141306638717651,-1.4050663709640503,0.8301658630371094
1761132329779199200,3.93819921875,0.6076582074165344,-1.302441120147705,-0.3090978264808655
1761132329789199000,3.94819921875,0.28695395588874817,-1.4557682275772095,-1.6920967102050781
1761132329799198500,3.958198486328125,-0.05207626149058342,-1.7514270544052124,-2.858849287033081
1761132329809198300,3.9681982421875,-0.2793181240558624,-1.850998044013977,-3.489873170852661
1761132329819198500,3.978198486328125,-0.35811975598335266,-1.707444667816162,-3.721390962600708
1761132329829198300,3.9881982421875,-0.3245221674442291,-1.2639565467834473,-3.6694674491882324
1761132329839198500,3.998198486328125,-0.1944078654050827,-0.3360522389411926,-3.126408338546753
1761132329849198300,4.0081982421875,-0.0013744467869400978,0.8722392320632935,-2.266309976577759
1761132329859198500,4.018198486328125,0.14278975129127502,1.6926312446594238,-1.5723671913146973
1761132329869198300,4.0281982421875,0.17333301901817322,1.9339230060577393,-1.2125675678253174
1761132329879198500,4.038198486328125,0.04138612002134323,1.8850537538528442,-1.0824532508850098
1761132329889198300,4.0481982421875,-0.14309518039226532,1.627268671989441,-1.0421360731124878
1761132329899199200,4.05819921875,-0.1992947906255722,1.2473105192184448,-1.0225883722305298
1761132329909199000,4.06819921875,-0.06551529467105865,0.7983245253562927,-0.9920451641082764
1761132329919199200,4.07819921875,0.15561792254447937,0.3139083683490753,-0.8759807348251343
1761132329929199400,4.088199462890625,0.26801711320877075,-0.144851416349411,-0.588263213634491
1761132329939199200,4.09819921875,0.1849394589662552,-0.3818671405315399,-0.019547687843441963
1761132329949199400,4.108199462890625,0.048105638474226,-0.35987597703933716,0.6548475623130798
1761132329959199200,4.11819921875,-0.08200865983963013,-0.1454622894525528,1.4550809860229492
1761132329969199400,4.128199462890625,-0.11133018881082535,-0.051999904215335846,1.8020524978637695
1761132329979199200,4.13819921875,-0.06734789162874222,-0.09781479835510254,2.0506746768951416
1761132329989199400,4.148199462890625,-0.0025961773935705423,-0.30917418003082275,2.282803535461426
1761132329999198500,4.158198486328125,0.025503624230623245,-0.6860780119895935,2.5363125801086426
1761132330009198300,4.1681982421875,-0.01725694350898266,-1.1368966102600098,2.8038713932037354
1761132330029198300,4.1881982421875,-0.3116939961910248,-1.6549103260040283,3.1648929119110107
1761132330039198200,4.1981982421875,-0.5371032953262329,-1.5241851806640625,3.1111366748809814
1761132330049198300,4.2081982421875,-0.7979426980018616,-1.1723268032073975,2.869234085083008
1761132330059198200,4.2181982421875,-1.0648908615112305,-0.672639012336731,2.459343433380127
1761132330069198300,4.2281982421875,-1.2823588848114014,-0.09903652966022491,1.9242255687713623
1761132330079198200,4.2381982421875,-1.4607315063476562,0.5014439821243286,1.3365731239318848
1761132330089198300,4.2481982421875,-1.612226128578186,1.0353401899337769,0.7654141783714294
1761132330099199000,4.258198974609375,-1.6928603649139404,1.3713160753250122,0.2620611786842346
1761132330109199000,4.26819921875,-1.7075210809707642,1.457448124885559,-0.13316862285137177
1761132330119199200,4.27819921875,-1.679421305656433,1.3749812841415405,-0.37568211555480957
1761132330129199000,4.28819921875,-1.591456651687622,1.2063825130462646,-0.4599815309047699
1761132330139199200,4.29819921875,-1.4558446407318115,1.0231229066848755,-0.4190535545349121
1761132330149199000,4.30819921875,-1.2933543920516968,0.8685740232467651,-0.2968805134296417
1761132330159199200,4.31819921875,-1.107040524482727,0.7488444447517395,-0.15332718193531036
1761132330169199000,4.32819921875,-0.8718574047088623,0.5930737853050232,-0.05742133408784866
1761132330179199200,4.33819921875,-0.6116288304328918,0.40798163414001465,-0.05925392732024193
1761132330189199000,4.34819921875,-0.2402227520942688,0.16119205951690674,-0.25534167885780334
1761132330199198200,4.3581982421875,-0.047800205647945404,0.01947133056819439,-0.48258355259895325
1761132330209198300,4.3681982421875,0.08964447677135468,-0.11186470091342926,-0.7373143434524536
1761132330219198200,4.3781982421875,0.21242839097976685,-0.31955888867378235,-0.9816604256629944
1761132330229198300,4.3881982421875,0.38835757970809937,-0.6463717818260193,-1.1368201971054077
1761132330239198200,4.3981982421875,0.6950119137763977,-1.0275516510009766,-1.0793988704681396
1761132330249198300,4.4081982421875,1.1275044679641724,-1.5064700841903687,-0.7605272531509399
1761132330259198200,4.4181982421875,1.584431767463684,-1.9169714450836182,-0.10445795953273773
1761132330269198300,4.4281982421875,1.88864266872406,-2.1136701107025146,0.8014551997184753
1761132330279198200,4.4381982421875,1.916131615638733,-2.1332178115844727,1.703092336654663
1761132330289198300,4.4481982421875,1.8428276777267456,-2.1216113567352295,2.3738224506378174
1761132330299199200,4.45819921875,1.856266736984253,-1.9493473768234253,2.6988027095794678
1761132330309199000,4.46819921875,2.015702486038208,-1.585882544517517,2.436741352081299
1761132330319199200,4.47819921875,2.2313380241394043,-1.719662070274353,1.1264355182647705
1761132330329199000,4.48819921875,2.1763601303100586,-2.6469554901123047,-1.0256427526474
1761132330339199200,4.49819921875,1.707215666770935,-3.6047921180725098,-2.870455741882324
1761132330349199000,4.50819921875,1.2563971281051636,-3.8473057746887207,-3.640756845474243
1761132330359199200,4.51819921875,1.2741122245788574,-2.9255099296569824,-3.3066136837005615
1761132330369199000,4.52819921875,1.6278032064437866,-1.0672580003738403,-2.451402187347412
1761132330379199200,4.53819921875,2.0957260131835938,0.5552001595497131,-1.5711454153060913
1761132330389199000,4.54819921875,2.5502097606658936,1.2619712352752686,-0.7721336483955383
1761132330399198500,4.558198486328125,2.685821771621704,1.2796863317489624,-0.09468411654233932
1761132330409198300,4.5681982421875,2.389552116394043,0.6541603207588196,0.4056145250797272
1761132330419198500,4.578198486328125,1.399950385093689,-0.4020256996154785,0.8906415104866028
1761132330429198300,4.5881982421875,0.7835873961448669,-0.5669593214988708,1.1429288387298584
1761132330439198500,4.598198486328125,0.35659259557724,-0.08559749275445938,1.2315043210983276
1761132330449198300,4.6081982421875,0.0731511116027832,0.773279070854187,1.1282681226730347
1761132330459198500,4.618198486328125,-0.13698652386665344,1.599779725074768,0.9419541954994202
1761132330469198300,4.6281982421875,-0.27382034063339233,2.197816848754883,0.827722430229187
1761132330479198500,4.638198486328125,-0.30741792917251587,2.4311673641204834,0.8142833709716797
1761132330489198300,4.6481982421875,-0.28725937008857727,2.2802836894989014,0.8814785480499268
1761132330499199200,4.65819921875,-0.25793784856796265,1.8496235609054565,1.0702359676361084
1761132330509199000,4.66819921875,-0.23289237916469574,1.2277628183364868,1.3658946752548218
1761132330519199200,4.67819921875,-0.24755313992500305,0.5692500472068787,1.681712031364441
1761132330529199000,4.68819921875,-0.3153591752052307,0.0029779679607599974,1.9113973379135132
1761132330539199200,4.69819921875,-0.422871470451355,-0.38980838656425476,1.987755537033081
1761132330549199000,4.70819921875,-0.5597052574157715,-0.5608506798744202,1.901012659072876
1761132330559199200,4.71819921875,-0.7374670505523682,-0.4991532564163208,1.6536122560501099
1761132330569199000,4.72819921875,-0.9451612234115601,-0.2419789880514145,1.2705997228622437
1761132330579199200,4.73819921875,-1.1669052839279175,0.16180293262004852,0.8002334833145142
1761132330589199000,4.74819921875,-1.3800972700119019,0.6052911281585693,0.29565876722335815
1761132330599198200,4.7581982421875,-1.552361249923706,0.9962448477745056,-0.19425514340400696
1761132330609198300,4.7681982421875,-1.6617062091827393,1.2802971601486206,-0.5845980644226074
1761132330619198200,4.7781982421875,-1.6910277605056763,1.4238505363464355,-0.8301658630371094
1761132330629198300,4.7881982421875,-1.5951218605041504,1.445841670036316,-0.9450085163116455
1761132330639198200,4.7981982421875,-1.4088079929351807,1.3951398134231567,-0.9566149711608887
1761132330649198300,4.8081982421875,-1.1803443431854248,1.3572661876678467,-0.8442157506942749
1761132330659198200,4.8181982421875,-1.118036150932312,1.3193925619125366,-0.7538077235221863
1761132330669198300,4.8281982421875,-1.078940749168396,1.2931253910064697,-0.675006091594696
1761132330679198200,4.8381982421875,-1.0465649366378784,1.2424235343933105,-0.6206390857696533
1761132330689198300,4.8481982421875,-1.0465649366378784,1.1116983890533447,-0.6029239892959595
1761132330699199000,4.858198974609375,-1.0697777271270752,0.8630762100219727,-0.6249151229858398
1761132330709199000,4.86819921875,-1.1381946802139282,0.42875105142593384,-0.7330383062362671
1761132330729199000,4.88819921875,-1.2304353713989258,-0.8650615215301514,-1.0512990951538086
1761132330739199000,4.898198974609375,-1.1113165616989136,-1.5706108808517456,-1.2651019096374512
1761132330749199000,4.90819921875,-0.90728759765625,-2.1772000789642334,-1.4960089921951294
1761132330759199000,4.918198974609375,-0.6568328738212585,-2.8363237380981445,-1.842369556427002
1761132330769199000,4.92819921875,-0.4381431043148041,-3.532710075378418,-2.359161615371704
1761132330779199000,4.938198974609375,-0.37461310625076294,-3.981696128845215,-2.9431488513946533
1761132330789199000,4.94819921875,-0.5395467281341553,-4.075158596038818,-3.4159584045410156
1761132330799198200,4.9581982421875,-0.6843217611312866,-3.8332557678222656,-3.6273179054260254
1761132330809198300,4.9681982421875,-0.49495357275009155,-2.8473193645477295,-3.3658676147460938
1761132330819198200,4.9781982421875,0.02122756652534008,-1.1497247219085693,-2.800206184387207
1761132330829198300,4.9881982421875,0.6498079299926758,0.42936190962791443,-2.3414463996887207
1761132330839198200,4.9981982421875,1.0823005437850952,1.369483470916748,-1.9688186645507812
1761132330849198300,5.0081982421875,1.1623238325119019,1.8111391067504883,-1.6322319507598877
1761132330859198200,5.0181982421875,1.0028879642486572,1.76960027217865,-1.3994922637939453
1761132330869198300,5.0281982421875,0.7243334650993347,1.6199382543563843,-1.1410962343215942
1761132330879198200,5.0381982421875,0.45433104038238525,1.626046895980835,-0.8796459436416626
1761132330889198300,5.0481982421875,0.16111570596694946,1.627268671989441,-0.7544185519218445
1761132330899199000,5.058198974609375,-0.030085112899541855,1.4666111469268799,-0.8558222055435181
1761132330909199000,5.06819921875,-0.2243402600288391,1.3187817335128784,-0.9395107626914978
1761132330919199200,5.07819921875,-0.40515637397766113,1.3138947486877441,-0.9034696817398071
1761132330929199000,5.08819921875,-0.554818332195282,1.3951398134231567,-0.7428121566772461
1761132330939199200,5.09819921875,-0.584750771522522,1.473941445350647,-0.49724429845809937
1761132330949199000,5.10819921875,-0.48029279708862305,1.5356388092041016,-0.1820378452539444
1761132330959199200,5.11819921875,-0.2713768780231476,1.4916565418243408,0.1514945775270462
1761132330969199000,5.12819921875,-0.019089538604021072,1.283962368965149,0.543059229850769
1761132330979199200,5.13819921875,0.204487144947052,0.9449321627616882,0.9743300676345825
1761132330989199000,5.14819921875,0.3608686327934265,0.48983755707740784,1.4141530990600586
1761132330999198200,5.1581982421875,0.44516804814338684,-0.017791450023651123,1.813048005104065
1761132331009198300,5.1681982421875,0.4763221740722656,-0.4789946973323822,2.1264219284057617
1761132331019198200,5.1781982421875,0.45005497336387634,-0.8174140453338623,2.336559534072876
1761132331029198300,5.1881982421875,0.4079052805900574,-0.9805150628089905,2.442850112915039
1761132331039198200,5.1981982421875,0.35964691638946533,-1.0141127109527588,2.4471261501312256
1761132331049198300,5.2081982421875,0.2814561724662781,-0.9273697733879089,2.381152629852295
1761132331059198200,5.2181982421875,0.19837848842144012,-0.7538840770721436,2.2937989234924316
1761132331069198300,5.2281982421875,0.14034628868103027,-0.5437464118003845,2.180178165435791
1761132331079198200,5.2381982421875,0.10125091671943665,-0.31955888867378235,1.9969184398651123
1761132331089198300,5.2481982421875,0.06398813426494598,-0.05688682571053505,1.728137731552124
1761132331099199000,5.258198974609375,0.020005837082862854,0.18073976039886475,1.397048830986023
1761132331109199000,5.26819921875,-0.030695978552103043,0.3487277030944824,1.0757336616516113
1761132331119199200,5.27819921875,-0.059406645596027374,0.47456592321395874,0.7721336483955383
1761132331129199000,5.28819921875,-0.021532999351620674,0.4904484450817108,0.6982190012931824
1761132331139199200,5.29819921875,0.04444044828414917,0.4452444016933441,0.6982190012931824
1761132331149199000,5.30819921875,0.08659014850854874,0.34689509868621826,0.7342600226402283
1761132331159199200,5.31819921875,0.060322944074869156,0.16913332045078278,0.7409795522689819
1761132331169199000,5.32819921875,-0.05757404863834381,-0.07765624672174454,0.6676757335662842
1761132331179199200,5.33819921875,-0.2444988191127777,-0.29329168796539307,0.5467243790626526
1761132331189199000,5.34819921875,-0.42959097027778625,-0.38553231954574585,0.45631635189056396
1761132331199198500,5.358198486328125,-0.564592182636261,-0.28412869572639465,0.4190535545349121
1761132331209198300,5.3681982421875,-0.6262896060943604,-0.07154759019613266,0.40683624148368835
1761132331219198500,5.378198486328125,-0.60429847240448,0.15386168658733368,0.4001167416572571
1761132331229198300,5.3881982421875,-0.48579058051109314,0.24182628095149994,0.3701843321323395
1761132331239198500,5.398198486328125,-0.3208569586277008,0.04879286140203476,0.28527405858039856
1761132331249198300,5.4081982421875,-0.17608191072940826,-0.3983604907989502,0.20402899384498596
1761132331259198500,5.418198486328125,-0.08200865983963013,-0.882165789604187,0.2620611786842346
1761132331269198300,5.4281982421875,-0.027641652151942253,-1.232802391052246,0.5277875661849976
1761132331279198500,5.438198486328125,0.06398813426494598,-1.1228467226028442,1.0543533563613892
1761132331289198300,5.4481982421875,0.18860463798046112,-0.7215082049369812,1.5448782444000244
1761132331299199200,5.45819921875,0.14278975129127502,-0.6005569100379944,1.4275920391082764
1761132331309199000,5.46819921875,-0.20723603665828705,-0.7325037717819214,0.5461135506629944
1761132331319199200,5.47819921875,-0.6855435371398926,-0.8662832975387573,-0.7299839854240417
1761132331329199400,5.488199462890625,-1.0349584817886353,-0.9059895277023315,-1.9578231573104858
1761132331339199200,5.49819921875,-1.1797335147857666,-0.5180900692939758,-2.5674667358398438
1761132331349199400,5.508199462890625,-0.727082371711731,1.0237337350845337,-2.0274617671966553
1761132331359199200,5.51819921875,0.009010262787342072,2.2216405868530273,-1.1398745775222778
1761132331369199400,5.528199462890625,0.8074111342430115,2.8722119331359863,-0.42088615894317627
1761132331379199200,5.53819921875,1.4830280542373657,2.731713056564331,0.0006108652451075613
1761132331389199400,5.548199462890625,2.0108156204223633,1.9675205945968628,0.24068090319633484
1761132331399198500,5.558198486328125,2.366950035095215,0.8722392320632935,0.34574973583221436
1761132331409198300,5.5681982421875,2.545933723449707,-0.17478381097316742,0.34208452701568604
1761132331419198500,5.578198486328125,2.5306620597839355,-0.7899250984191895,0.2321287989616394
1761132331429198300,5.5881982421875,2.3742804527282715,-0.871781051158905,0.0006108652451075613
1761132331439198500,5.598198486328125,2.1152737140655518,-0.6164394021034241,-0.2987131178379059
1761132331449198300,5.6081982421875,1.7664695978164673,-0.19982929527759552,-0.503963828086853
1761132331459198500,5.618198486328125,1.4213306903839111,0.37804922461509705,-0.4789183437824249
1761132331469198300,5.6281982421875,1.1684324741363525,1.0084621906280518,-0.2871066629886627
1761132331479198500,5.638198486328125,1.0340421199798584,1.4684436321258545,-0.06108652427792549
1761132331489198300,5.6481982421875,1.0267117023468018,1.6559792757034302,0.17104226350784302
1761132331499199200,5.65819921875,1.1238393783569336,1.5301411151885986,0.42088615894317627
1761132331509199000,5.66819921875,1.2447906732559204,1.0890964269638062,0.7116580009460449
1761132331519199200,5.67819921875,1.2887729406356812,0.42875105142593384,1.0494664907455444
1761132331529199000,5.68819921875,1.2533427476882935,-0.3073415756225586,1.38849675655365
1761132331539199200,5.69819921875,1.1898127794265747,-0.9426414370536804,1.6768250465393066
1761132331549199000,5.70819921875,1.0945178270339966,-1.3445907831192017,1.8539760112762451
1761132331559199200,5.71819921875,0.9564622640609741,-1.4386639595031738,1.9150625467300415
1761132331569199000,5.72819921875,0.7835873961448669,-1.298164963722229,1.8643606901168823
1761132331579199200,5.73819921875,0.43478333950042725,-0.8650615215301514,1.709811806678772
1761132331589199000,5.74819921875,0.23869559168815613,-0.4942663311958313,1.613295078277588
1761132331599198200,5.7581982421875,0.0529925599694252,-0.2627484202384949,1.5039502382278442
1761132331609198300,5.7681982421875,-0.16630806028842926,-0.08865182101726532,1.3652838468551636
1761132331619198200,5.7781982421875,-0.35811975598335266,-0.017791450023651123,1.1899654865264893
1761132331629198300,5.7881982421875,-0.49617528915405273,-0.08620835840702057,0.979827880859375
1761132331639198200,5.7981982421875,-0.57436603307724,-0.2572506368160248,0.7770205736160278
1761132331649198300,5.8081982421875,-0.5755877494812012,-0.4594470262527466,0.6322455406188965
1761132331659198200,5.8181982421875,-0.535881519317627,-0.6708064079284668,0.5351179838180542
1761132331669198300,5.8281982421875,-0.49984049797058105,-0.833296537399292,0.485027015209198
1761132331679198200,5.8381982421875,-0.48517972230911255,-0.9487500786781311,0.46242499351501465
1761132331689198300,5.8481982421875,-0.4992296099662781,-1.0416016578674316,0.4282165467739105
1761132331699199000,5.858198974609375,-0.5529857873916626,-1.1045206785202026,0.342695415019989
1761132331709199000,5.86819921875,-0.622624397277832,-1.1649963855743408,0.20586158335208893
1761132331719199200,5.87819921875,-0.6849326491355896,-1.2156982421875,0.045204028487205505
1761132331729199000,5.88819921875,-0.7619016766548157,-1.2639565467834473,-0.09712757170200348
1761132331739199200,5.89819921875,-0.8523097038269043,-1.2486848831176758,-0.13500121235847473
1761132331749199000,5.90819921875,-0.9225592613220215,-1.1356748342514038,-0.07391469180583954
1761132331769199000,5.92819921875,-0.888350784778595,-0.5828418135643005,0.07208210229873657
1761132331779199200,5.93819921875,-0.746630072593689,-0.2205987125635147,0.1411098688840866
1761132331789199000,5.94819921875,-0.5371032953262329,0.03779728710651398,0.1270599663257599
1761132331799198200,5.9581982421875,-0.33368512988090515,-0.02756529487669468,-0.1472185254096985
1761132331809198300,5.9681982421875,-0.13759739696979523,-0.9621891379356384,-1.0280861854553223
1761132331819198200,5.9781982421875,-0.15836681425571442,-1.9352974891662598,-1.518610954284668
1761132331829198300,5.9881982421875,-0.24205535650253296,-2.7300331592559814,-1.6865988969802856
1761132331839198200,5.9981982421875,-0.2964223623275757,-2.8955776691436768,-1.5699236392974854
1761132331849198300,6.0081982421875,-0.18341228365898132,-2.3586270809173584,-1.4031574726104736
1761132331859198200,6.0181982421875,0.05971207842230797,-1.2865585088729858,-1.2388347387313843
1761132331869198300,6.0281982421875,0.32971450686454773,-0.03550654277205467,-1.073290228843689
1761132331879198200,6.0381982421875,0.5398521423339844,1.1422415971755981,-0.9822713136672974
1761132331889198300,6.0481982421875,0.6388123035430908,1.9827922582626343,-1.0268645286560059
1761132331899199200,6.05819921875,0.6394231915473938,2.500195026397705,-1.1917980909347534
1761132331909199000,6.06819921875,0.5929974317550659,2.7555367946624756,-1.453248381614685
1761132331919199200,6.07819921875,0.5025894045829773,2.770808458328247,-1.7599027156829834
1761132331929199000,6.08819921875,0.37430769205093384,2.5881597995758057,-2.03540301322937
1761132331939199200,6.09819921875,0.2142609804868698,2.2943334579467773,-2.2241604328155518
1761132331949199000,6.10819921875,0.0529925599694252,1.9638553857803345,-2.2846360206604004
1761132331959199200,6.11819921875,-0.06490442901849747,1.6840791702270508,-2.175291061401367
1761132331969199000,6.12819921875,-0.12721268832683563,1.4898239374160767,-1.9321668148040771
1761132331979199200,6.13819921875,-0.09422596544027328,1.3859769105911255,-1.6145168542861938
1761132331989199000,6.14819921875,0.057879481464624405,1.3291664123535156,-1.2651019096374512
1761132331999198200,6.1581982421875,0.29245173931121826,1.2619712352752686,-0.8851437568664551
1761132332009198300,6.1681982421875,0.55695641040802,1.0921506881713867,-0.45875978469848633
1761132332019198200,6.1781982421875,0.831234872341156,0.7848854660987854,0.003054326167330146
1761132332029198300,6.1881982421875,1.09024178981781,0.3585015535354614,0.4893030524253845
1761132332039198200,6.1981982421875,1.4176654815673828,-0.4527274966239929,1.2559388875961304
1761132332049198300,6.2081982421875,1.544114589691162,-0.9682977795600891,1.7941112518310547
1761132332059198200,6.2181982421875,1.619251012802124,-1.3531428575515747,2.3273966312408447
1761132332069198300,6.2281982421875,1.649794340133667,-1.677512288093567,2.8124237060546875
1761132332079198200,6.2381982421875,1.6247488260269165,-1.861993670463562,3.3066136837005615
1761132332089198000,6.248197998046875,1.5447255373001099,-1.8974238634109497,3.777590751647949
1761132332099199000,6.258198974609375,1.448819637298584,-1.857717514038086,4.117231845855713
1761132332109199000,6.26819921875,1.4091134071350098,-1.7306575775146484,4.244902610778809
1761132332119199000,6.278198974609375,1.4408783912658691,-1.535180687904358,4.145331382751465
1761132332129199000,6.28819921875,1.5123496055603027,-1.2193633317947388,3.830735921859741
1761132332139199000,6.298198974609375,1.5789339542388916,-0.8778896927833557,3.3371567726135254
1761132332149199000,6.30819921875,1.6253596544265747,-0.6091089844703674,2.7965409755706787
1761132332159199000,6.318198974609375,1.5654948949813843,-0.4435645341873169,2.3542747497558594
1761132332169199000,6.32819921875,1.420719861984253,-0.36537376046180725,2.020742177963257
1761132332179199000,6.338198974609375,1.2166908979415894,-0.36598464846611023,1.7513506412506104
1761132332189199000,6.34819921875,0.9527970552444458,-0.3934735655784607,1.5137240886688232
1761132332199198200,6.3581982421875,0.6400340795516968,-0.3922518491744995,1.2675453424453735
1761132332209198300,6.3681982421875,0.3260493278503418,-0.3965279161930084,0.9841039180755615
1761132332219198200,6.3781982421875,0.024892758578062057,-0.406912624835968,0.6963863968849182
1761132332229198300,6.3881982421875,-0.29825496673583984,-0.46677741408348083,0.40072759985923767
1761132332239198200,6.3981982421875,-0.6415612101554871,-0.6042220592498779,0.11850785464048386
1761132332249198300,6.4081982421875,-0.9671524167060852,-0.739834189414978,-0.09346238523721695
1761132332259198200,6.4181982421875,-1.2255483865737915,-0.8180249333381653,-0.22296582162380219
1761132332269198300,6.4281982421875,-1.4204144477844238,-0.8870527148246765,-0.2632829248905182
1761132332279198200,6.4381982421875,-1.4344643354415894,-0.6872997879981995,-0.17592918872833252
1761132332289198300,6.4481982421875,-1.355051875114441,-0.16623170673847198,-0.11423180252313614
1761132332299199000,6.458198974609375,-1.1436924934387207,0.38904479146003723,-0.251676470041275
1761132332309199000,6.46819921875,-0.8743008971214294,0.5668066143989563,-0.6530149579048157
1761132332319199200,6.47819921875,-0.7667886018753052,0.20639608800411224,-1.160033106803894
1761132332329199000,6.48819921875,-0.9097310900688171,-0.7153995633125305,-1.662164330482483
1761132332339199200,6.49819921875,-1.154077172279358,-1.6860644817352295,-2.0677788257598877
1761132332349199000,6.50819921875,-1.3122912645339966,-2.3115904331207275,-2.3848178386688232
1761132332359199200,6.51819921875,-1.3629931211471558,-2.2999839782714844,-2.5699100494384766
1761132332369199000,6.52819921875,-1.3019065856933594,-1.6280322074890137,-2.707965612411499
1761132332379199200,6.53819921875,-1.133307695388794,-0.458225280046463,-2.872899293899536
1761132332389199000,6.54819921875,-0.9250026941299438,0.8551349639892578,-3.1276299953460693
1761132332399198200,6.5581982421875,-0.6892086863517761,1.8685604333877563,-3.450166940689087
1761132332409198300,6.5681982421875,-0.471129834651947,2.396958827972412,-3.7696495056152344
1761132332419198200,6.5781982421875,-0.35934147238731384,2.460488796234131,-4.017660617828369
1761132332429198300,6.5881982421875,-0.40454551577568054,2.140395402908325,-4.091575622558594
1761132332439198200,6.5981982421875,-0.5731443166732788,1.5612951517105103,-3.9510765075683594
1761132332449198300,6.6081982421875,-0.7331910133361816,0.9131671786308289,-3.6474764347076416
1761132332459198200,6.6181982421875,-0.8046622276306152,0.4348596930503845,-3.2369749546051025
1761132332469198300,6.6281982421875,-0.7319692969322205,0.33223432302474976,-2.7421741485595703
1761132332479198200,6.6381982421875,-0.4973970353603363,0.5118287205696106,-2.1978931427001953
1761132332489198300,6.6481982421875,-0.13515393435955048,0.7647269368171692,-1.6603317260742188
1761132332499199200,6.65819921875,0.5746715068817139,0.8526915311813354,-0.7666358947753906
1761132332509199000,6.66819921875,1.0254900455474854,0.4366922974586487,-0.054367005825042725
1761132332519199200,6.67819921875,1.3284791707992554,-0.25358542799949646,0.7354817390441895
1761132332529199000,6.68819921875,1.5099061727523804,-0.9481391906738281,1.5418238639831543
1761132332539199200,6.69819921875,1.6730071306228638,-1.576108694076538,2.216219186782837
1761132332549199000,6.70819921875,1.8251125812530518,-2.0513617992401123,2.649933338165283
1761132332559199200,6.71819921875,1.8904752731323242,-2.150932788848877,2.7562239170074463
1761132332569199000,6.72819921875,1.9204076528549194,-2.089235544204712,2.7488934993743896
1761132332579199200,6.73819921875,1.9026925563812256,-1.9823341369628906,2.690861463546753
1761132332589199000,6.74819921875,1.771356463432312,-1.728214144706726,2.420248031616211
1761132332599198200,6.7581982421875,1.4946345090866089,-1.273119568824768,1.9346102476119995
1761132332609198300,6.7681982421875,1.0633636713027954,-0.6872997879981995,1.4294246435165405
1761132332619198200,6.7781982421875,0.556345522403717,-0.19738583266735077,0.940121591091156
1761132332629198300,6.7881982421875,0.05910121276974678,0.14592044055461884,0.45753806829452515
1761132332639198200,6.7981982421875,-0.413097620010376,0.36705365777015686,0.006108652334660292
1761132332649198300,6.8081982421875,-0.8370380997657776,0.4507421851158142,-0.3842342495918274
1761132332659198200,6.8181982421875,-1.1510227918624878,0.43241623044013977,-0.6676757335662842
1761132332669198300,6.8281982421875,-1.3599387407302856,0.37316229939460754,-0.8100073337554932
1761132332679198200,6.8381982421875,-1.4637858867645264,0.29619327187538147,-0.8552113175392151
1761132332689198000,6.848197998046875,-1.4772248268127441,0.20517437160015106,-0.8295549750328064
1761132332699199000,6.858198974609375,-1.4173600673675537,0.16424639523029327,-0.7391469478607178
1761132332709199000,6.86819921875,-1.306793451309204,0.1172097697854042,-0.6145304441452026
1761132332719199200,6.87819921875,-1.1858421564102173,0.07567093521356583,-0.455705463886261
1761132332729199000,6.88819921875,-1.0728321075439453,0.007254024967551231,-0.30482175946235657
1761132332739199200,6.89819921875,-0.9659306406974792,-0.14729487895965576,-0.15332718193531036
1761132332749199000,6.90819921875,-0.8944594264030457,-0.21754439175128937,-0.06658431142568588
1761132332759199200,6.91819921875,-0.7600690722465515,-0.22915083169937134,-0.006108652334660292
1761132332769199000,6.92819921875,-0.5175555944442749,-0.24381159245967865,0.04214970022439957
1761132332779199200,6.93819921875,-0.1699732542037964,-0.22792910039424896,0.13988813757896423
1761132332789199000,6.94819921875,0.2203696370124817,-0.22426390647888184,0.26145032048225403
1761132332799198200,6.9581982421875,0.566119372844696,-0.21754439175128937,0.3799581825733185
1761132332809198300,6.9681982421875,0.7701483368873596,-0.41546472907066345,0.39156460762023926
1761132332819198200,6.9781982421875,0.7835873961448669,-1.0269408226013184,0.2535090744495392
1761132332829198300,6.9881982421875,0.6369797587394714,-2.056248664855957,-0.16920967400074005
1761132332839198200,6.9981982421875,0.35353827476501465,-3.255988121032715,-0.8087855577468872
1761132332849198300,7.0081982421875,-0.02519819140434265,-4.163733959197998,-1.5375478267669678
1761132332859198200,7.0181982421875,-0.3361285924911499,-4.083099842071533,-2.345111608505249
1761132332869198300,7.0281982421875,-0.5187773108482361,-2.963383674621582,-3.332880735397339
1761132332879198200,7.0381982421875,-0.8089383244514465,-1.4459943771362305,-4.241237163543701
1761132332889198300,7.0481982421875,-1.3306171894073486,-0.012293662875890732,-4.868596076965332
1761132332899199000,7.058198974609375,-1.851074457168579,1.0151816606521606,-5.311473369598389
1761132332909199000,7.06819921875,-2.2536346912384033,1.7439439296722412,-5.545434474945068
1761132332919165700,7.078165771484375,-2.5163066387176514,2.1684951782226562,-5.589416980743408
1761132332929132500,7.088132568359375,-2.651918649673462,2.3890175819396973,-5.331631660461426
1761132332939099100,7.09809912109375,-2.6781859397888184,2.421393394470215,-4.845993995666504
1761132332949065700,7.108065673828125,-2.523637056350708,2.3034965991973877,-4.164268493652344
1761132332959032600,7.118032470703125,-2.1430680751800537,2.0133354663848877,-3.316998243331909
1761132332968999200,7.127999267578125,-1.5939000844955444,1.5319737195968628,-2.2883012294769287
1761132332978965800,7.1379658203125,-1.020297646522522,0.905225932598114,-1.1099421977996826
1761132332988932600,7.1479326171875,-0.5010622143745422,0.22533291578292847,0.12095131725072861
1761132332998898200,7.157898193359375,-0.027641652151942253,-0.4386776089668274,1.2974777221679688
1761132333008865000,7.167864990234375,0.7316638231277466,-1.2951107025146484,2.7898216247558594
1761132333018831600,7.17783154296875,1.2179125547409058,-1.7495944499969482,3.5772268772125244
1761132333028798200,7.187798095703125,1.5312864780426025,-2.013488292694092,4.191146373748779
1761132333038764800,7.197764892578125,1.6638442277908325,-2.103285312652588,4.615087032318115
1761132333048731600,7.207731689453125,1.6424639225006104,-2.098398447036743,4.819116115570068
1761132333058698200,7.2176982421875,1.4689781665802002,-2.019596815109253,4.745811939239502
1761132333068664800,7.227664794921875,1.1647672653198242,-1.8076266050338745,4.361577987670898
1761132333078631400,7.23763134765625,0.7915286421775818,-1.441718339920044,3.6914587020874023
1761132333088598300,7.247598388671875,0.3969096839427948,-0.9524152874946594,2.8209757804870605
1761132333098565600,7.257565673828125,0.010231993161141872,-0.3934735655784607,1.8881844282150269
1761132333108532500,7.267532470703125,-0.3397938013076782,0.1025490015745163,1.0054842233657837
1761132333118499000,7.2774990234375,-0.6476698517799377,0.4623486399650574,0.2773328125476837
1761132333128465700,7.287465576171875,-0.8712465763092041,0.6908122301101685,-0.21502456068992615
1761132333138432500,7.2974326171875,-1.0111347436904907,0.7647269368171692,-0.4789183437824249
1761132333148399000,7.307399169921875,-1.1186469793319702,0.7561748027801514,-0.5271766781806946
1761132333158365400,7.317365478515625,-1.1858421564102173,0.6981425881385803,-0.42149701714515686
1761132333168332000,7.32733203125,-1.1730140447616577,0.5765804052352905,-0.252287358045578
1761132333178298600,7.337298583984375,-1.0868819952011108,0.38904479146003723,-0.08002334833145142
1761132333188265500,7.347265380859375,-0.9372199773788452,0.13981178402900696,0.0910189226269722
1761132333198231300,7.357231201171875,-0.73685622215271,-0.18761198222637177,0.27061331272125244
1761132333208198000,7.367197998046875,-0.4980078935623169,-0.6030003428459167,0.47708576917648315
1761132333218197800,7.37719775390625,-0.2444988191127777,-1.1185705661773682,0.7263187766075134
1761132333228198000,7.387197998046875,-0.005650503560900688,-1.6396386623382568,1.0592403411865234
1761132333238197800,7.39719775390625,0.1843285858631134,-2.1515438556671143,1.4227051734924316
1761132333248198000,7.407197998046875,0.32360586524009705,-2.823495626449585,1.8875735998153687
1761132333258197800,7.41719775390625,0.32788193225860596,-3.089221954345703,2.082439661026001
1761132333268198000,7.427197998046875,0.2845104932785034,-3.1203761100769043,2.141082763671875
1761132333278197800,7.43719775390625,0.20693060755729675,-2.8173868656158447,2.0567831993103027
1761132333288198000,7.447197998046875,0.09025534242391586,-2.1442134380340576,1.855197787284851
1761132333298198800,7.45719873046875,0.06276640295982361,-1.328708291053772,1.5008958578109741
1761132333308198700,7.46719873046875,0.28695395588874817,-0.5150357484817505,0.9828822016716003
1761132333318198800,7.47719873046875,0.670577347278595,0.36705365777015686,0.4489859640598297
1761132333328198700,7.48719873046875,0.9912815690040588,1.0414488315582275,-0.11484266817569733
1761132333338198800,7.49719873046875,1.1604912281036377,1.293736219406128,-0.6878342628479004
1761132333348198700,7.50719873046875,1.2221885919570923,1.0988701581954956,-1.1197160482406616
1761132333358198800,7.51719873046875,1.2075278759002686,0.6700428128242493,-1.303586483001709
1761132333368198700,7.52719873046875,1.2838860750198364,0.30657798051834106,-1.2907582521438599
1761132333378198800,7.53719873046875,1.592373013496399,0.12881620228290558,-1.2260065078735352
1761132333388198700,7.54719873046875,1.9924896955490112,0.08483391255140305,-1.084285855293274
1761132333398198000,7.557197998046875,2.322967767715454,-0.031841352581977844,-0.8552113175392151
1761132333408198000,7.567197998046875,2.609463691711426,-0.32383492588996887,-0.675006091594696
1761132333418197800,7.57719775390625,2.8519771099090576,-0.6982953548431396,-0.5803219676017761
1761132333428198000,7.587197998046875,3.0242412090301514,-1.0263299942016602,-0.5088507533073425
1761132333438198000,7.597197998046875,3.165350914001465,-1.2315807342529297,-0.504574716091156
1761132333448198000,7.607197998046875,3.3089044094085693,-1.3354277610778809,-0.6517932415008545
1761132333458198300,7.6171982421875,3.375488519668579,-1.3445907831192017,-0.9053022861480713
1761132333468198400,7.627198486328125,3.3040173053741455,-1.2456306219100952,-1.0995573997497559
1761132333478198300,7.6371982421875,3.0248520374298096,-0.9438631534576416,-1.1759155988693237
1761132333488198100,7.6471982421875,2.8202121257781982,-0.749608039855957,-1.1227703094482422
1761132333498199000,7.657198974609375,2.5422685146331787,-0.500374972820282,-0.9340129494667053
1761132333508199200,7.66719921875,2.1763601303100586,-0.09781479835510254,-0.5772676467895508
1761132333518199000,7.677198974609375,1.7689130306243896,0.2693152129650116,-0.23518311977386475
1761132333528199200,7.68719921875,1.3376421928405762,0.544204592704773,0.08002334833145142
1761132333538199000,7.697198974609375,1.0939068794250488,0.6352235078811646,0.40194934606552124
1761132333548199200,7.70719921875,0.9466884136199951,0.5490915179252625,0.6603453159332275
1761132333558199000,7.717198974609375,0.8239045143127441,0.3560580909252167,0.8790351152420044
1761132333568199000,7.727198974609375,0.7432702779769897,0.10926852375268936,1.0806206464767456
1761132333578199000,7.737198974609375,0.6583600044250488,-0.12408200651407242,1.2602150440216064
1761132333588199000,7.747198974609375,0.4934264123439789,-0.2926807999610901,1.3866641521453857
1761132333598198000,7.757197998046875,0.2594650089740753,-0.38492146134376526,1.4550809860229492
1761132333608198100,7.7671982421875,-0.016035212203860283,-0.3635411858558655,1.4440854787826538
1761132333618198000,7.777197998046875,-0.30925053358078003,-0.22853995859622955,1.3194689750671387
1761132333628198100,7.7871982421875,-0.5908594131469727,-0.01290452852845192,1.1081095933914185
1761132333638198000,7.797197998046875,-0.8370380997657776,0.25160011649131775,0.8381071090698242
1761132333648198100,7.8071982421875,-1.0416779518127441,0.4800637364387512,0.5357288122177124
1761132333658198000,7.817197998046875,-1.1968377828598022,0.6480516791343689,0.24862214922904968
1761132333668198000,7.827197998046875,-1.3232868909835815,0.7812203168869019,0.014049900695681572
1761132333678198000,7.837197998046875,-1.4271339178085327,0.856967568397522,-0.16432274878025055
1761132333688198100,7.8471982421875,-1.5053247213363647,0.8832347989082336,-0.2773328125476837
1761132333698198800,7.85719873046875,-1.571908950805664,0.8313112258911133,-0.3335324227809906
1761132333708199000,7.867198974609375,-1.6934711933135986,0.6694319248199463,-0.3378084897994995
1761132333718199000,7.877198974609375,-1.7686076164245605,0.6187301278114319,-0.2883284091949463
1761132333728199000,7.887198974609375,-1.8058704137802124,0.5576435923576355,-0.26939156651496887
1761132333738198800,7.89719873046875,-1.8235855102539062,0.5020548701286316,-0.294437050819397
1761132333748199000,7.907198974609375,-1.8474092483520508,0.5038874745368958,-0.33536502718925476
1761132333758199000,7.917198974609375,-1.8632917404174805,0.5674174427986145,-0.39584067463874817
1761132333768199000,7.927198974609375,-1.8669569492340088,0.6944774389266968,-0.4306600093841553
1761132333778199000,7.937198974609375,-1.8620699644088745,0.8325329422950745,-0.3799581825733185
1761132333788199000,7.947198974609375,-1.8455766439437866,1.0518336296081543,-0.24373523890972137
1761132333808198100,7.9671982421875,-1.7460055351257324,1.5466344356536865,0.33536502718925476
1761132333818198000,7.977197998046875,-1.5957326889038086,1.6144404411315918,0.7641924023628235
1761132333828198100,7.9871982421875,-1.4240796566009521,1.4470634460449219,1.1594222784042358
1761132333838198000,7.997197998046875,-1.2811371088027954,1.0512226819992065,1.4734070301055908
1761132333848198100,8.0071982421875,-1.1779009103775024,0.47762027382850647,1.7037031650543213
1761132333858198300,8.0171982421875,-1.1552989482879639,-0.06788240373134613,1.8496999740600586
1761132333868198100,8.0271982421875,-1.1687378883361816,-0.6787476539611816,1.7763961553573608
1761132333878198300,8.0371982421875,-1.125366449356079,-1.3201560974121094,1.3842206001281738
1761132333888198100,8.0471982421875,-1.0288498401641846,-1.734933614730835,0.7770205736160278
1761132333898199000,8.057198974609374,-0.9805914163589478,-1.7007251977920532,-0.021380282938480377
1761132333908199200,8.06719921875,-0.9396634697914124,-1.353753685951233,-0.8845328688621521
1761132333918199000,8.077198974609376,-0.7716755270957947,-0.8320748209953308,-1.5259413719177246
1761132333928199200,8.08719921875,-0.5529857873916626,-0.28290697932243347,-1.870469331741333
1761132333938199000,8.097198974609375,-0.3355177342891693,0.4519639313220978,-1.7666223049163818
1761132333948199200,8.10719921875,-0.15592335164546967,0.9681450724601746,-1.4868459701538086
1761132333958199000,8.117198974609375,0.1238529309630394,1.369483470916748,-1.3145819902420044
1761132333968199200,8.12719921875,0.4781547784805298,1.6352099180221558,-1.2797627449035645
1761132333978199000,8.137198974609374,0.8275696635246277,1.6877442598342896,-1.302364706993103
1761132333988199200,8.14719921875,1.0542006492614746,1.5515214204788208,-1.2803735733032227
1761132333998198300,8.1571982421875,1.1024590730667114,1.4623349905014038,-1.094059705734253
1761132334008198400,8.167198486328125,0.9662361145019531,1.473941445350647,-0.7959573864936829
1761132334018198300,8.1771982421875,0.7066183686256409,1.5539648532867432,-0.5027421116828918
1761132334028198100,8.1871982421875,0.4213443100452423,1.6798030138015747,-0.2938261926174164
1761132334038198300,8.1971982421875,0.15256360173225403,1.8447366952896118,-0.13561208546161652
1761132334048198100,8.2071982421875,-0.078343465924263,1.951638102531433,-0.007941247895359993
1761132334058198300,8.2171982421875,-0.24266621470451355,1.9363664388656616,0.1062905490398407
1761132334068198100,8.2271982421875,-0.32330042123794556,1.743333101272583,0.2382374405860901
1761132334078198300,8.2371982421875,-0.351400226354599,1.3884203433990479,0.40683624148368835
1761132334088198100,8.2471982421875,-0.35934147238731384,0.9760863184928894,0.5962044596672058
1761132334098199000,8.257198974609375,-0.3568980097770691,0.5771912932395935,0.7935139536857605
1761132334108199200,8.26719921875,-0.3727805018424988,0.24243713915348053,1.0005972385406494
1761132334118199000,8.277198974609375,-0.4363104999065399,-0.004963280167430639,1.1814134120941162
1761132334128199200,8.28719921875,-0.5676465034484863,-0.09781479835510254,1.3139711618423462
1761132334138199000,8.297198974609374,-0.7545713186264038,-0.06543894112110138,1.3555099964141846
1761132334148199200,8.30719921875,-0.9433286786079407,0.05367978289723396,1.3041973114013672
1761132334158199000,8.317198974609376,-1.1064296960830688,0.22044599056243896,1.176526427268982
1761132334168199200,8.32719921875,-1.2725850343704224,0.5075526833534241,0.9101892113685608
1761132334178199000,8.337198974609375,-1.3312281370162964,0.6816492676734924,0.7183775305747986
1761132334188199200,8.34719921875,-1.3605495691299438,0.8062657713890076,0.5601634383201599
1761132334198198300,8.3571982421875,-1.363603949546814,0.8868999481201172,0.4758640229701996
1761132334208198400,8.367198486328125,-1.3336715698242188,0.9235519170761108,0.485027015209198
1761132334218198300,8.3771982421875,-1.2597568035125732,0.9095019698143005,0.5791002511978149
1761132334228198100,8.3871982421875,-1.1711814403533936,0.8380307555198669,0.7379252314567566
1761132334238198300,8.3971982421875,-1.0819950103759766,0.6999751925468445,0.9083566069602966
1761132334248198100,8.4071982421875,-0.9934195876121521,0.5209916830062866,1.034194827079773
1761132334258198300,8.4171982421875,-0.9225592613220215,0.32307136058807373,1.0702359676361084
1761132334268198100,8.4271982421875,-0.9042332768440247,0.11415544152259827,1.0219775438308716
1761132334278198300,8.4371982421875,-0.9305005073547363,-0.10025826096534729,0.921795666217804
1761132334288198100,8.4471982421875,-0.9647089242935181,-0.3879757821559906,0.8252789378166199
1761132334298199000,8.457198974609375,-0.984867513179779,-0.7581601142883301,0.8069530129432678
1761132334308199000,8.467198974609374,-0.9781479835510254,-1.0629818439483643,0.9291260242462158
1761132334318199000,8.477198974609376,-0.9537133574485779,-1.1686615943908691,1.2015719413757324
1761132334328199000,8.487198974609376,-0.9750936627388,-1.205924391746521,1.4746286869049072
1761132334338199000,8.497198974609375,-1.0178542137145996,-1.2951107025146484,1.5851953029632568
1761132334348199000,8.507198974609375,-0.9127854108810425,-1.2511284351348877,1.5638149976730347
1761132334358199000,8.517198974609375,-0.6067419052124023,-1.4014012813568115,1.3903292417526245
1761132334368199200,8.52719921875,-0.1791362315416336,-1.4863115549087524,1.189354658126831
1761132334378199000,8.537198974609375,0.22708915174007416,-1.3494776487350464,1.0946705341339111
1761132334388199200,8.54719921875,0.49098294973373413,-1.2951107025146484,0.8417723178863525
1761132334398198300,8.5571982421875,0.6021603941917419,-0.9157633781433105,0.5149593949317932
1761132334408198100,8.5671982421875,0.18249599635601044,-1.2028700113296509,-0.5656611919403076
1761132334418198300,8.5771982421875,-0.42959097027778625,-1.8955912590026855,-1.9724838733673096
1761132334428198100,8.5871982421875,-0.9024006724357605,-2.2248475551605225,-3.3396003246307373
1761132334438198300,8.5971982421875,-0.9598219990730286,-1.7129424810409546,-4.145331382751465
1761132334448198100,8.6071982421875,-0.603076696395874,-1.2682325839996338,-4.238793849945068
1761132334458198300,8.6171982421875,0.18799377977848053,-0.4075234830379486,-4.002999782562256
1761132334468198100,8.6271982421875,0.889267086982727,1.503262996673584,-3.173444986343384
1761132334478198300,8.6371982421875,0.915534257888794,2.7103326320648193,-2.4746150970458984
1761132334488198100,8.6471982421875,0.5850561857223511,3.1263320446014404,-2.12397837638855
1761132334498199000,8.657198974609376,0.4812090992927551,3.1464905738830566,-1.9437731504440308
1761132334508199200,8.66719921875,0.2857322096824646,2.845334053039551,-1.9535470008850098
1761132334518199000,8.677198974609375,0.1592831164598465,1.8923841714859009,-2.079385280609131
1761132334528199200,8.68719921875,0.2509129047393799,0.5839108228683472,-2.132530689239502
1761132334538199000,8.697198974609375,0.39935314655303955,-0.43195807933807373,-2.1478021144866943
1761132334548199200,8.70719921875,0.5141957998275757,-0.8277987837791443,-2.141693592071533
1761132334558199300,8.71719921875,0.6131559610366821,-0.5596289038658142,-2.0842721462249756
1761132334568199400,8.727199462890624,0.7017314434051514,0.04085161164402962,-2.001805305480957
1761132334578199300,8.73719921875,0.7738135457038879,0.5698609352111816,-1.938886284828186
1761132334588199400,8.747199462890626,0.8190175890922546,0.7555639743804932,-1.9181169271469116
1761132334598198500,8.757198486328125,0.8092437386512756,0.6614906787872314,-1.8417587280273438
1761132334608198400,8.767198486328125,0.812298059463501,0.44829872250556946,-1.644449234008789
1761132334618198500,8.777198486328125,0.8660541772842407,0.25648704171180725,-1.3683381080627441
1761132334628198400,8.787198486328125,0.850782573223114,-0.00618501054123044,-0.9834930300712585
1761132334638198500,8.797198486328124,0.7170031070709229,-0.17234036326408386,-0.6701191663742065
1761132334648198400,8.807198486328126,0.5874996781349182,-0.03672827407717705,-0.16065755486488342
1761132334658198500,8.817198486328126,0.5600107312202454,0.5118287205696106,0.616973876953125
1761132334668198400,8.827198486328125,0.6382014751434326,1.2686907052993774,1.541213035583496
1761132334678198500,8.837198486328125,0.7896960377693176,1.9143753051757812,2.4385740756988525
1761132334688198400,8.847198486328125,0.9283624291419983,2.321211576461792,3.1502320766448975
1761132334698199300,8.85719921875,0.9314168095588684,1.8667278289794922,3.377473831176758
1761132334708199400,8.867199462890625,0.7475463151931763,0.23571762442588806,2.9095511436462402
1761132334718199300,8.87719921875,0.6479753255844116,-0.6109415888786316,2.4636194705963135
1761132334728199400,8.887199462890624,0.5911648273468018,-0.4179081916809082,2.20278000831604
1761132334738199300,8.89719921875,0.3804163336753845,-0.8161923289299011,1.5143349170684814
1761132334748199400,8.907199462890626,-0.03191770985722542,-1.5944346189498901,0.5057964324951172
1761132334758199300,8.91719921875,-0.43936482071876526,-1.8283960819244385,-0.31459560990333557
1761132334768199400,8.927199462890625,-0.8064948320388794,-1.1069642305374146,-0.4966334402561188
1761132334778199300,8.93719921875,-1.0563386678695679,-0.5095379948616028,-0.42210787534713745
1761132334788199400,8.947199462890625,-1.143081545829773,0.030466904863715172,-0.10934487730264664
1761132334798198500,8.957198486328124,-0.9604328870773315,1.0994811058044434,0.42210787534713745
1761132334808198400,8.967198486328124,-0.6269004344940186,2.2216405868530273,0.9150761365890503
1761132334818198500,8.977198486328126,-0.1290452778339386,2.784247398376465,1.2095131874084473
1761132334828198400,8.987198486328126,0.36331209540367126,2.7078893184661865,1.23394775390625
1761132334838198500,8.997198486328125,0.4983133375644684,2.2637901306152344,1.0170906782150269
1761132334848198400,9.007198486328125,0.32788193225860596,1.5484670400619507,0.7312057018280029
1761132334858198300,9.0171982421875,0.022449297830462456,0.7091382145881653,0.5821545720100403
1761132334868198100,9.0271982421875,-0.01970040425658226,0.5118287205696106,0.6493497490882874
1761132334878198300,9.0371982421875,0.07437284290790558,0.6315582990646362,0.7678576111793518
1761132334888198100,9.0471982421875,0.25641068816185,0.9956340193748474,0.8894197940826416
1761132334898199000,9.057198974609374,0.45982882380485535,1.4605023860931396,0.9834930300712585
1761132334908199200,9.06719921875,0.6174320578575134,1.800754427909851,1.0256427526474
1761132334918199000,9.077198974609376,0.585667073726654,1.7445547580718994,1.3261884450912476
1761132334928199200,9.08719921875,0.4170682430267334,0.7677812576293945,1.3829989433288574
1761132334938199000,9.097198974609375,0.33399057388305664,-0.0214566420763731,1.0653489828109741
1761132334948199200,9.10719921875,0.30894508957862854,-0.18211419880390167,0.5528330206871033
1761132334958198800,9.11719873046875,0.20570887625217438,-0.06788240373134613,0.02382374368607998
1761132334968198700,9.12719873046875,0.052381694316864014,0.08116871863603592,-0.4758640229701996
1761132334978198800,9.13719873046875,-0.1333213448524475,0.2082286924123764,-0.8619308471679688
1761132334988198700,9.14719873046875,-0.2945897579193115,0.24976752698421478,-1.014647126197815
