time,seconds_elapsed,z,y,x
1761132707897396700,0.082396728515625,-0.1897449493408203,1.1400538682937622,1.6331584453582764
1761132707917395700,0.102395751953125,-0.10103797912597656,1.2187869548797607,1.605954885482788
1761132707927395800,0.112395751953125,-0.021864891052246094,1.264758586883545,1.5442742109298706
1761132707937395700,0.122395751953125,0.033417701721191406,1.2788496017456055,1.4720895290374756
1761132707947395800,0.132395751953125,0.05041313171386719,1.2640225887298584,1.417762041091919
1761132707957395700,0.142395751953125,0.037059783935546875,1.2496017217636108,1.3590331077575684
1761132707967391700,0.152391845703125,0.0005397796630859375,1.2460300922393799,1.2870869636535645
1761132707977391600,0.1623916015625,-0.052104949951171875,1.2718923091888428,1.18241286277771
1761132707987391700,0.172391845703125,-0.0973653793334961,1.3037443161010742,1.0756468772888184
1761132707997391600,0.1823916015625,-0.1284503936767578,1.323011875152588,0.977718710899353
1761132708007391700,0.192391845703125,-0.1358356475830078,1.3210004568099976,0.8947129249572754
1761132708017391600,0.2023916015625,-0.10744094848632812,1.3190146684646606,0.8282848596572876
1761132708027391700,0.212391845703125,-0.06466388702392578,1.3255233764648438,0.7646858096122742
1761132708037391600,0.2223916015625,0.0072383880615234375,1.3320386409759521,0.7009568810462952
1761132708047391700,0.232391845703125,0.0990591049194336,1.3363864421844482,0.6382542252540588
1761132708057391600,0.2423916015625,0.17239093780517578,1.3300893306732178,0.5800125598907471
1761132708067391700,0.252391845703125,0.1961984634399414,1.2908416986465454,0.5304293632507324
1761132708077391600,0.2623916015625,0.2043600082397461,1.2431937456130981,0.5536774396896362
1761132708087391700,0.272391845703125,0.19205284118652344,1.1948055028915405,0.4970393180847168
1761132708097391600,0.2823916015625,0.11367416381835938,1.1931477785110474,0.2991962432861328
1761132708107391700,0.292391845703125,0.08171463012695312,1.1768511533737183,0.23092132806777954
1761132708117391600,0.3023916015625,0.08876419067382812,1.1562198400497437,0.19227147102355957
1761132708127391700,0.312391845703125,0.10091686248779297,1.106226921081543,0.23390167951583862
1761132708137391600,0.3223916015625,0.21806907653808594,1.0545576810836792,0.1843242645263672
1761132708147391700,0.332391845703125,0.3247108459472656,0.966140627861023,0.13849639892578125
1761132708157391600,0.3423916015625,0.45376014709472656,0.8673101663589478,0.0611109733581543
1761132708167390700,0.352390625,0.5905447006225586,0.764024019241333,-0.015275955200195312
1761132708177390600,0.362390625,0.5967321395874023,0.7281935214996338,-0.017235279083251953
1761132708187390700,0.372390625,0.861598014831543,0.49241626262664795,-0.053951263427734375
1761132708197390600,0.382390625,0.9228534698486328,0.2527357339859009,-0.022000551223754883
1761132708207390700,0.392390625,0.948760986328125,-0.009950041770935059,0.007040500640869141
1761132708217390600,0.402390625,0.9502983093261719,-0.2557351589202881,-0.0030564069747924805
1761132708227390700,0.412390625,0.9876585006713867,-0.4575310945510864,-0.0927579402923584
1761132708237390600,0.422390625,1.063222885131836,-0.6183497905731201,-0.2784618139266968
1761132708247390700,0.432390625,1.1376581192016602,-0.7473111152648926,-0.49042701721191406
1761132708257390600,0.442390625,1.1405773162841797,-1.0484591722488403,-0.5783393383026123
1761132708267391500,0.4523916015625,1.0586042404174805,-1.421176791191101,-0.6736534833908081
1761132708277391600,0.4623916015625,0.7600011825561523,-1.19943106174469,-0.9825839996337891
1761132708287391500,0.4723916015625,0.5070867538452148,-0.7831026315689087,-1.4514305591583252
1761132708297391600,0.4823916015625,0.24177074432373047,-0.5486860275268555,-1.7147574424743652
1761132708307391500,0.4923916015625,-0.07480812072753906,-0.451094388961792,-1.7465095520019531
1761132708317391600,0.5023916015625,-0.44835948944091797,-0.38588666915893555,-1.7138797044754028
1761132708327391500,0.5123916015625,-0.8466119766235352,-0.33350086212158203,-1.6225206851959229
1761132708337391600,0.5223916015625,-1.382232666015625,-0.33301854133605957,-1.6849915981292725
1761132708347391500,0.5323916015625,-1.9629974365234375,-0.37604475021362305,-1.8367587327957153
1761132708357391600,0.5423916015625,-2.360922336578369,-0.25472450256347656,-1.8884769678115845
1761132708367390700,0.552390625,-2.6482691764831543,-0.03783226013183594,-1.8545902967453003
1761132708377390600,0.562390625,-2.6315364837646484,0.28846001625061035,-1.7657742500305176
1761132708387390700,0.572390625,-2.032212734222412,0.8588860034942627,-1.5197886228561401
1761132708397390600,0.582390625,-1.1046295166015625,1.786564826965332,-1.0466573238372803
1761132708407390700,0.592390625,-0.5734720230102539,2.065347671508789,-0.04292654991149902
1761132708417390600,0.602390625,-0.4000282287597656,2.133389949798584,0.8477287292480469
1761132708427390700,0.612390625,-0.6236076354980469,2.389634609222412,1.0877681970596313
1761132708437390600,0.622390625,-1.2457733154296875,2.556845188140869,1.022127389907837
1761132708447390700,0.632390625,-2.091301918029785,2.584475040435791,0.9844251871109009
1761132708457390600,0.642390625,-2.9237775802612305,2.6133170127868652,0.9279512166976929
1761132708467391500,0.6523916015625,-3.626701831817627,2.622811794281006,0.9454289674758911
1761132708477391600,0.6623916015625,-3.9993457794189453,2.5250742435455322,1.1302777528762817
1761132708487391700,0.672391845703125,-4.057318687438965,2.6924705505371094,0.9828280210494995
1761132708497391600,0.6823916015625,-3.788820266723633,2.273130178451538,1.470799207687378
1761132708507391700,0.692391845703125,-3.4695096015930176,2.1577467918395996,1.5292065143585205
1761132708517391600,0.7023916015625,-3.1317172050476074,2.1402416229248047,1.5737160444259644
1761132708527391500,0.7123916015625,-2.8286972045898438,2.0871405601501465,1.729025959968567
1761132708537391600,0.7223916015625,-2.6668953895568848,1.854993224143982,1.9589481353759766
1761132708547391500,0.7323916015625,-2.7363085746765137,1.6161679029464722,1.9813041687011719
1761132708557391600,0.7423916015625,-2.855045795440674,1.4417145252227783,1.8939086198806763
1761132708567390700,0.752390625,-3.228959083557129,1.2367764711380005,1.736086130142212
1761132708577390800,0.762390869140625,-3.832183837890625,1.0559982061386108,1.572466254234314
1761132708587390700,0.772390625,-4.522730350494385,0.9701298475265503,1.4110685586929321
1761132708597390800,0.782390869140625,-5.207594871520996,0.9326315522193909,1.254265308380127
1761132708607390700,0.792390625,-5.810184955596924,0.9058181047439575,1.1124227046966553
1761132708617390800,0.802390869140625,-6.22128963470459,0.8662744760513306,1.006060004234314
1761132708627390700,0.812390625,-6.345949172973633,0.7652416229248047,0.9353712201118469
1761132708637390800,0.822390869140625,-6.089935302734375,0.6378211975097656,0.5936961770057678
1761132708647390700,0.832390625,-5.497145175933838,0.4324871301651001,0.21648812294006348
1761132708657390800,0.842390869140625,-5.016183376312256,-0.0783383846282959,-0.10833090543746948
1761132708667391500,0.8523916015625,-4.461423873901367,-0.39408087730407715,-0.48516327142715454
1761132708677391600,0.8623916015625,-3.6342272758483887,-0.4220705032348633,-0.7396112680435181
1761132708687391500,0.8723916015625,-2.875026226043701,-0.3878457546234131,-0.7494595050811768
1761132708697391600,0.8823916015625,-2.115051746368408,-0.4057765007019043,-0.4294431209564209
1761132708707391500,0.8923916015625,-1.4224863052368164,-0.5270029306411743,-0.08581626415252686
1761132708717391600,0.9023916015625,-1.0582075119018555,-0.6572105884552002,0.2872089147567749
1761132708727392000,0.91239208984375,-0.8654794692993164,-0.6553748846054077,0.49059367179870605
1761132708747392000,0.93239208984375,0.48577117919921875,-0.08840221166610718,0.31551018357276917
1761132708767391000,0.952390869140625,6.2736921310424805,1.0654819011688232,0.3949974775314331
1761132708777391000,0.96239111328125,9.569953918457031,1.607939600944519,0.13864269852638245
1761132708787391000,0.972390869140625,12.805328369140625,2.171978235244751,-0.5160634517669678
1761132708797391000,0.98239111328125,15.78627872467041,2.261411428451538,-0.5411489009857178
1761132708807391000,0.992390869140625,17.884429931640625,2.323288679122925,-0.19083106517791748
1761132708817391000,1.00239111328125,19.133861541748047,2.6308441162109375,0.710283100605011
1761132708827391000,1.012390869140625,19.675472259521484,2.9483189582824707,2.101088285446167
1761132708837391000,1.02239111328125,19.30609893798828,3.6155004501342773,3.1152939796447754
1761132708857391000,1.04239111328125,15.853486061096191,4.720320701599121,4.084537982940674
1761132708867392000,1.05239208984375,13.215611457824707,5.037086486816406,4.044262409210205
1761132708877392000,1.062391845703125,10.761621475219727,5.061892509460449,4.312106609344482
1761132708887391700,1.072391845703125,8.942426681518555,5.051313400268555,3.8312435150146484
1761132708897391900,1.082391845703125,8.10667896270752,5.25232458114624,2.7512853145599365
1761132708907391700,1.092391845703125,7.807904243469238,5.0872483253479,2.22171950340271
1761132708917392000,1.102391845703125,7.703329086303711,4.288353443145752,2.2761194705963135
1761132708927391700,1.112391845703125,7.421282768249512,3.6204614639282227,2.0964879989624023
1761132708937391900,1.122391845703125,6.444296836853027,2.9977219104766846,1.6054192781448364
1761132708957392000,1.142391845703125,2.166200637817383,1.69743812084198,0.5857836008071899
1761132708967391000,1.152390869140625,-0.22930335998535156,1.0814783573150635,0.26783061027526855
1761132708977391000,1.16239111328125,-2.3048291206359863,0.6029678583145142,-0.45932459831237793
1761132708987391000,1.172390869140625,-4.030949115753174,0.07819074392318726,-0.996058464050293
1761132708997390800,1.182390869140625,-5.5561604499816895,-0.5167780518531799,-1.3697593212127686
1761132709007391000,1.192390869140625,-6.7158660888671875,-0.8351787328720093,-2.4768218994140625
1761132709017390800,1.202390869140625,-7.494733810424805,-1.0505855083465576,-3.7320754528045654
1761132709027390700,1.212390625,-8.054580688476562,-1.4126179218292236,-4.050423622131348
1761132709037390600,1.222390625,-8.500349044799805,-1.7932243347167969,-3.92314076423645
1761132709047390700,1.232390625,-8.856687545776367,-2.032634735107422,-3.6857995986938477
1761132709057390600,1.242390625,-9.204751014709473,-2.2883079051971436,-3.22128963470459
1761132709067391500,1.2523916015625,-9.525572776794434,-2.553100109100342,-2.564626693725586
1761132709077391400,1.262391357421875,-9.900999069213867,-2.781130075454712,-1.9161063432693481
1761132709087391500,1.2723916015625,-10.432943344116211,-2.989065408706665,-1.3756718635559082
1761132709097391400,1.282391357421875,-11.138967514038086,-3.2374825477600098,-0.7891098260879517
1761132709107391500,1.2923916015625,-11.885327339172363,-3.291842460632324,-0.4179171323776245
1761132709117391400,1.302391357421875,-12.411711692810059,-3.221796989440918,-0.2873948812484741
1761132709127391500,1.3123916015625,-12.615921020507812,-3.147420644760132,-0.22019875049591064
1761132709137391400,1.322391357421875,-12.539704322814941,-3.106781482696533,-0.05734395980834961
1761132709147391500,1.3323916015625,-12.249930381774902,-3.0770325660705566,0.14807987213134766
1761132709157391400,1.342391357421875,-11.851262092590332,-3.0369019508361816,0.3859962224960327
1761132709167390500,1.352390380859375,-11.455071449279785,-3.004201650619507,0.6442961096763611
1761132709177390600,1.362390625,-11.460346221923828,-2.993490695953369,0.6130571961402893
1761132709187390700,1.372390625,-10.791025161743164,-2.9827499389648438,0.86802077293396
1761132709197390600,1.382390625,-10.544212341308594,-2.9841465950012207,0.8454928398132324
1761132709207390700,1.392390625,-10.346471786499023,-3.006314754486084,0.7982691526412964
1761132709217390600,1.402390625,-10.212262153625488,-3.04130482673645,0.70058274269104
1761132709227390700,1.412390625,-10.10844898223877,-3.1060519218444824,0.5962393283843994
1761132709237390600,1.422390625,-9.849166870117188,-3.1892521381378174,0.5657286047935486
1761132709247390700,1.432390625,-9.353841781616211,-3.326043128967285,0.6183724403381348
1761132709257390600,1.442390625,-8.547987937927246,-3.546868324279785,0.761042594909668
1761132709267391500,1.4523916015625,-7.406493186950684,-3.8446614742279053,1.049551010131836
1761132709277391600,1.4623916015625,-5.99910831451416,-4.184086322784424,1.4670023918151855
1761132709287391500,1.4723916015625,-4.533546447753906,-4.42294979095459,1.9639523029327393
1761132709297391600,1.4823916015625,-3.000854969024658,-4.318193435668945,2.3052902221679688
1761132709307391500,1.4923916015625,-2.980163097381592,-4.367807388305664,2.4019112586975098
1761132709317391600,1.5023916015625,0.8834619522094727,-1.872563123703003,2.2704405784606934
1761132709330966000,1.515966064453125,3.770099639892578,0.06871533393859863,2.0782899856567383
1761132709340966100,1.525966064453125,7.722472190856934,1.9383900165557861,1.8321874141693115
1761132709350966000,1.535966064453125,12.501790046691895,3.5254287719726562,1.556330919265747
1761132709360966100,1.545966064453125,17.856884002685547,4.698692321777344,1.5874121189117432
1761132709370965200,1.55596533203125,22.76360321044922,5.839419364929199,1.8080960512161255
1761132709380965400,1.56596533203125,26.371055603027344,7.184782981872559,2.167259693145752
1761132709390965200,1.57596533203125,28.204601287841797,8.588391304016113,2.702136754989624
1761132709400965400,1.58596533203125,28.18105697631836,9.432098388671875,3.2256741523742676
1761132709410965200,1.59596533203125,26.555707931518555,9.61185359954834,3.156681776046753
1761132709420965400,1.60596533203125,23.742801666259766,9.34609317779541,2.497896909713745
1761132709430965200,1.61596533203125,20.727209091186523,8.884113311767578,1.5470471382141113
1761132709440965000,1.625965087890625,18.092815399169922,8.259919166564941,0.5044584274291992
1761132709450965200,1.63596533203125,16.13275146484375,7.479503631591797,-0.4195612668991089
1761132709460965000,1.645965087890625,14.52961254119873,6.532467842102051,-1.2135093212127686
1761132709470966300,1.65596630859375,12.607992172241211,5.14455509185791,-1.4902193546295166
1761132709480966100,1.665966064453125,10.647477149963379,4.247340202331543,-2.343127489089966
1761132709490966300,1.67596630859375,8.699589729309082,3.5514442920684814,-3.5275068283081055
1761132709500966100,1.685966064453125,6.366385459899902,2.3730878829956055,-4.1378936767578125
1761132709510966300,1.69596630859375,3.8084163665771484,1.3751108646392822,-4.781129837036133
1761132709520966100,1.705966064453125,1.018244743347168,0.43675777316093445,-5.215192794799805
1761132709530966300,1.71596630859375,-1.921924114227295,-0.5094300508499146,-5.267413139343262
1761132709540966100,1.725966064453125,-4.655993461608887,-1.216740608215332,-5.2200493812561035
1761132709550966300,1.73596630859375,-7.20374870300293,-1.8705923557281494,-4.911482334136963
1761132709560966100,1.745966064453125,-9.451315879821777,-2.36857533454895,-4.387685775756836
1761132709570965200,1.75596533203125,-11.3377103805542,-2.6982345581054688,-3.7274160385131836
1761132709580965400,1.76596533203125,-12.8461332321167,-2.93030047416687,-3.032541275024414
1761132709590965200,1.77596533203125,-13.934250831604004,-3.099159002304077,-2.4706201553344727
1761132709600965400,1.78596533203125,-14.58498764038086,-3.218503713607788,-2.0768985748291016
1761132709610965200,1.79596533203125,-14.850162506103516,-3.331819772720337,-1.8024061918258667
1761132709620965400,1.80596533203125,-14.744739532470703,-3.467689037322998,-1.5969542264938354
1761132709630965200,1.81596533203125,-14.284149169921875,-3.6132428646087646,-1.4806830883026123
1761132709640965400,1.82596533203125,-13.581506729125977,-3.7606611251831055,-1.4100768566131592
1761132709650965200,1.83596533203125,-12.782124519348145,-3.929647922515869,-1.316766381263733
1761132709660965400,1.84596533203125,-12.079578399658203,-4.081458568572998,-1.2270193099975586
1761132709670966000,1.855966064453125,-11.599227905273438,-4.200281143188477,-1.1804238557815552
1761132709680966100,1.865966064453125,-11.355621337890625,-4.311382293701172,-1.1331537961959839
1761132709690966000,1.875966064453125,-11.28336238861084,-4.4007134437561035,-1.107464075088501
1761132709700966100,1.885966064453125,-11.255179405212402,-4.455080032348633,-1.0809266567230225
1761132709710966000,1.895966064453125,-11.186197280883789,-4.475709915161133,-1.0071607828140259
1761132709720966100,1.905966064453125,-11.0357666015625,-4.464161396026611,-0.8823007941246033
1761132709730966300,1.91596630859375,-10.807709693908691,-4.423972129821777,-0.7136490345001221
1761132709740966100,1.925966064453125,-10.553712844848633,-4.36463737487793,-0.5430775880813599
1761132709750966300,1.93596630859375,-10.31834602355957,-4.2792134284973145,-0.421775758266449
1761132709760966100,1.945966064453125,-10.15869140625,-4.153879165649414,-0.3487674593925476
1761132709770965200,1.95596533203125,-10.041479110717773,-4.084421157836914,-0.2070109248161316
1761132709780965400,1.96596533203125,-9.912490844726562,-3.928955554962158,-0.2044559121131897
1761132709790965200,1.97596533203125,-9.557964324951172,-3.640434741973877,-0.4520259499549866
1761132709800965400,1.98596533203125,-8.997881889343262,-3.368285655975342,-0.6288439631462097
1761132709810965200,1.99596533203125,-8.073006629943848,-3.232029438018799,-0.6101320385932922
1761132709820965400,2.00596533203125,-6.870933532714844,-3.103756904602051,-0.5378745794296265
1761132709840965400,2.02596533203125,-3.564131259918213,-1.8635939359664917,-0.8763147592544556
1761132709850965200,2.03596533203125,-1.5360736846923828,-0.648654580116272,-1.1194264888763428
1761132709860965400,2.04596533203125,0.4391164779663086,0.8708885908126831,-1.1395106315612793
1761132709870966000,2.055966064453125,2.467501640319824,2.414033889770508,-0.7752543687820435
1761132709880966100,2.065966064453125,5.716878890991211,3.7086291313171387,-0.39587193727493286
1761132709890966000,2.075966064453125,11.106545448303223,4.20548152923584,-0.1262456178665161
1761132709900966100,2.085966064453125,17.98465347290039,3.829674005508423,0.15015356242656708
1761132709910966000,2.095966064453125,24.931365966796875,3.124833106994629,0.6331881284713745
1761132709920966100,2.105966064453125,30.239423751831055,2.7030832767486572,1.6891800165176392
1761132709930966000,2.115966064453125,32.20625305175781,3.2085022926330566,2.8490850925445557
1761132709940966100,2.125966064453125,31.075796127319336,3.8917412757873535,4.330986022949219
1761132709950966000,2.135966064453125,28.184301376342773,4.771745204925537,5.571634769439697
1761132709960966100,2.145966064453125,24.79439353942871,5.549513816833496,6.1162872314453125
1761132709970965200,2.15596533203125,22.00358772277832,5.85267448425293,6.153292179107666
1761132709980965400,2.16596533203125,19.60576629638672,5.891026496887207,5.745898246765137
1761132709990965200,2.17596533203125,17.41893196105957,5.77152681350708,5.077963352203369
1761132710000965400,2.18596533203125,15.2879056930542,5.560603618621826,4.476146221160889
1761132710010965200,2.19596533203125,12.989372253417969,5.353644371032715,4.0082807540893555
1761132710020965000,2.205965087890625,10.446903228759766,5.150734901428223,3.697883367538452
1761132710030965200,2.21596533203125,7.71730899810791,4.941507339477539,3.5400524139404297
1761132710040965000,2.225965087890625,4.964761734008789,4.691282272338867,3.4305734634399414
1761132710050965200,2.23596533203125,2.2553091049194336,4.3433685302734375,3.254350185394287
1761132710060965000,2.245965087890625,-0.1749887466430664,3.9218461513519287,2.9505879878997803
1761132710070966000,2.255966064453125,-2.28342866897583,3.414686918258667,2.517080068588257
1761132710080966100,2.265966064453125,-4.094669818878174,2.788882255554199,2.0185298919677734
1761132710090966000,2.275966064453125,-5.789114475250244,2.23606276512146,1.3344541788101196
1761132710100966100,2.285966064453125,-7.35614013671875,1.6705423593521118,0.7770530581474304
1761132710110966000,2.295966064453125,-8.741353988647461,1.0788440704345703,0.5165150165557861
1761132710120966100,2.305966064453125,-10.04758358001709,0.556961178779602,0.3916062116622925
1761132710130966000,2.315966064453125,-11.3187255859375,0.09650313854217529,0.3612862527370453
1761132710140966100,2.325966064453125,-12.468327522277832,-0.2769072353839874,0.3888094425201416
1761132710150966000,2.335966064453125,-13.443513870239258,-0.563552737236023,0.436716228723526
1761132710160966100,2.345966064453125,-14.198955535888672,-0.7719265222549438,0.4332176744937897
1761132710170965200,2.35596533203125,-14.69656753540039,-0.9377925992012024,0.3460204005241394
1761132710180965000,2.365965087890625,-14.91337776184082,-1.0887311697006226,0.22528594732284546
1761132710190965200,2.37596533203125,-14.838310241699219,-1.2462260723114014,0.05085667967796326
1761132710200965000,2.385965087890625,-14.484989166259766,-1.4021995067596436,-0.2117968201637268
1761132710210965200,2.39596533203125,-13.912467002868652,-1.5426616668701172,-0.5445120334625244
1761132710220965400,2.40596533203125,-13.07815170288086,-1.656618356704712,-0.8682122230529785
1761132710230965200,2.41596533203125,-11.923257827758789,-1.7733612060546875,-1.1269351243972778
1761132710240965400,2.42596533203125,-10.571023941040039,-1.7331767082214355,-1.498387098312378
1761132710250965200,2.43596533203125,-9.530399322509766,-1.9017246961593628,-1.4961094856262207
1761132710260965400,2.44596533203125,-9.534544944763184,-1.8408578634262085,-1.5305852890014648
1761132710270966000,2.455966064453125,-8.141077041625977,-2.1788291931152344,-1.3887481689453125
1761132710280966100,2.465966064453125,-7.603808403015137,-2.2877042293548584,-1.4327459335327148
1761132710290966000,2.475966064453125,-7.221124649047852,-2.4182562828063965,-1.430769920349121
1761132710300966100,2.485966064453125,-6.56451416015625,-2.5893425941467285,-1.3082245588302612
1761132710320966100,2.505966064453125,-6.077549934387207,-2.6999988555908203,-1.2873555421829224
1761132710330966300,2.51596630859375,-5.400265693664551,-2.760284423828125,-1.2413257360458374
1761132710340966100,2.525966064453125,-4.507190227508545,-2.8253726959228516,-1.2408198118209839
1761132710350966300,2.53596630859375,-3.3511228561401367,-2.8729424476623535,-1.32053542137146
1761132710360966100,2.545966064453125,-1.9943041801452637,-2.8042473793029785,-1.4126032590866089
1761132710370965200,2.55596533203125,-0.5038318634033203,-2.5680713653564453,-1.4040782451629639
1761132710380965400,2.56596533203125,1.2443933486938477,-2.107483148574829,-1.48631751537323
1761132710390965200,2.57596533203125,3.3216352462768555,-1.4533538818359375,-1.812880277633667
1761132710400965400,2.58596533203125,5.826144218444824,-0.6615089774131775,-2.076021194458008
1761132710410965200,2.59596533203125,8.809460639953613,0.10272490978240967,-2.1772429943084717
1761132710420965400,2.60596533203125,12.267547607421875,0.835252583026886,-2.290025472640991
1761132710430965200,2.61596533203125,15.785279273986816,1.3654401302337646,-2.3858139514923096
1761132710440965400,2.62596533203125,18.866670608520508,1.668460488319397,-2.370340347290039
1761132710450965200,2.63596533203125,21.236068725585938,1.850620985031128,-2.2029058933258057
1761132710460965400,2.64596533203125,22.81584930419922,2.0341668128967285,-1.6859947443008423
1761132710470966300,2.65596630859375,23.383338928222656,2.268493413925171,-0.9880844354629517
1761132710480966100,2.665966064453125,22.75831413269043,2.59403133392334,-0.3625422716140747
1761132710490966300,2.67596630859375,21.15930938720703,2.942204475402832,0.1951194405555725
1761132710500966100,2.685966064453125,18.902050018310547,3.2769808769226074,0.6927635073661804
1761132710510966300,2.69596630859375,16.221195220947266,3.5682079792022705,1.1718242168426514
1761132710520966100,2.705966064453125,13.665181159973145,3.839357376098633,1.7736701965332031
1761132710530966300,2.71596630859375,11.733011245727539,4.067871570587158,2.3918933868408203
1761132710540966100,2.725966064453125,10.451626777648926,4.271650314331055,2.7519030570983887
1761132710550966300,2.73596630859375,9.444211959838867,4.410835266113281,2.783637046813965
1761132710560966100,2.745966064453125,8.218061447143555,4.455064296722412,2.6218948364257812
1761132710570965200,2.75596533203125,6.52269172668457,4.450287342071533,2.371452569961548
1761132710580965400,2.76596533203125,4.364071846008301,4.375016689300537,2.0631608963012695
1761132710590965200,2.77596533203125,2.1018104553222656,4.26665735244751,1.7614514827728271
1761132710600965400,2.78596533203125,-0.06132793426513672,4.078306198120117,1.6498078107833862
1761132710610965200,2.79596533203125,-2.0185165405273438,3.8475217819213867,1.5280932188034058
1761132710620965400,2.80596533203125,-3.668806552886963,3.6507997512817383,1.2678238153457642
1761132710630965200,2.81596533203125,-4.920718669891357,3.2659225463867188,1.238269329071045
1761132710640965400,2.82596533203125,-5.845433235168457,2.702691078186035,1.3746418952941895
1761132710650965200,2.83596533203125,-6.6482954025268555,2.22046160697937,1.368117332458496
1761132710660965400,2.84596533203125,-7.396732807159424,1.4700236320495605,1.4991583824157715
1761132710670966000,2.855966064453125,-8.131407737731934,0.5479915738105774,1.707821011543274
1761132710680966100,2.865966064453125,-8.118666648864746,0.2122563123703003,1.5965949296951294
1761132710690966300,2.87596630859375,-10.369160652160645,-0.8335740566253662,1.3504635095596313
1761132710700966100,2.885966064453125,-11.639458656311035,-1.4048185348510742,1.2755934000015259
1761132710710966300,2.89596630859375,-12.759726524353027,-1.939609408378601,1.3235349655151367
1761132710720966100,2.905966064453125,-13.645356178283691,-2.395029067993164,1.3709757328033447
1761132710730966300,2.91596630859375,-14.327619552612305,-2.7459983825683594,1.1952319145202637
1761132710740966100,2.925966064453125,-14.787300109863281,-3.0231449604034424,0.8389661312103271
1761132710750966300,2.93596630859375,-15.036745071411133,-3.2871768474578857,0.29216811060905457
1761132710760966100,2.945966064453125,-15.042827606201172,-3.5347635746002197,-0.27862244844436646
1761132710770965200,2.95596533203125,-14.738544464111328,-3.752620220184326,-0.7059509754180908
1761132710780965400,2.96596533203125,-14.22346305847168,-3.9352970123291016,-0.8654876947402954
1761132710790965200,2.97596533203125,-13.634340286254883,-4.101452827453613,-0.7666760683059692
1761132710800965400,2.98596533203125,-13.030668258666992,-4.26765775680542,-0.5163308382034302
1761132710810965200,2.99596533203125,-12.484434127807617,-4.426933288574219,-0.23307430744171143
1761132710820965400,3.00596533203125,-12.001132011413574,-4.621808052062988,0.038260459899902344
1761132710830965200,3.01596533203125,-11.549497604370117,-4.805298328399658,0.13776540756225586
1761132710840965400,3.02596533203125,-11.083459854125977,-4.935550689697266,0.058141469955444336
1761132710850965200,3.03596533203125,-10.547375679016113,-5.054007530212402,0.031014323234558105
1761132710860965400,3.04596533203125,-9.622406005859375,-5.1525044441223145,0.08018314838409424
1761132710870966300,3.05596630859375,-8.39322280883789,-5.233016014099121,0.21443665027618408
1761132710880966100,3.065966064453125,-6.982706546783447,-5.258064270019531,0.46695321798324585
1761132710890966300,3.07596630859375,-5.404013633728027,-4.982451438903809,0.6584843993186951
1761132710900966100,3.085966064453125,-3.6690144538879395,-4.07866907119751,0.5471803545951843
1761132710910966300,3.09596630859375,-1.4915523529052734,-2.544210433959961,0.30940234661102295
1761132710920966100,3.105966064453125,1.7385625839233398,-0.8545894622802734,0.5368056893348694
1761132710930966300,3.11596630859375,5.977512359619141,0.45049500465393066,1.5012807846069336
1761132710940966100,3.125966064453125,11.090725898742676,1.3866007328033447,2.7443253993988037
1761132710950966300,3.13596630859375,16.54656410217285,2.3279762268066406,3.7004916667938232
1761132710960966100,3.145966064453125,42.7562255859375,4.480924606323242,10.553744316101074
1761132710970965200,3.15596533203125,41.7940673828125,6.565672397613525,10.15738296508789
1761132710980965400,3.16596533203125,34.73119354248047,9.70384407043457,8.060532569885254
1761132710990965200,3.17596533203125,27.022586822509766,10.690871238708496,7.0259199142456055
1761132711000965400,3.18596533203125,19.792573928833008,10.638195991516113,5.048358917236328
1761132711010965200,3.19596533203125,14.422986030578613,9.74752426147461,2.7311806678771973
1761132711020965400,3.20596533203125,12.098235130310059,8.807300567626953,1.2292324304580688
1761132711030965200,3.21596533203125,10.736114501953125,7.274902820587158,0.9028143882751465
1761132711040965400,3.22596533203125,7.98126220703125,5.359713077545166,0.7156802415847778
1761132711050965200,3.23596533203125,4.050690650939941,4.99863862991333,-1.4334497451782227
1761132711060965400,3.24596533203125,0.9254322052001953,2.303154230117798,-0.2834815979003906
1761132711070966000,3.255966064453125,-0.6949243545532227,1.6693538427352905,-1.3073869943618774
1761132711080966100,3.265966064453125,-1.915257453918457,1.2549856901168823,-2.8885955810546875
1761132711090966000,3.275966064453125,-3.7449069023132324,0.6800882816314697,-5.156924724578857
1761132711100966100,3.285966064453125,-6.01408576965332,-0.08487947285175323,-6.585043907165527
1761132711110966000,3.295966064453125,-8.4375,-0.39763423800468445,-7.44464111328125
1761132711120966100,3.305966064453125,-10.773578643798828,-0.7471022605895996,-7.5317254066467285
1761132711130966000,3.315966064453125,-12.681135177612305,-1.3470567464828491,-6.812770366668701
1761132711140966100,3.325966064453125,-13.84292221069336,-1.7151075601577759,-5.565403938293457
1761132711150966000,3.335966064453125,-14.672589302062988,-2.060394048690796,-3.968350648880005
1761132711160966100,3.345966064453125,-15.364852905273438,-2.3080649375915527,-2.3870224952697754
1761132711170965500,3.355965576171875,-16.314476013183594,-2.4235711097717285,-1.1939700841903687
1761132711180965400,3.36596533203125,-17.240821838378906,-2.5065269470214844,-0.9100239276885986
1761132711190965500,3.375965576171875,-17.923675537109375,-2.6351640224456787,-1.0978305339813232
1761132711200965400,3.38596533203125,-17.949323654174805,-2.98630428314209,-1.4305596351623535
1761132711210965500,3.395965576171875,-16.72677230834961,-3.446319103240967,-1.7393637895584106
1761132711220965400,3.40596533203125,-14.655176162719727,-3.7068333625793457,-2.056429386138916
1761132711230965500,3.415965576171875,-12.293903350830078,-4.023504257202148,-2.060056447982788
1761132711240965400,3.42596533203125,-10.205826759338379,-4.250214099884033,-1.7727198600769043
1761132711250965500,3.435965576171875,-8.954773902893066,-4.3261399269104,-1.5424811840057373
1761132711260965400,3.44596533203125,-8.662537574768066,-4.239879131317139,-1.3822338581085205
1761132711270966300,3.45596630859375,-9.060758590698242,-4.010900974273682,-1.089076042175293
1761132711280966400,3.46596630859375,-9.52115249633789,-3.75191593170166,-0.5852676630020142
1761132711290966300,3.47596630859375,-9.826874732971191,-3.504514694213867,-0.002274036407470703
1761132711300966400,3.48596630859375,-10.08664608001709,-3.3108301162719727,0.5683948397636414
1761132711310966300,3.49596630859375,-9.834540367126465,-3.122987747192383,0.8892126679420471
1761132711320966400,3.50596630859375,-9.104763984680176,-2.9917995929718018,1.127030849456787
1761132711330966300,3.51596630859375,-8.450101852416992,-2.9598591327667236,1.684675693511963
1761132711340966400,3.52596630859375,-7.534733772277832,-3.0393519401550293,2.2095937728881836
1761132711350966300,3.53596630859375,-6.4680681228637695,-3.055762529373169,2.3349051475524902
1761132711360966400,3.54596630859375,-5.06453800201416,-3.044086456298828,1.8699500560760498
1761132711370965800,3.5559658203125,-4.126819133758545,-3.593947410583496,1.246544361114502
1761132711380965600,3.565965576171875,-3.810307502746582,-3.7419095039367676,-0.13818451762199402
1761132711390965800,3.5759658203125,-2.6194334030151367,-3.832669734954834,-0.9236336946487427
1761132711400965600,3.585965576171875,-1.277318000793457,-1.8335720300674438,-3.0687055587768555
1761132711410965800,3.5959658203125,-1.0300331115722656,0.7119871377944946,-4.034335613250732
1761132711420965600,3.605965576171875,0.7656059265136719,3.286818504333496,-3.590075731277466
1761132711430965500,3.615965576171875,6.8716630935668945,4.279115676879883,-0.807945966720581
1761132711440965600,3.625965576171875,18.505409240722656,2.5890469551086426,4.932335376739502
1761132711450965500,3.635965576171875,28.49746322631836,0.9569368362426758,7.718854904174805
1761132711460965600,3.645965576171875,38.214290618896484,-2.5871925354003906,11.391841888427734
1761132711470966300,3.65596630859375,45.960479736328125,-3.0124807357788086,11.82092571258545
1761132711480966400,3.66596630859375,44.371124267578125,0.17705610394477844,8.579495429992676
1761132711490966300,3.67596630859375,34.91627883911133,3.695319414138794,5.393763542175293
1761132711500966400,3.68596630859375,22.781536102294922,6.233808994293213,2.2886316776275635
1761132711510966300,3.69596630859375,15.407126426696777,7.140185356140137,0.2325524091720581
1761132711520966400,3.70596630859375,12.019689559936523,6.481296539306641,0.28982818126678467
1761132711530966300,3.71596630859375,11.155021667480469,5.557838439941406,1.2889125347137451
1761132711540966400,3.72596630859375,11.547795295715332,4.905388355255127,1.9587655067443848
1761132711550966300,3.73596630859375,12.338042259216309,4.027225494384766,0.11043846607208252
1761132711560966400,3.74596630859375,11.779548645019531,3.857240676879883,-2.8282651901245117
1761132711570965500,3.755965576171875,9.920150756835938,4.891966819763184,-6.004292011260986
1761132711580965400,3.76596533203125,7.090916633605957,3.821822166442871,-7.00136661529541
1761132711590965500,3.775965576171875,4.575017929077148,3.0009827613830566,-7.516902446746826
1761132711600965400,3.78596533203125,2.101994514465332,2.7602548599243164,-7.940899848937988
1761132711610965500,3.795965576171875,-0.667323112487793,3.277388334274292,-8.707119941711426
1761132711620965400,3.80596533203125,-4.139928340911865,2.1206088066101074,-6.923386096954346
1761132711630965500,3.815965576171875,-6.976305961608887,1.9208261966705322,-5.793915271759033
1761132711640965400,3.82596533203125,-9.49233341217041,1.3282194137573242,-3.9372880458831787
1761132711650965500,3.835965576171875,-12.094869613647461,0.6064345240592957,-1.7494971752166748
1761132711660965400,3.84596533203125,-14.269634246826172,0.17505395412445068,0.1969507932662964
1761132711670966000,3.855966064453125,-16.31414031982422,-0.1296520233154297,1.7905181646347046
1761132711680966100,3.865966064453125,-17.584522247314453,-0.08500897884368896,2.460836887359619
1761132711690966300,3.87596630859375,-18.60291290283203,-0.3314511775970459,2.794421672821045
1761132711700966100,3.885966064453125,-19.165264129638672,-0.847719669342041,2.5645177364349365
1761132711710966300,3.89596630859375,-19.164535522460938,-1.040887475013733,2.5451011657714844
1761132711720966100,3.905966064453125,-17.325674057006836,-1.361362099647522,0.19926360249519348
1761132711730966300,3.91596630859375,-17.324962615966797,-1.3980950117111206,0.2356872856616974
1761132711740966100,3.925966064453125,-13.240699768066406,-2.251025438308716,-0.6953360438346863
1761132711750966300,3.93596630859375,-11.436492919921875,-2.487872362136841,-0.9357207417488098
1761132711760966100,3.945966064453125,-10.00546646118164,-2.5239627361297607,-1.3371877670288086
1761132711770965200,3.95596533203125,-9.09329891204834,-2.5887234210968018,-1.6189237833023071
1761132711780965400,3.96596533203125,-8.374415397644043,-2.4889321327209473,-1.4384316205978394
1761132711790965200,3.97596533203125,-8.026274681091309,-2.4699885845184326,-1.1280264854431152
1761132711800965000,3.985965087890625,-8.403510093688965,-2.338491678237915,-0.9317880868911743
1761132711810965200,3.99596533203125,-9.120748519897461,-2.274109363555908,-0.917838454246521
1761132711820965000,4.005965087890625,-9.7876558303833,-2.162010431289673,-0.8838887214660645
1761132711830965200,4.01596533203125,-10.480780601501465,-1.9209461212158203,-0.5874513387680054
1761132711840965000,4.025965087890625,-10.852825164794922,-1.900987982749939,-0.018751829862594604
1761132711850965200,4.03596533203125,-10.963556289672852,-1.9859423637390137,0.32413291931152344
1761132711860965000,4.045965087890625,-10.858345031738281,-1.9542657136917114,0.44349944591522217
1761132711870966000,4.055966064453125,-10.580154418945312,-1.8029463291168213,0.3300890028476715
1761132711880966100,4.065966064453125,-10.713821411132812,-1.7146623134613037,0.2549647390842438
1761132711890966000,4.075966064453125,-11.01822280883789,-1.8512392044067383,0.3189908266067505
1761132711900966100,4.085966064453125,-10.742264747619629,-2.453747272491455,0.5878887176513672
1761132711910966000,4.095966064453125,-9.747363090515137,-2.4605021476745605,1.130124568939209
1761132711920966100,4.105966064453125,-7.861693859100342,-2.2983999252319336,1.2167648077011108
1761132711930966000,4.115966064453125,-3.969369411468506,-1.532232403755188,1.1612038612365723
1761132711940966100,4.125966064453125,4.249882698059082,-0.1309591382741928,2.668522834777832
1761132711950966000,4.135966064453125,16.298824310302734,-0.9558951258659363,7.168197154998779
1761132711960966100,4.145966064453125,30.003433227539062,-2.8738014698028564,12.333629608154297
1761132711970965200,4.15596533203125,37.41632843017578,-3.7481143474578857,12.108510971069336
1761132711980965000,4.165965087890625,43.292938232421875,-3.701655149459839,9.163064956665039
1761132711990965200,4.17596533203125,46.6143913269043,-3.1835548877716064,6.675867080688477
1761132712000965000,4.185965087890625,45.33958053588867,-0.9916423559188843,4.59727668762207
1761132712010965200,4.19596533203125,41.39665603637695,2.4973208904266357,3.4339702129364014
1761132712020965000,4.205965087890625,35.076656341552734,5.0562334060668945,2.720313787460327
1761132712030965200,4.21596533203125,28.940383911132812,7.045419692993164,3.117189645767212
1761132712040965000,4.225965087890625,23.20327377319336,7.76644229888916,5.3247599601745605
1761132712050965200,4.23596533203125,18.898181915283203,6.5280914306640625,6.970987796783447
1761132712060965000,4.245965087890625,13.490084648132324,5.626430511474609,6.11724328994751
1761132712070966000,4.255966064453125,6.777801513671875,5.1010284423828125,4.876386642456055
1761132712080966100,4.265966064453125,1.990250587463379,4.789552688598633,2.8100953102111816
1761132712090966000,4.275966064453125,-0.9437503814697266,4.2175726890563965,0.4258677363395691
1761132712100966100,4.285966064453125,-2.6481809616088867,3.467599391937256,-1.659236192703247
1761132712110966000,4.295966064453125,-4.2748870849609375,2.901773452758789,-3.4236278533935547
1761132712120966100,4.305966064453125,-5.848447322845459,2.455543041229248,-4.380859851837158
1761132712130966000,4.315966064453125,-7.733884811401367,2.099874973297119,-4.6302385330200195
1761132712140966100,4.325966064453125,-9.467000961303711,1.8149549961090088,-4.536966323852539
1761132712150966000,4.335966064453125,-11.214483261108398,1.421230673789978,-4.240389347076416
1761132712160966100,4.345966064453125,-12.840644836425781,1.007917881011963,-3.6436641216278076
1761132712170965200,4.35596533203125,-13.946977615356445,0.6674307584762573,-2.7426249980926514
1761132712180965000,4.365965087890625,-14.714738845825195,0.4070805013179779,-1.808686375617981
1761132712190965200,4.37596533203125,-15.460119247436523,0.11820167303085327,-0.8775731325149536
1761132712200965000,4.385965087890625,-15.627073287963867,-0.22219327092170715,-0.04517798870801926
1761132712210965200,4.39596533203125,-15.663373947143555,-0.6585491895675659,0.5245494842529297
1761132712220965000,4.405965087890625,-15.650999069213867,-0.9158029556274414,0.33507609367370605
1761132712230965200,4.41596533203125,-15.650703430175781,-1.3743374347686768,0.1156923770904541
1761132712240965000,4.425965087890625,-15.359212875366211,-1.8276948928833008,-0.2573612928390503
1761132712250965200,4.43596533203125,-14.738852500915527,-2.400766134262085,-0.3006754517555237
1761132712260965000,4.445965087890625,-14.031623840332031,-2.849344253540039,-0.4590953290462494
1761132712270966000,4.455966064453125,-13.609935760498047,-3.232539176940918,-0.8169087171554565
1761132712280966100,4.465966064453125,-13.26578140258789,-3.4897890090942383,-1.2989013195037842
1761132712290966000,4.475966064453125,-12.896254539489746,-3.6096909046173096,-1.5750337839126587
1761132712300966100,4.485966064453125,-12.41749095916748,-3.636263370513916,-1.9252400398254395
1761132712310966000,4.495966064453125,-12.236230850219727,-3.7067980766296387,-2.1998462677001953
1761132712320966100,4.505966064453125,-12.165386199951172,-3.7233023643493652,-2.455366611480713
1761132712330966000,4.515966064453125,-12.163656234741211,-3.6466760635375977,-2.840095043182373
1761132712340966100,4.525966064453125,-11.873861312866211,-3.5314087867736816,-2.765777826309204
1761132712350966000,4.535966064453125,-11.170567512512207,-3.4953713417053223,-2.679436206817627
1761132712360966100,4.545966064453125,-9.537944793701172,-3.5665178298950195,-2.3030078411102295
1761132712370965200,4.55596533203125,-7.716397285461426,-3.3638968467712402,-1.9012951850891113
1761132712380965000,4.565965087890625,-7.122847557067871,-3.1188552379608154,-2.2106549739837646
1761132712390965200,4.57596533203125,-6.8501434326171875,-2.8904526233673096,-2.3339121341705322
1761132712400965000,4.585965087890625,-5.61360502243042,-2.4242098331451416,-1.5424883365631104
1761132712410965200,4.59596533203125,-3.320736885070801,-2.28606915473938,-0.14778637886047363
1761132712420965000,4.605965087890625,-3.2742233276367188,-2.3011868000030518,-0.3866240978240967
1761132712430965200,4.61596533203125,5.619637489318848,-2.6104300022125244,3.1476244926452637
1761132712440965000,4.625965087890625,8.176916122436523,-1.7253702878952026,4.258849620819092
1761132712450965200,4.63596533203125,11.99617862701416,0.5169093012809753,5.4121856689453125
1761132712460965000,4.645965087890625,18.489654541015625,2.0582234859466553,7.987471580505371
1761132712470966000,4.655966064453125,27.14655303955078,2.9619712829589844,10.86265754699707
1761132712480966100,4.665966064453125,34.75334167480469,3.1661696434020996,11.735243797302246
1761132712490966000,4.675966064453125,34.81193542480469,3.353724956512451,11.579338073730469
1761132712500966100,4.685966064453125,41.55176544189453,3.07684326171875,8.112637519836426
1761132712510966000,4.695966064453125,41.953392028808594,3.434368133544922,7.311581134796143
1761132712520966100,4.705966064453125,39.59809112548828,4.12733268737793,7.621636390686035
1761132712530966000,4.715966064453125,34.52785873413086,5.559056758880615,6.758979797363281
1761132712550966000,4.735966064453125,23.44202423095703,8.261499404907227,2.553814172744751
1761132712570965200,4.75596533203125,26.121929168701172,14.052814483642578,10.443855285644531
1761132712580965400,4.76596533203125,17.991641998291016,11.488506317138672,21.900440216064453
1761132712590965200,4.77596533203125,-1.8568840026855469,7.843695163726807,14.755760192871094
1761132712600965000,4.785965087890625,-15.969908714294434,5.093378067016602,5.122139930725098
1761132712610965200,4.79596533203125,-19.772762298583984,3.733379602432251,-0.6294958591461182
1761132712620965400,4.80596533203125,-16.703828811645508,2.350587844848633,-3.1603078842163086
1761132712630965200,4.81596533203125,-10.575881958007812,0.7794854640960693,-4.104744911193848
1761132712640965400,4.82596533203125,-6.650505542755127,-0.035366177558898926,-4.712438106536865
1761132712650965200,4.83596533203125,-6.743042945861816,-0.7294858694076538,-4.75454044342041
1761132712660965400,4.84596533203125,-9.37765884399414,-1.259866714477539,-4.019381523132324
1761132712670966000,4.855966064453125,-12.229266166687012,-1.5532288551330566,-3.0070486068725586
1761132712680966100,4.865966064453125,-13.85612678527832,-1.8102946281433105,-1.8876030445098877
1761132712690966000,4.875966064453125,-14.404006004333496,-2.449031352996826,-0.937744677066803
1761132712700966100,4.885966064453125,-14.648359298706055,-3.2514491081237793,-0.14771997928619385
1761132712710966000,4.895966064453125,-14.94285774230957,-3.8678369522094727,-0.1413477659225464
1761132712720966100,4.905966064453125,-14.936412811279297,-4.308078765869141,-0.5752355456352234
1761132712730966300,4.91596630859375,-14.898874282836914,-4.493154525756836,-0.5189810395240784
1761132712740966100,4.925966064453125,-13.104698181152344,-5.6502180099487305,-1.7254854440689087
1761132712750966300,4.93596630859375,-13.093488693237305,-5.756386756896973,-1.5862966775894165
1761132712760966100,4.945966064453125,-11.79329776763916,-7.270474433898926,-2.7888965606689453
1761132712770965200,4.95596533203125,-11.640471458435059,-7.739633083343506,-3.565308094024658
1761132712780965400,4.96596533203125,-11.640083312988281,-7.786628723144531,-3.4001312255859375
1761132712790965200,4.97596533203125,-11.44440746307373,-8.384437561035156,-3.9527790546417236
1761132712800965400,4.98596533203125,-11.445690155029297,-8.405073165893555,-3.7992889881134033
1761132712810965200,4.99596533203125,-11.100128173828125,-8.55702018737793,-3.1098005771636963
1761132712820965400,5.00596533203125,-10.9746675491333,-8.25435733795166,-2.370844602584839
1761132712830965200,5.01596533203125,-11.061785697937012,-8.105334281921387,-1.5003716945648193
1761132712840965400,5.02596533203125,-11.402066230773926,-8.085628509521484,-1.1679468154907227
1761132712850965200,5.03596533203125,-11.548580169677734,-7.979043006896973,-0.9459983706474304
1761132712860965400,5.04596533203125,-11.29191780090332,-7.911957740783691,-0.28719452023506165
1761132712870966000,5.055966064453125,-11.138091087341309,-7.6688385009765625,0.15586549043655396
1761132712880966100,5.065966064453125,-11.404932975769043,-7.48927116394043,0.003539860248565674
1761132712890966000,5.075966064453125,-11.383868217468262,-7.082643508911133,-0.22640937566757202
1761132712900966100,5.085966064453125,-10.9231595993042,-6.789613723754883,-0.1610126495361328
1761132712910966000,5.095966064453125,-9.736623764038086,-6.4591264724731445,0.05635389685630798
1761132712920966100,5.105966064453125,-7.4228057861328125,-5.838379859924316,0.24468812346458435
1761132712930966000,5.115966064453125,-4.189502239227295,-5.245485305786133,0.6065618395805359
1761132712940966100,5.125966064453125,0.5231590270996094,-4.64812707901001,2.3147943019866943
1761132712950966000,5.135966064453125,5.625950813293457,-4.019527435302734,4.367238998413086
1761132712960966100,5.145966064453125,10.706683158874512,-3.0173420906066895,5.059079647064209
1761132712970965200,5.15596533203125,13.750826835632324,-1.2295132875442505,2.6142561435699463
1761132712980965000,5.165965087890625,13.272577285766602,0.8859565258026123,-1.5706629753112793
1761132712990965200,5.17596533203125,11.541290283203125,4.481456756591797,-3.325686454772949
1761132713000965000,5.185965087890625,11.455471992492676,9.369657516479492,-1.7549989223480225
1761132713010965200,5.19596533203125,15.280040740966797,12.077385902404785,2.5872013568878174
1761132713020965000,5.205965087890625,23.2972412109375,12.516890525817871,6.213483810424805
1761132713030965200,5.21596533203125,31.409400939941406,11.21678638458252,5.942662239074707
1761132713040965000,5.225965087890625,38.08541488647461,8.627490997314453,4.656746864318848
1761132713050965200,5.23596533203125,40.989933013916016,8.355405807495117,3.1121668815612793
1761132713060965000,5.245965087890625,39.47886276245117,10.140815734863281,1.2798460721969604
1761132713070966000,5.255966064453125,34.47868347167969,11.56430721282959,0.7755722999572754
1761132713080966000,5.2659658203125,27.46887969970703,12.790499687194824,1.2378424406051636
1761132713090966000,5.275966064453125,19.178367614746094,12.648411750793457,2.8821492195129395
1761132713100966000,5.2859658203125,10.967551231384277,11.225074768066406,4.175792217254639
1761132713110966000,5.295966064453125,3.312641143798828,9.496233940124512,4.23914909362793
1761132713120966000,5.3059658203125,-0.3316926956176758,7.334729194641113,4.490472316741943
1761132713130966000,5.315966064453125,-0.8594198226928711,5.12249755859375,4.794100761413574
1761132713140966000,5.3259658203125,-1.7106480598449707,3.1901588439941406,4.03463888168335
1761132713150966000,5.335966064453125,-3.7132415771484375,1.4824389219284058,2.3677573204040527
1761132713160966000,5.3459658203125,-6.122584342956543,-0.14258027076721191,0.6237126588821411
1761132713170965200,5.35596533203125,-8.445182800292969,-1.7227839231491089,-1.1199569702148438
1761132713180965000,5.365965087890625,-10.719451904296875,-3.0280301570892334,-3.4623196125030518
1761132713190965200,5.37596533203125,-12.212477684020996,-3.892522096633911,-4.832841396331787
1761132713200965000,5.385965087890625,-12.85041332244873,-4.535573959350586,-4.84664249420166
1761132713210965200,5.39596533203125,-13.275834083557129,-5.157482147216797,-3.9757583141326904
1761132713220965000,5.405965087890625,-13.821290016174316,-5.34401798248291,-2.655848979949951
1761132713230965200,5.41596533203125,-14.61124038696289,-5.461203098297119,-1.2187937498092651
1761132713240965000,5.425965087890625,-15.437040328979492,-5.633971691131592,-0.09394413232803345
1761132713250965200,5.43596533203125,-16.16139030456543,-5.805636405944824,0.983402669429779
1761132713260965000,5.445965087890625,-16.434574127197266,-5.931689262390137,1.7018895149230957
1761132713270966000,5.455966064453125,-16.45362663269043,-6.103496551513672,1.8965697288513184
1761132713280966100,5.465966064453125,-16.254047393798828,-6.386191368103027,1.7034692764282227
1761132713290966000,5.475966064453125,-15.54555892944336,-6.622077941894531,1.0796834230422974
1761132713300966100,5.485966064453125,-14.688699722290039,-6.976205825805664,0.6179795861244202
1761132713310966000,5.495966064453125,-13.71164321899414,-7.321096420288086,0.2730993628501892
1761132713320966100,5.505966064453125,-12.747354507446289,-7.607058525085449,0.08028554916381836
1761132713330966000,5.515966064453125,-11.786060333251953,-7.730921268463135,-0.0595126748085022
1761132713340966100,5.525966064453125,-10.877970695495605,-7.70993709564209,-0.1593172550201416
1761132713350966000,5.535966064453125,-10.23825454711914,-7.647294521331787,-0.12348449230194092
1761132713360966100,5.545966064453125,-9.730435371398926,-7.3741912841796875,-0.16882503032684326
1761132713370965200,5.55596533203125,-9.775136947631836,-7.018328666687012,-0.25070494413375854
1761132713380965400,5.56596533203125,-9.78292179107666,-6.985374450683594,-0.23404043912887573
1761132713390965200,5.57596533203125,-10.472917556762695,-6.609531402587891,0.29912495613098145
1761132713400965400,5.58596533203125,-10.478137969970703,-6.598490238189697,0.2779378890991211
1761132713410965200,5.59596533203125,-10.087888717651367,-5.906837463378906,1.336228847503662
1761132713420965400,5.60596533203125,-8.789974212646484,-5.399618148803711,1.2343159914016724
1761132713430965200,5.61596533203125,-7.044029235839844,-4.586698532104492,0.8880216479301453
1761132713440965000,5.625965087890625,-5.567801475524902,-3.7994253635406494,0.555238664150238
1761132713450965200,5.63596533203125,-3.8742146492004395,-2.640455484390259,0.9374093413352966
1761132713460965000,5.645965087890625,-0.23624229431152344,-0.27292847633361816,2.4784393310546875
1761132713470966000,5.655966064453125,4.035394668579102,1.9973971843719482,3.8536577224731445
1761132713480966100,5.665966064453125,7.324833869934082,4.665338516235352,4.6109442710876465
1761132713490966300,5.67596630859375,9.719082832336426,7.642143249511719,3.7652838230133057
1761132713500966100,5.685966064453125,11.70308780670166,10.887490272521973,1.990269422531128
1761132713510966300,5.69596630859375,15.686808586120605,13.456432342529297,0.9844239950180054
1761132713520966100,5.705966064453125,24.63766860961914,14.552295684814453,2.236955165863037
1761132713530966000,5.715966064453125,33.30592727661133,13.864078521728516,3.07175350189209
1761132713540966100,5.725966064453125,33.25945281982422,14.160036087036133,2.9798176288604736
1761132713550966000,5.735966064453125,46.080665588378906,10.656025886535645,3.6869056224823
1761132713560966100,5.745966064453125,47.180877685546875,9.966504096984863,3.277759075164795
1761132713570965200,5.75596533203125,41.634010314941406,10.220361709594727,2.087761402130127
1761132713580965400,5.76596533203125,32.38625717163086,10.502299308776855,0.9712815284729004
1761132713590965200,5.77596533203125,24.707195281982422,10.219104766845703,1.1657322645187378
1761132713600965400,5.78596533203125,18.31185531616211,9.058784484863281,1.512709379196167
1761132713610965200,5.79596533203125,12.838059425354004,7.368086814880371,2.0406339168548584
1761132713620965400,5.80596533203125,7.531834602355957,5.571789741516113,2.7187421321868896
1761132713630965200,5.81596533203125,1.8433570861816406,3.444769859313965,3.025876522064209
1761132713640965400,5.82596533203125,-2.0068187713623047,1.734057903289795,3.114375114440918
1761132713650965200,5.83596533203125,-4.44843053817749,-0.037953972816467285,2.702178478240967
1761132713660965400,5.84596533203125,-6.606955051422119,-1.747151494026184,1.5033302307128906
1761132713670966000,5.855966064453125,-8.950114250183105,-3.1968135833740234,0.08776634931564331
1761132713680966100,5.865966064453125,-11.213151931762695,-4.057025909423828,-0.973703145980835
1761132713690966000,5.875966064453125,-13.38599967956543,-4.804791450500488,-1.695868730545044
1761132713700966100,5.885966064453125,-14.486895561218262,-5.319142818450928,-1.8623853921890259
1761132713710966000,5.895966064453125,-15.486177444458008,-5.703287124633789,-1.6924976110458374
1761132713720966100,5.905966064453125,-15.93552017211914,-5.912383079528809,-1.204152226448059
1761132713730966300,5.91596630859375,-15.647035598754883,-5.992133617401123,-0.2929973006248474
1761132713740966100,5.925966064453125,-15.057696342468262,-5.987301826477051,0.6926143169403076
1761132713750966300,5.93596630859375,-14.864633560180664,-5.99045467376709,1.399509310722351
1761132713760966100,5.945966064453125,-15.295247077941895,-6.042814254760742,1.4560835361480713
1761132713770965200,5.95596533203125,-15.24743938446045,-6.173989772796631,1.45294988155365
1761132713780965400,5.96596533203125,-16.094783782958984,-6.2833333015441895,0.8117623925209045
1761132713790965200,5.97596533203125,-15.778648376464844,-6.488655090332031,0.6625546216964722
1761132713800965400,5.98596533203125,-14.822211265563965,-6.52150821685791,0.6028788089752197
1761132713810965200,5.99596533203125,-13.460334777832031,-6.508915424346924,0.34801357984542847
1761132713820965400,6.00596533203125,-12.30494213104248,-6.379486083984375,0.16795378923416138
1761132713830965200,6.01596533203125,-11.572071075439453,-6.348188400268555,-0.013184189796447754
1761132713840965400,6.02596533203125,-11.220279693603516,-6.284976959228516,-0.23968857526779175
1761132713850965200,6.03596533203125,-11.01610279083252,-6.115839004516602,-0.6782536506652832
1761132713860965400,6.04596533203125,-10.5026216506958,-6.029050827026367,-1.2263329029083252
1761132713870966000,6.055966064453125,-9.771181106567383,-5.910417556762695,-1.6667485237121582
1761132713880966100,6.065966064453125,-9.041463851928711,-5.798285484313965,-1.9190049171447754
1761132713890966000,6.075966064453125,-8.673263549804688,-5.71372127532959,-1.8000669479370117
1761132713900966100,6.085966064453125,-8.779415130615234,-5.445701599121094,-1.3889005184173584
1761132713910966000,6.095966064453125,-8.75823974609375,-5.078990936279297,-0.7685831785202026
1761132713920966100,6.105966064453125,-8.285099029541016,-4.655953407287598,-0.10023149847984314
1761132713930966000,6.115966064453125,-7.782476902008057,-4.34791374206543,0.18201853334903717
1761132713940966100,6.125966064453125,-6.541245460510254,-3.9814047813415527,-0.09611049294471741
1761132713950966000,6.135966064453125,-4.794839859008789,-3.5461769104003906,-0.9998637437820435
1761132713960966100,6.145966064453125,-3.0338568687438965,-3.083622932434082,-1.7803516387939453
1761132713970965200,6.15596533203125,-0.7554779052734375,-2.4234602451324463,-2.2207190990448
1761132713980965400,6.16596533203125,2.369935989379883,-0.8764108419418335,-2.2476255893707275
1761132713990965200,6.17596533203125,5.9825639724731445,0.8413350582122803,-1.8866993188858032
1761132714000965400,6.18596533203125,10.695785522460938,2.7115728855133057,-1.936435341835022
1761132714010965200,6.19596533203125,14.462682723999023,4.619584560394287,-2.3646016120910645
1761132714020965000,6.205965087890625,16.735523223876953,6.422242164611816,-2.9872705936431885
1761132714030965200,6.21596533203125,19.865158081054688,8.56234073638916,-3.2173478603363037
1761132714050965200,6.23596533203125,24.957719802856445,9.387401580810547,-1.8086142539978027
1761132714060965000,6.245965087890625,35.04020309448242,6.634536266326904,0.4457539916038513
1761132714080966000,6.2659658203125,38.41127395629883,4.866025924682617,-0.34526824951171875
1761132714090966000,6.275966064453125,37.06592559814453,2.3048901557922363,-2.9883499145507812
1761132714100966000,6.2859658203125,31.5476131439209,2.101787567138672,-3.3536136150360107
1761132714110966000,6.295966064453125,23.061908721923828,2.2201602458953857,-2.64129638671875
1761132714120966000,6.3059658203125,13.960470199584961,2.964108467102051,-0.9080295562744141
1761132714130965500,6.315965576171875,6.309998512268066,3.989696979522705,1.3839540481567383
1761132714140965600,6.325965576171875,6.324719429016113,3.774139642715454,1.3696396350860596
1761132714150965500,6.335965576171875,-3.578253746032715,3.8375511169433594,5.532655239105225
1761132714160965600,6.345965576171875,-6.627938270568848,2.996493339538574,6.273660659790039
1761132714170964700,6.35596484375,-9.252389907836914,2.202747106552124,5.872476577758789
1761132714180964900,6.36596484375,-11.388962745666504,1.3630280494689941,4.557422637939453
1761132714190964700,6.37596484375,-12.560869216918945,1.046565055847168,2.2102549076080322
1761132714200964900,6.38596484375,-12.65506649017334,0.8769536018371582,0.21886122226715088
1761132714210964700,6.39596484375,-13.667104721069336,-1.587662935256958,0.6991838812828064
1761132714220964900,6.40596484375,-13.698925018310547,-2.202101230621338,-0.04107123613357544
1761132714230964700,6.41596484375,-13.173666954040527,-2.082672595977783,-1.272404432296753
1761132714240964900,6.42596484375,-12.924810409545898,-2.5789635181427,-1.3016287088394165
1761132714250964700,6.43596484375,-13.134685516357422,-2.913382053375244,-1.1299967765808105
1761132714260964900,6.44596484375,-13.105256080627441,-3.0060477256774902,-0.9365352988243103
1761132714270965500,6.455965576171875,-13.15739631652832,-3.6292638778686523,-0.11570882797241211
1761132714280965600,6.465965576171875,-14.728939056396484,-3.721189498901367,0.8807746171951294
1761132714290965800,6.4759658203125,-15.332061767578125,-3.6086413860321045,1.2273826599121094
1761132714300965600,6.485965576171875,-15.65127182006836,-3.6692042350769043,1.571248173713684
1761132714310965800,6.4959658203125,-15.792634963989258,-3.6263890266418457,1.7530231475830078
1761132714320965600,6.505965576171875,-15.70372200012207,-3.694538116455078,1.6134164333343506
1761132714330965800,6.5159658203125,-14.988662719726562,-3.774721622467041,1.5141711235046387
1761132714340965600,6.525965576171875,-13.741754531860352,-3.92732834815979,1.3440144062042236
1761132714350965800,6.5359658203125,-12.3218994140625,-4.170734882354736,0.9580800533294678
1761132714360965600,6.545965576171875,-11.012165069580078,-4.384937286376953,0.6434483528137207
1761132714370964700,6.55596484375,-9.75329303741455,-4.4372053146362305,0.4777490794658661
1761132714380964900,6.56596484375,-8.836982727050781,-4.440220832824707,0.47664690017700195
1761132714390964700,6.57596484375,-8.502215385437012,-4.438281536102295,0.6327694654464722
1761132714400964900,6.58596484375,-8.42903995513916,-4.232607364654541,0.6340466737747192
1761132714410964700,6.59596484375,-8.448393821716309,-4.057587623596191,0.3570731282234192
1761132714420964900,6.60596484375,-8.11153507232666,-3.949815273284912,-0.08438742160797119
1761132714430965200,6.61596533203125,-6.9244465827941895,-3.891200304031372,-0.6644368171691895
1761132714440965000,6.625965087890625,-4.736011028289795,-3.961005210876465,-1.1260013580322266
1761132714450965200,6.63596533203125,-2.570913791656494,-3.5156192779541016,-1.3169294595718384
1761132714460965000,6.645965087890625,-0.7763195037841797,-2.8713550567626953,-1.3154551982879639
1761132714470966000,6.655966064453125,0.9959268569946289,-1.8460237979888916,-1.2642968893051147
1761132714480966100,6.665966064453125,3.359421730041504,0.161879301071167,-1.258112907409668
1761132714490966300,6.67596630859375,7.361058235168457,2.618414878845215,-0.8390809297561646
1761132714500966100,6.685966064453125,13.352493286132812,5.183917045593262,-0.5195033550262451
1761132714510966300,6.69596630859375,19.056903839111328,6.555515289306641,-0.117684006690979
1761132714520966100,6.705966064453125,25.308488845825195,7.542302131652832,0.44008561968803406
1761132714530966000,6.715966064453125,31.30815887451172,7.209695816040039,2.6911461353302
1761132714540966100,6.725966064453125,36.477230072021484,6.025870323181152,5.515762805938721
1761132714550966000,6.735966064453125,39.07773971557617,5.157591819763184,6.582964897155762
1761132714560966100,6.745966064453125,37.457237243652344,5.547137260437012,5.74362850189209
1761132714570965200,6.75596533203125,32.690242767333984,6.562782287597656,4.419140815734863
1761132714580965400,6.76596533203125,25.84036636352539,7.929004669189453,3.5113940238952637
1761132714590965200,6.77596533203125,17.936763763427734,8.392569541931152,3.166029930114746
1761132714600965000,6.785965087890625,10.442171096801758,7.504206657409668,2.7785403728485107
1761132714610965200,6.79596533203125,3.5796546936035156,6.229019641876221,1.605133056640625
1761132714620965400,6.80596533203125,-0.4292106628417969,5.448331356048584,-0.013709723949432373
1761132714630965200,6.81596533203125,-2.5769476890563965,4.499322891235352,-0.992627739906311
1761132714640965000,6.825965087890625,-3.283813953399658,3.415773391723633,-1.5575001239776611
1761132714650965200,6.83596533203125,-3.2006726264953613,2.349407911300659,-1.8559839725494385
1761132714660965400,6.84596533203125,-3.328965663909912,1.493600845336914,-2.2944936752319336
1761132714670966000,6.855966064453125,-4.238814353942871,0.909673810005188,-2.932706117630005
1761132714680966100,6.865966064453125,-5.392793655395508,0.5381781458854675,-3.2154014110565186
1761132714690966300,6.87596630859375,-6.708377838134766,0.2289259433746338,-3.2768266201019287
1761132714700966100,6.885966064453125,-8.056741714477539,0.06702020764350891,-3.1666762828826904
1761132714710966300,6.89596630859375,-9.083527565002441,0.00723034143447876,-2.8712944984436035
1761132714720966100,6.905966064453125,-9.766493797302246,-0.14201757311820984,-2.2109246253967285
1761132714730966300,6.91596630859375,-10.369532585144043,-0.39279282093048096,-1.5565505027770996
1761132714740966100,6.925966064453125,-10.361534118652344,-0.525566577911377,-1.5693317651748657
1761132714750966300,6.93596630859375,-12.659433364868164,-1.1753586530685425,0.03160446882247925
1761132714760966100,6.945966064453125,-13.931514739990234,-1.252923607826233,0.9185620546340942
1761132714770965200,6.95596533203125,-15.207427024841309,-1.270696759223938,1.5353214740753174
1761132714780965400,6.96596533203125,-16.226627349853516,-1.262583613395691,1.850484848022461
1761132714790965200,6.97596533203125,-16.50641632080078,-1.2953683137893677,1.7978509664535522
1761132714800965400,6.98596533203125,-16.007680892944336,-1.4284000396728516,1.4233851432800293
1761132714810965200,6.99596533203125,-14.788226127624512,-1.622563123703003,0.8206477761268616
1761132714820965400,7.00596533203125,-12.903708457946777,-1.8079577684402466,-0.02867019921541214
1761132714830965200,7.01596533203125,-11.021737098693848,-1.871699571609497,-0.9392504096031189
1761132714840965400,7.02596533203125,-9.39765453338623,-1.9697906970977783,-1.5779881477355957
1761132714850965200,7.03596533203125,-8.062140464782715,-1.692669153213501,-1.937469720840454
1761132714860965400,7.04596533203125,-7.2265095710754395,-1.2081255912780762,-1.8735153675079346
1761132714870966000,7.055966064453125,-6.250726222991943,-0.751606285572052,-1.61641526222229
1761132714880966100,7.065966064453125,-5.082129001617432,-0.2642272710800171,-1.3631106615066528
1761132714890966000,7.075966064453125,-3.9933724403381348,0.05197584629058838,-1.0798721313476562
1761132714900966100,7.085966064453125,-3.0134634971618652,0.10002028942108154,-0.9195225834846497
1761132714910966000,7.095966064453125,-2.304689884185791,0.18326294422149658,-0.9030368328094482
1761132714920966100,7.105966064453125,-1.718672752380371,0.36345136165618896,-0.9169229865074158
1761132714930966000,7.115966064453125,-0.5996313095092773,0.02662050724029541,-0.951781153678894
1761132714940966100,7.125966064453125,1.5689544677734375,-0.3413696885108948,-1.0700174570083618
1761132714950966000,7.135966064453125,4.070547103881836,-0.6739184856414795,-0.7966620922088623
1761132714960966100,7.145966064453125,4.070683479309082,-0.6747714281082153,-0.7990448474884033
1761132714970965200,7.15596533203125,7.511508941650391,-1.8926427364349365,-0.08449622988700867
1761132714980965000,7.165965087890625,8.542739868164062,-1.3799381256103516,-0.05477195605635643
1761132714990965200,7.17596533203125,9.825782775878906,0.07345044612884521,0.06395219266414642
1761132715000965000,7.185965087890625,12.88473892211914,0.9387009143829346,0.409559965133667
1761132715010965200,7.19596533203125,17.80190658569336,0.475658655166626,0.41794395446777344
1761132715020965000,7.205965087890625,23.595619201660156,-0.7315350770950317,0.31259045004844666
1761132715030965000,7.215965087890625,27.013076782226562,-1.917675256729126,0.741100013256073
1761132715040965000,7.225965087890625,27.275455474853516,-2.515475273132324,0.619892954826355
1761132715050965000,7.235965087890625,25.3354434967041,-2.1476893424987793,-0.1912679672241211
1761132715060965000,7.245965087890625,22.472352981567383,-1.1022249460220337,-0.9174408316612244
1761132715070966000,7.255966064453125,18.899288177490234,0.22437644004821777,-0.8827091455459595
1761132715080966000,7.2659658203125,15.025164604187012,1.6390488147735596,-0.31593191623687744
1761132715090966000,7.275966064453125,12.026162147521973,2.621206521987915,0.27978771924972534
1761132715100966000,7.2859658203125,8.935357093811035,2.9824883937835693,0.8177984952926636
1761132715110966000,7.295966064453125,6.107082366943359,2.998508930206299,1.5620300769805908
1761132715120966000,7.3059658203125,3.6344127655029297,2.899935245513916,2.8389413356781006
1761132715130966000,7.315966064453125,1.4104442596435547,3.0748660564422607,3.8806660175323486
1761132715140966000,7.3259658203125,-0.14965152740478516,3.5060839653015137,4.088740348815918
1761132715150966000,7.335966064453125,-2.3028788566589355,3.7730987071990967,3.6185591220855713
1761132715160966000,7.3459658203125,-4.881859302520752,3.9319958686828613,3.087824821472168
1761132715170965200,7.35596533203125,-7.192449569702148,3.929734945297241,2.39129900932312
1761132715180965000,7.365965087890625,-8.857206344604492,3.668003559112549,1.5430588722229004
1761132715190965200,7.37596533203125,-10.143815994262695,2.8856348991394043,0.7546491026878357
1761132715200965000,7.385965087890625,-11.18147087097168,2.1839096546173096,0.5803881287574768
1761132715210965200,7.39596533203125,-11.63068962097168,2.0754764080047607,0.3358359634876251
1761132715220965000,7.405965087890625,-10.972514152526855,2.4088237285614014,-1.219006896018982
1761132715230965200,7.41596533203125,-11.244915008544922,1.140682339668274,0.5197826623916626
1761132715240965000,7.425965087890625,-11.832643508911133,0.3485790491104126,1.3925812244415283
1761132715250965200,7.43596533203125,-13.001152992248535,0.4555123746395111,1.1705119609832764
1761132715260965000,7.445965087890625,-14.324274063110352,0.16667553782463074,0.7076115608215332
1761132715270966000,7.455966064453125,-15.43602180480957,0.11116212606430054,0.10083037614822388
1761132715280966100,7.465966064453125,-16.22376823425293,-0.5901076793670654,0.34338390827178955
1761132715290966000,7.475966064453125,-16.63368034362793,-1.2167575359344482,0.557723879814148
1761132715300966100,7.485966064453125,-16.456167221069336,-1.286778450012207,0.2708098292350769
1761132715310966000,7.495966064453125,-15.491065979003906,-1.1160643100738525,-0.2677842378616333
1761132715320966100,7.505966064453125,-14.228803634643555,-1.2816685438156128,0.06842899322509766
1761132715330966000,7.515966064453125,-12.580513954162598,-1.4002270698547363,0.8172289133071899
1761132715340966100,7.525966064453125,-10.873360633850098,-1.2382481098175049,1.4116978645324707
1761132715350966000,7.535966064453125,-9.804027557373047,-1.1271783113479614,1.9542115926742554
1761132715360966100,7.545966064453125,-9.433115005493164,-1.00995671749115,2.3217296600341797
1761132715370965500,7.555965576171875,-9.141061782836914,-0.9125721454620361,2.4678993225097656
1761132715380965400,7.56596533203125,-8.736294746398926,-0.7439514398574829,2.0726704597473145
1761132715390965500,7.575965576171875,-6.406655311584473,-0.844586968421936,1.6122322082519531
1761132715400965400,7.58596533203125,-3.1984572410583496,-1.0106903314590454,1.2224552631378174
1761132715410965500,7.595965576171875,-0.09757041931152344,-0.9882833361625671,1.155381441116333
1761132715420965400,7.60596533203125,3.1530447006225586,-0.9731624722480774,1.407698631286621
1761132715430965500,7.615965576171875,5.789306640625,-0.5150195360183716,1.5485398769378662
1761132715440965400,7.62596533203125,7.431785583496094,0.3236042857170105,1.1650118827819824
1761132715450965500,7.635965576171875,8.24443244934082,1.2816672325134277,0.9713032245635986
1761132715460965400,7.64596533203125,8.383809089660645,2.21099853515625,1.2354450225830078
1761132715470966300,7.65596630859375,7.067163467407227,3.5137338638305664,1.555550456047058
1761132715480966400,7.66596630859375,6.223862648010254,5.9200334548950195,3.6109538078308105
1761132715490966300,7.67596630859375,7.983315467834473,6.904654502868652,7.6993207931518555
1761132715500966400,7.68596630859375,13.025580406188965,5.688500881195068,12.285202026367188
1761132715510966300,7.69596630859375,20.440753936767578,3.0656750202178955,13.435760498046875
1761132715520966400,7.70596630859375,24.495567321777344,1.171865463256836,10.024547576904297
1761132715530966300,7.71596630859375,26.11707305908203,-1.5838497877120972,8.326144218444824
1761132715540966400,7.72596630859375,25.483596801757812,-0.6512728333473206,4.368234634399414
1761132715550966300,7.73596630859375,22.322509765625,0.9147248864173889,1.1642751693725586
1761132715560966400,7.74596630859375,17.90304946899414,1.3065540790557861,-0.22639155387878418
1761132715570965500,7.755965576171875,14.159123420715332,1.730436086654663,-1.0795512199401855
1761132715580965400,7.76596533203125,10.918097496032715,1.969069480895996,-1.5727699995040894
1761132715590965500,7.775965576171875,7.227121353149414,2.0152087211608887,-1.662529468536377
1761132715600965400,7.78596533203125,3.1694507598876953,2.24476957321167,-1.6578389406204224
1761132715610965500,7.795965576171875,-0.0746622085571289,1.9507977962493896,-2.14357852935791
1761132715620965400,7.80596533203125,-3.135112762451172,1.8600802421569824,-1.527363896369934
1761132715630965500,7.815965576171875,-5.328828811645508,2.083940267562866,-0.875211238861084
1761132715640965400,7.82596533203125,-6.590944290161133,1.8983747959136963,-0.16937386989593506
1761132715650932200,7.83593212890625,-7.164857387542725,1.6432651281356812,0.2665325403213501
1761132715660898800,7.84589892578125,-6.663190841674805,1.7992607355117798,-1.767885684967041
1761132715670866000,7.855865966796875,-7.4608049392700195,1.3537862300872803,0.072287917137146
1761132715680832800,7.865832763671875,-8.86046028137207,3.1990487575531006,-0.6680451035499573
1761132715690799400,7.87579931640625,-9.261075019836426,3.4273171424865723,-0.34948354959487915
1761132715700766000,7.885765869140625,-8.127320289611816,0.5965039730072021,2.347409963607788
1761132715710732800,7.89573291015625,-5.998014450073242,-1.9623019695281982,4.765138626098633
1761132715720699400,7.905699462890625,-2.8542871475219727,-2.7869367599487305,3.7635128498077393
1761132715730666000,7.915666015625,-0.027963638305664062,-1.6618716716766357,0.9131842851638794
1761132715740632800,7.9256328125,0.9035568237304688,-0.30168259143829346,-1.404826045036316
1761132715750599400,7.935599365234375,0.010526657104492188,0.10926508903503418,-2.348566770553589
1761132715760566000,7.94556591796875,-2.7320332527160645,-0.6020324230194092,-1.8531978130340576
1761132715770531800,7.95553173828125,-2.6771483421325684,-0.8212345838546753,-1.9473177194595337
1761132715780498700,7.965498779296875,-3.929798126220703,-1.1501610279083252,-1.8762519359588623
1761132715790465300,7.97546533203125,-4.409284591674805,-1.3565940856933594,-2.295774221420288
1761132715800431900,7.985431884765625,-4.520064830780029,-0.8854321241378784,-3.0260820388793945
1761132715810398500,7.9953984375,-2.5077314376831055,-1.2286309003829956,-3.0323379039764404
1761132715820365300,8.005365234375,-1.0056991577148438,-2.069662570953369,-1.8666998147964478
1761132715830332000,8.015331787109375,-0.8560209274291992,-3.0607361793518066,-0.6750205755233765
1761132715840298500,8.025298583984375,-1.2608623504638672,-3.470755100250244,-0.2309037446975708
1761132715850265300,8.035265380859375,-1.313751220703125,-3.235471248626709,-0.2870408296585083
1761132715860232000,8.04523193359375,-1.1396913528442383,-2.8665874004364014,-0.21668720245361328
1761132715870199600,8.055199462890625,-0.5831880569458008,-2.734905242919922,-0.0569918155670166
1761132715880166100,8.065166259765626,-0.6465091705322266,-2.4849205017089844,0.011628389358520508
1761132715890132700,8.0751328125,1.1464290618896484,-1.8988691568374634,-0.5584440231323242
1761132715900099300,8.085099365234376,2.428037643432617,-0.9886886477470398,-1.276855230331421
1761132715910066200,8.095066162109376,4.04058837890625,-0.3962228298187256,-1.715660572052002
1761132715920032800,8.10503271484375,4.414874076843262,-0.6936062574386597,-1.836120843887329
1761132715929999400,8.114999267578124,3.4520673751831055,-1.335082769393921,-1.7513580322265625
1761132715939966200,8.12496630859375,1.667597770690918,-1.1225460767745972,-2.0372424125671387
1761132715949966000,8.134966064453126,-0.061310768127441406,-0.42783600091934204,-2.416839838027954
1761132715959966200,8.14496630859375,-1.0579109191894531,0.09500235319137573,-2.8661537170410156
1761132715969965300,8.15496533203125,-1.0560455322265625,-0.03444951772689819,-2.632448434829712
1761132715979965200,8.164965087890625,-1.9065556526184082,0.5329392552375793,-3.56079363822937
1761132715989965300,8.17496533203125,-2.4015579223632812,0.8066890239715576,-3.2330820560455322
1761132715999965200,8.184965087890625,-2.5836501121520996,0.7072862386703491,-2.6521859169006348
1761132716009965300,8.19496533203125,-1.9801883697509766,0.20984458923339844,-2.245615005493164
1761132716019965200,8.204965087890624,-1.2119617462158203,0.06929779052734375,-2.2260329723358154
1761132716029965000,8.214965087890626,-1.2943611145019531,-0.07994616031646729,-1.990413784980774
1761132716039965200,8.224965087890626,-1.2775468826293945,-0.36955857276916504,-1.5545759201049805
1761132716049965000,8.234965087890625,-1.185114860534668,0.1491410732269287,-1.3334096670150757
1761132716059965200,8.244965087890625,-1.247054100036621,0.5856233835220337,-0.8574434518814087
1761132716069965800,8.2549658203125,-1.3073749542236328,0.7954205274581909,-0.200807124376297
1761132716079966000,8.264966064453125,-0.7893228530883789,0.9858667850494385,0.12348306179046631
1761132716089966000,8.274966064453125,0.048412322998046875,1.0690720081329346,0.027078554034233093
1761132716099966000,8.284966064453124,0.5578603744506836,0.8596692085266113,-0.35261377692222595
1761132716109966000,8.294966064453124,0.6908082962036133,0.637349009513855,-0.9913686513900757
1761132716119966000,8.304966064453126,0.5067148208618164,0.6095038652420044,-1.3625361919403076
1761132716129966000,8.314966064453126,0.047351837158203125,0.8496779203414917,-1.3497599363327026
1761132716139966000,8.324966064453125,-0.49315738677978516,1.230692744255066,-1.0473731756210327
1761132716149966000,8.334966064453125,-0.8739748001098633,1.3655325174331665,-0.6182766556739807
1761132716159966000,8.344966064453125,-1.067647933959961,1.2990341186523438,-0.5271669626235962
1761132716169965000,8.354965087890625,-0.8131294250488281,1.239137887954712,-0.8337788581848145
1761132716179965200,8.364965087890624,-0.5699996948242188,1.130386233329773,-0.8993492126464844
1761132716199965200,8.384965087890626,-0.732142448425293,0.7973419427871704,-0.7826495170593262
1761132716209965000,8.394965087890625,-0.6973142623901367,0.8308013677597046,-0.8241581320762634
1761132716219965200,8.404965087890625,-0.7115364074707031,0.8212376832962036,-0.6918327212333679
1761132716229965000,8.414965087890625,-1.1288480758666992,0.6567484140396118,-0.5762410163879395
1761132716239965200,8.424965087890625,-0.5893173217773438,0.293570876121521,-0.2610294818878174
1761132716249965000,8.434965087890625,-0.8886747360229492,0.7763696908950806,-1.0643117427825928
1761132716259965200,8.444965087890624,-1.3222408294677734,0.8839304447174072,-1.6606488227844238
1761132716269966000,8.454966064453124,-0.973179817199707,0.6924896240234375,-1.357585072517395
1761132716279966000,8.464966064453124,-0.1259775161743164,0.31003594398498535,0.0107344388961792
1761132716289966000,8.474966064453126,0.6793231964111328,0.10160279273986816,1.2188646793365479
1761132716299966000,8.484966064453126,1.0494651794433594,0.28690648078918457,1.7564700841903687
