time,seconds_elapsed,z,y,x
1761132969565420300,0.077420166015625,1.1408735513687134,0.3719957768917084,0.46643584966659546
1761132969585268200,0.097268310546875,1.1322251558303833,0.414795845746994,0.27037569880485535
1761132969605115400,0.117115478515625,1.1415038108825684,0.5267773270606995,-0.09246715158224106
1761132969624963300,0.13696337890625,1.1228588819503784,0.6866446733474731,-0.5021849274635315
1761132969644811300,0.156811279296875,1.109052062034607,0.8501548767089844,-0.9300259947776794
1761132969664659200,0.1766591796875,1.1063743829727173,0.8080452680587769,-1.36689293384552
1761132969684506000,0.196506103515625,0.9651952981948853,0.586214005947113,-1.563952088356018
1761132969704354000,0.21635400390625,0.845099687576294,0.2463364154100418,-1.2934889793395996
1761132969724202200,0.2362021484375,0.7313939929008484,0.0481441468000412,-0.7529733777046204
1761132969744050000,0.2560498046875,0.7204573154449463,-0.08091838657855988,-0.2877865135669708
1761132969763897000,0.27589697265625,0.7818427085876465,-0.14169952273368835,-0.10005787014961243
1761132969783745000,0.2957451171875,0.8560930490493774,-0.03781350329518318,-0.09113997966051102
1761132969803593200,0.31559326171875,0.9757196307182312,0.17546133697032928,-0.11830325424671173
1761132969823441200,0.335441162109375,1.0872392654418945,0.42934733629226685,-0.08024157583713531
1761132969843288000,0.3552880859375,1.174833059310913,0.5622710585594177,0.03858010470867157
1761132969863136000,0.375135986328125,1.2338570356369019,0.5627605319023132,0.2450229525566101
1761132969882984200,0.394984130859375,1.2737034559249878,0.4138640761375427,0.47161227464675903
1761132969902832000,0.41483203125,1.227303147315979,0.320099800825119,0.5672652125358582
1761132969922679000,0.434678955078125,1.0694077014923096,0.23408262431621552,0.3677678108215332
1761132969942527000,0.45452685546875,0.8725458979606628,0.16965314745903015,-0.08616597205400467
1761132969962375200,0.474375244140625,0.6507408022880554,0.17817145586013794,-0.5123567581176758
1761132969982223000,0.49422314453125,0.6026895046234131,0.35753265023231506,-0.7344343662261963
1761132970002070000,0.514070068359375,0.6358897089958191,0.44270139932632446,-0.7936422228813171
1761132970021918000,0.53391796875,0.626707911491394,0.4786221981048584,-0.6892583966255188
1761132970041766100,0.55376611328125,0.5734158754348755,0.3966861665248871,-0.5119578242301941
1761132970061613000,0.573613037109375,0.41289541125297546,0.29845309257507324,-0.25197452306747437
1761132970081461000,0.5934609375,0.2860306203365326,0.24672000110149384,0.05440768599510193
1761132970101309200,0.61330908203125,0.33421167731285095,0.1268307864665985,0.2613524794578552
1761132970121157000,0.6331572265625,0.4613114595413208,0.035259783267974854,0.2755684554576874
1761132970141004000,0.653004150390625,0.6079347133636475,0.09695219248533249,0.14756561815738678
1761132970160852000,0.67285205078125,0.7486317753791809,0.25154638290405273,-0.030651358887553215
1761132970180700200,0.6927001953125,0.7708978056907654,0.34771037101745605,-0.17910556495189667
1761132970200548000,0.712548095703125,0.66116863489151,0.37485751509666443,-0.2574326694011688
1761132970220395000,0.73239501953125,0.5227985382080078,0.4411051869392395,-0.27594709396362305
1761132970240243000,0.752242919921875,0.40561220049858093,0.4465583264827728,-0.27244850993156433
1761132970260091100,0.772091064453125,0.308443158864975,0.30326154828071594,-0.22708460688591003
1761132970279939000,0.79193896484375,0.24625466763973236,0.11629624664783478,-0.13413500785827637
1761132970299786000,0.811785888671875,0.1521916687488556,-0.15246400237083435,-0.07445406168699265
1761132970319634000,0.831634033203125,0.006095289718359709,-0.36544269323349,-0.06433343887329102
1761132970339482000,0.851482177734375,-0.14376898109912872,-0.4085889756679535,-0.05154192075133324
1761132970359330300,0.871330322265625,-0.2020930051803589,-0.2986535429954529,-0.00925099290907383
1761132970379177200,0.89117724609375,-0.20333871245384216,-0.21334269642829895,-0.007983017712831497
1761132970399025000,0.91102490234375,-0.20501160621643066,-0.1170668825507164,-0.006618071347475052
1761132970418873000,0.930873046875,-0.22443018853664398,-0.013350943103432655,0.0747712254524231
1761132970438721300,0.95072119140625,-0.2539120018482208,0.17195139825344086,0.21734413504600525
1761132970458568200,0.970568115234375,-0.23872444033622742,0.2618555426597595,0.2776084542274475
1761132970478416000,0.990415771484375,-0.2330305576324463,0.1400732845067978,0.2624092400074005
1761132970498264000,1.01026416015625,-0.25934097170829773,0.026590358465909958,0.24395042657852173
1761132970518112000,1.030112060546875,-0.23907586932182312,-0.021095212548971176,0.22253890335559845
1761132970537959200,1.049959228515625,-0.16450729966163635,-0.0812021791934967,0.14558292925357819
1761132970557806800,1.069806884765625,-0.06600446999073029,-0.24425053596496582,0.024747909978032112
1761132970577655000,1.089655029296875,0.034584708511829376,-0.40055716037750244,-0.0292385034263134
1761132970597502000,1.109501953125,0.1247270256280899,-0.5272683501243591,-0.0026579764671623707
1761132970617350100,1.12935009765625,0.19719864428043365,-0.5788775086402893,0.06158041954040527
1761132970637198000,1.149197998046875,0.2325005829334259,-0.5511019825935364,0.11742855608463287
1761132970657046000,1.1690458984375,0.2396622896194458,-0.44076406955718994,0.14759601652622223
1761132970676894000,1.18889404296875,0.25016894936561584,-0.27883461117744446,0.15139082074165344
1761132970696742000,1.208741943359375,0.2830330431461334,-0.15090321004390717,0.11852829903364182
1761132970716589800,1.22858984375,0.3137502372264862,-0.10603449493646622,0.09791538119316101
1761132970736438000,1.24843798828125,0.3480681777000427,-0.10696204751729965,0.10338088870048523
1761132970756285000,1.268284912109375,0.32521364092826843,-0.11986644566059113,0.14775946736335754
1761132970776132900,1.2881328125,0.27334821224212646,-0.12853549420833588,0.19326885044574738
1761132970795981000,1.30798095703125,0.18625886738300323,-0.1757039725780487,0.178294837474823
1761132970815829000,1.3278291015625,0.07544460147619247,-0.2587544620037079,0.10004706680774689
1761132970835676000,1.347676025390625,-0.04298609495162964,-0.3631163239479065,-0.012679466977715492
1761132970855523800,1.36752392578125,-0.19550931453704834,-0.44494909048080444,-0.1378020942211151
1761132970875372000,1.3873720703125,-0.32506489753723145,-0.32632261514663696,-0.22406166791915894
1761132970895220000,1.407219970703125,-0.2806733548641205,-0.0599636472761631,-0.2699892520904541
1761132970915067000,1.42706689453125,-0.0545848049223423,0.19380345940589905,-0.2963640093803406
1761132970934914800,1.446914794921875,0.14931383728981018,0.2620960772037506,-0.3592609167098999
1761132970954763000,1.466762939453125,0.20320847630500793,0.14822839200496674,-0.4379584491252899
1761132970974610000,1.48660986328125,0.13512694835662842,-0.051069777458906174,-0.49024856090545654
1761132970994457900,1.506457763671875,0.05855640023946762,-0.2868582308292389,-0.4432642161846161
1761132971014305800,1.526305908203125,0.048770420253276825,-0.3433215022087097,-0.24758151173591614
1761132971034154000,1.546154052734375,0.04448939859867096,-0.2628757655620575,0.020441604778170586
1761132971054001000,1.5660009765625,-0.0025458105374127626,-0.09221793711185455,0.2373173087835312
1761132971073849000,1.58584912109375,-0.06995127350091934,0.025220079347491264,0.28015580773353577
1761132971093696800,1.60569677734375,-0.17598772048950195,0.09935985505580902,0.16393928229808807
1761132971113545000,1.625544921875,-0.32171618938446045,0.1652652770280838,-0.04513084515929222
1761132971133392000,1.645391845703125,-0.4740118682384491,0.307474285364151,-0.26884233951568604
1761132971153240000,1.665239990234375,-0.5359992980957031,0.4072701036930084,-0.4736213684082031
1761132971173087700,1.685087646484375,-0.48528245091438293,0.4490310251712799,-0.6371704339981079
1761132971192936000,1.70493603515625,-0.29742392897605896,0.42106887698173523,-0.6965957880020142
1761132971212782800,1.724782958984375,-0.04431888088583946,0.351337730884552,-0.6101914644241333
1761132971232631000,1.744631103515625,0.15537697076797485,0.2792372405529022,-0.36632561683654785
1761132971252478700,1.764478759765625,0.26244857907295227,0.15390008687973022,-0.1198149099946022
1761132971272327000,1.784326904296875,0.31801968812942505,0.11753488332033157,0.05091847851872444
1761132971292173800,1.804173828125,0.3371496796607971,0.12468418478965759,0.14990144968032837
1761132971312022000,1.82402197265625,0.37786367535591125,0.037490930408239365,0.1802329421043396
1761132971331870000,1.843869873046875,0.4006190896034241,-0.1953418254852295,0.10924991965293884
1761132971351717000,1.863717041015625,0.3399391770362854,-0.40589573979377747,-0.005696306936442852
1761132971371564800,1.883564697265625,0.2596183121204376,-0.49778833985328674,-0.06486847251653671
1761132971391413000,1.9034130859375,0.23963668942451477,-0.3368130028247833,0.034872934222221375
1761132971411261000,1.923260986328125,0.24978359043598175,-0.05874503403902054,0.23172521591186523
1761132971431108000,1.943108154296875,0.2865287661552429,0.07856040447950363,0.3918762803077698
1761132971450955800,1.962955810546875,0.29519563913345337,0.07823964208364487,0.4913603961467743
1761132971470804000,1.982803955078125,0.27830201387405396,0.07031290233135223,0.5340064764022827
1761132971490652000,2.00265185546875,0.2328907549381256,0.05522744730114937,0.47901651263237
1761132971510499000,2.0224990234375,0.10915574431419373,-0.08441895246505737,0.31089767813682556
1761132971530346800,2.0423466796875,-0.0111382519826293,-0.12658096849918365,0.17639099061489105
1761132971550195000,2.06219482421875,-0.05702059715986252,-0.14874327182769775,0.10430771857500076
1761132971570043000,2.08204296875,0.007776242680847645,-0.09043443948030472,0.09687909483909607
1761132971589890000,2.10189013671875,0.1517169326543808,0.09866198897361755,0.1199784129858017
1761132971609738000,2.121738037109375,0.29664674401283264,0.22056765854358673,0.09891842305660248
1761132971629586000,2.1415859375,0.41192010045051575,0.24116796255111694,0.05706559121608734
1761132971649433900,2.161433837890625,0.49348950386047363,0.2491077035665512,0.008436460979282856
1761132971669281000,2.181281005859375,0.6074246168136597,0.17628298699855804,-0.05537612363696098
1761132971689129000,2.20112890625,0.6943994760513306,0.12263107299804688,-0.00930111389607191
1761132971708977000,2.220976806640625,0.6400416493415833,0.13428953289985657,0.12800726294517517
1761132971728823800,2.24082373046875,0.532874584197998,0.25454285740852356,0.2593974769115448
1761132971748672000,2.260672119140625,0.4395640790462494,0.37798425555229187,0.315475732088089
1761132971768520000,2.28052001953125,0.4221280515193939,0.2825823128223419,0.2781899571418762
1761132971788368000,2.300367919921875,0.4316611886024475,-0.02365337312221527,0.18403063714504242
1761132971808214800,2.32021484375,0.44399508833885193,-0.35258859395980835,0.09148024022579193
1761132971828063000,2.34006298828125,0.39696577191352844,-0.5496605038642883,-0.0011236565187573433
1761132971847911000,2.359910888671875,0.23478072881698608,-0.7232920527458191,-0.15203604102134705
1761132971867759000,2.379759033203125,0.05127939209342003,-0.850225031375885,-0.32812514901161194
1761132971887606000,2.39960595703125,-0.14851851761341095,-0.7888368368148804,-0.4102186858654022
1761132971907454000,2.419453857421875,-0.2601507008075714,-0.39753973484039307,-0.405204176902771
1761132971927302000,2.439302001953125,-0.17392700910568237,0.22964859008789062,-0.4021832048892975
1761132971947150000,2.459150146484375,0.028196167200803757,0.6866340041160583,-0.39388707280158997
1761132971966997000,2.4789970703125,0.10785561800003052,0.8400307893753052,-0.3352344036102295
1761132971986845000,2.498844970703125,0.09285290539264679,0.8079030513763428,-0.27978113293647766
1761132972006692900,2.51869287109375,0.009624427184462547,0.5684680938720703,-0.25699979066848755
1761132972026540000,2.5385400390625,-0.0999840572476387,0.14529702067375183,-0.22920088469982147
1761132972046388000,2.558387939453125,-0.17503271996974945,-0.17841272056102753,-0.0978354811668396
1761132972066236000,2.57823583984375,-0.15016649663448334,-0.26467201113700867,0.131293386220932
1761132972086083800,2.598083740234375,-0.01691269315779209,-0.23597323894500732,0.3684924244880676
1761132972105931000,2.617930908203125,0.1591101586818695,-0.21896839141845703,0.5583987236022949
1761132972125779000,2.637779052734375,0.229282945394516,-0.07816306501626968,0.660101592540741
1761132972145627100,2.657627197265625,0.13131240010261536,-0.05920738726854324,0.5742194056510925
1761132972165474800,2.677474853515625,-0.12665177881717682,-0.10853699594736099,0.2908678948879242
1761132972185322000,2.697322021484375,-0.3592410683631897,-0.17783966660499573,-0.07931128144264221
1761132972205170000,2.717169921875,-0.27648213505744934,0.013971945270895958,-0.2620042562484741
1761132972225018000,2.73701806640625,0.020268285647034645,0.31757429242134094,-0.25924304127693176
1761132972244865800,2.75686572265625,0.30263805389404297,0.279516339302063,-0.22085365653038025
1761132972264713000,2.776712890625,0.3502580523490906,0.0037848125211894512,-0.1589394360780716
1761132972284561000,2.796560791015625,0.2242998480796814,-0.16459502279758453,-0.11121417582035065
1761132972304409000,2.8164091796875,0.13573269546031952,-0.13502492010593414,-0.1377052366733551
1761132972324256000,2.836256103515625,0.14391960203647614,-0.14599233865737915,-0.1426606923341751
1761132972344104000,2.85610400390625,0.22156941890716553,-0.33463382720947266,-0.04703389108181
1761132972363951900,2.875951904296875,0.22417116165161133,-0.38232240080833435,0.14990422129631042
1761132972383800000,2.895800048828125,0.09147671610116959,-0.30482298135757446,0.24925145506858826
1761132972403647000,2.91564697265625,-0.1018429771065712,-0.14236533641815186,0.13136042654514313
1761132972423495200,2.9354951171875,-0.3212204575538635,0.09962073713541031,-0.20803512632846832
1761132972443342800,2.9553427734375,-0.4786534309387207,0.3640720248222351,-0.636803388595581
1761132972463191000,2.97519091796875,-0.47458434104919434,0.5837274789810181,-0.9193282723426819
1761132972483038000,2.995037841796875,-0.3392980694770813,0.6456466913223267,-0.9810291528701782
1761132972502886100,3.01488623046875,-0.15801188349723816,0.6137186884880066,-0.8249017000198364
1761132972522733800,3.03473388671875,0.0025053236167877913,0.5928217768669128,-0.483948677778244
1761132972542582000,3.05458203125,0.09029174596071243,0.5508118867874146,-0.13014452159404755
1761132972562429000,3.074428955078125,0.12286882102489471,0.4256744086742401,0.07451227307319641
1761132972582277000,3.094277099609375,0.12210569530725479,0.2855543792247772,0.10668149590492249
1761132972602125000,3.114125,0.1115926057100296,0.14858314394950867,0.049432530999183655
1761132972621972000,3.133971923828125,0.07194460183382034,0.019481901079416275,-0.009939158335328102
1761132972641820000,3.15381982421875,0.046928487718105316,-0.14343217015266418,-0.029596887528896332
1761132972661668000,3.173668212890625,0.08790861070156097,-0.24974989891052246,0.04770980775356293
1761132972681516000,3.19351611328125,0.13968046009540558,-0.19350792467594147,0.2018144279718399
1761132972701363000,3.213363037109375,0.1775001734495163,-0.09677136689424515,0.35782262682914734
1761132972721211000,3.2332109375,0.227950781583786,-0.04288608208298683,0.47112128138542175
1761132972741058800,3.253058837890625,0.28853264451026917,-0.0022720147389918566,0.4969436228275299
1761132972760907000,3.272906982421875,0.30071184039115906,-0.09253330528736115,0.44043347239494324
1761132972780754000,3.29275390625,0.3042358160018921,-0.036484841257333755,0.453550785779953
1761132972800601900,3.312601806640625,0.32130149006843567,0.1378735899925232,0.5389599800109863
1761132972820449800,3.33244970703125,0.336812287569046,0.2507653832435608,0.5865238308906555
1761132972840296700,3.352296630859375,0.3737040162086487,0.292167067527771,0.5101805329322815
1761132972860145000,3.372144775390625,0.358086496591568,0.1875460296869278,0.27542057633399963
1761132972879993000,3.3919931640625,0.30107560753822327,0.09853874146938324,-0.021446920931339264
1761132972899840800,3.4118408203125,0.2782859206199646,0.02462976798415184,-0.24602390825748444
1761132972919687700,3.431687744140625,0.35853832960128784,0.017917446792125702,-0.27057600021362305
1761132972939536000,3.451535888671875,0.5247597098350525,0.16148710250854492,-0.07796571403741837
1761132972959384000,3.471384033203125,0.6290004253387451,0.4236922264099121,0.2159333974123001
1761132972979231700,3.491231689453125,0.528437077999115,0.550014078617096,0.28240981698036194
1761132972999078700,3.51107861328125,0.3107665777206421,0.5412793755531311,0.05384894832968712
1761132973018926800,3.5309267578125,0.17009249329566956,0.4896754324436188,-0.24044294655323029
1761132973038775000,3.550775146484375,0.19731110334396362,0.3612607419490814,-0.3898749053478241
1761132973058622700,3.570622802734375,0.3092691898345947,0.21282364428043365,-0.32738107442855835
1761132973078469600,3.5904697265625,0.31720617413520813,0.014360668137669563,-0.157743901014328
1761132973098317800,3.61031787109375,0.23172412812709808,-0.1780403107404709,0.04748430848121643
1761132973118166000,3.630166015625,0.20263458788394928,-0.2780441343784332,0.17073078453540802
1761132973138013000,3.650012939453125,0.17781898379325867,-0.2411939650774002,0.10134265571832657
1761132973157860900,3.66986083984375,0.17294283211231232,-0.1622118204832077,-0.12011135369539261
1761132973177708800,3.689708740234375,0.24061354994773865,-0.02911083959043026,-0.2809661328792572
1761132973197557000,3.709556884765625,0.3238046169281006,0.10818573087453842,-0.2632698714733124
1761132973217404000,3.72940380859375,0.3674687147140503,0.18059630692005157,-0.10051140189170837
1761132973237251800,3.749251953125,0.3788248598575592,0.11230238527059555,0.07900039851665497
1761132973257099800,3.769099853515625,0.35347044467926025,-0.05123601108789444,0.1603633612394333
1761132973276947700,3.78894775390625,0.2744218707084656,-0.20804467797279358,0.12352150678634644
1761132973296795000,3.808794921875,0.1957058310508728,-0.2310851365327835,0.04651375859975815
1761132973316642800,3.828642822265625,0.13190649449825287,-0.2068261057138443,0.043959297239780426
1761132973336490800,3.84849072265625,0.09417657554149628,-0.1768035590648651,0.13300664722919464
1761132973356337700,3.868337646484375,0.10245222598314285,-0.11807572841644287,0.26133063435554504
1761132973376185900,3.888185791015625,0.08392084389925003,-0.1260986030101776,0.22639021277427673
1761132973396033800,3.90803369140625,-0.029006952419877052,-0.239512100815773,0.059001706540584564
1761132973415882000,3.927882080078125,-0.19618915021419525,-0.2889047861099243,-0.10462012887001038
1761132973435729000,3.94772900390625,-0.23789376020431519,-0.30385303497314453,-0.19563327729701996
1761132973455576800,3.967576904296875,-0.15240252017974854,-0.23427918553352356,-0.10335035622119904
1761132973475424800,3.9874248046875,-0.029679996892809868,-0.1069602370262146,0.13267984986305237
1761132973495273000,4.00727294921875,0.05699533596634865,-0.05397449806332588,0.302050918340683
1761132973515119900,4.027119873046875,0.08442842960357666,-0.11430531740188599,0.3592416048049927
1761132973534967800,4.0469677734375,0.046466682106256485,-0.2168215811252594,0.3676203191280365
1761132973554814700,4.066814697265625,-0.019339732825756073,-0.3786943852901459,0.3353883922100067
1761132973574663000,4.086662841796875,-0.08153922855854034,-0.4867280423641205,0.29938778281211853
1761132973594510800,4.1065107421875,-0.19694800674915314,-0.497482568025589,0.2475310117006302
1761132973614358800,4.12635888671875,-0.3605814278125763,-0.39775675535202026,0.12368010729551315
1761132973634205700,4.146205810546875,-0.5340023636817932,-0.18508191406726837,-0.08345387876033783
1761132973654054000,4.166053955078125,-0.6475751399993896,0.11705063283443451,-0.3998264670372009
1761132973673901800,4.18590185546875,-0.6306679248809814,0.32482144236564636,-0.7808730006217957
1761132973693748000,4.205748046875,-0.5411526560783386,0.42270904779434204,-0.9819335341453552
1761132973713596200,4.22559619140625,-0.3439190983772278,0.37849730253219604,-0.944605827331543
1761132973733444000,4.245444091796875,-0.11333286762237549,0.2909833490848541,-0.6938198804855347
1761132973753292000,4.2652919921875,0.05872064456343651,0.2657509446144104,-0.3129655718803406
1761132973773139000,4.285138916015625,0.13375292718410492,0.2767636477947235,0.025982040911912918
1761132973792987100,4.304987060546875,0.12784382700920105,0.22813019156455994,0.19746436178684235
1761132973812835000,4.3248349609375,0.05245006084442139,0.08680693805217743,0.18720966577529907
1761132973832683000,4.34468310546875,-0.07811550796031952,-0.1090841144323349,0.0369570255279541
1761132973852530000,4.364530029296875,-0.13307063281536102,-0.2328508347272873,-0.13185255229473114
1761132973872378000,4.384378173828125,-0.1083165779709816,-0.20200935006141663,-0.19117534160614014
1761132973892227000,4.40422705078125,-0.029893727973103523,-0.029594894498586655,-0.10260888189077377
1761132973912074000,4.424073974609375,0.11013330519199371,0.1702757626771927,0.11724702268838882
1761132973931922000,4.443921875,0.23080040514469147,0.3159991502761841,0.3641412556171417
1761132973951770000,4.46377001953125,0.2653432786464691,0.3100391626358032,0.5307216644287109
1761132973971618000,4.4836181640625,0.3127238154411316,0.3105747401714325,0.6086970567703247
1761132973991465200,4.50346533203125,0.34268176555633545,0.27108198404312134,0.5715364813804626
1761132974011313000,4.52331298828125,0.21290551126003265,-0.04223321005702019,0.40968382358551025
1761132974031161000,4.5431611328125,0.13424618542194366,-0.09814607352018356,0.27706214785575867
1761132974051009300,4.56300927734375,0.07494841516017914,-0.13485658168792725,0.15447808802127838
1761132974070856200,4.582856201171875,0.10781457275152206,-0.13421395421028137,0.10093138366937637
1761132974090704000,4.602703857421875,0.15890492498874664,-0.056578394025564194,0.1107245609164238
1761132974110552000,4.622552001953125,0.19309251010417938,0.016411835327744484,0.07100220024585724
1761132974130399000,4.64239892578125,0.22141461074352264,0.12385065853595734,0.06967059522867203
1761132974150247200,4.6622470703125,0.2873589098453522,0.4133622348308563,0.22971197962760925
1761132974170094800,4.6820947265625,0.4205934703350067,0.6831533908843994,0.4233124852180481
1761132974189943000,4.701943115234375,0.5124679803848267,0.6816778779029846,0.5059131979942322
1761132974209790000,4.7217900390625,0.4664221405982971,0.3989417254924774,0.46664491295814514
1761132974229638100,4.74163818359375,0.22586093842983246,0.021485798060894012,0.37654003500938416
1761132974249486000,4.761486083984375,-0.0775718092918396,-0.24884025752544403,0.2979356050491333
1761132974269334000,4.781333984375,-0.28644859790802,-0.3165871798992157,0.2419038712978363
1761132974289181000,4.801180908203125,-0.4530060589313507,-0.31300151348114014,0.1364758163690567
1761132974309029000,4.821029052734375,-0.6019060015678406,-0.3647880554199219,-0.05112583190202713
1761132974328877000,4.840876953125,-0.6847212314605713,-0.3386237621307373,-0.2396119087934494
1761132974348725000,4.86072509765625,-0.7373313307762146,-0.18134212493896484,-0.4016477167606354
1761132974368572000,4.880572021484375,-0.7592524290084839,-0.07386709004640579,-0.5024421215057373
1761132974388420000,4.900420166015625,-0.7688022255897522,-0.07861872017383575,-0.4167739152908325
1761132974408268000,4.92026806640625,-0.7737184762954712,-0.08983548730611801,-0.11091072857379913
1761132974428116000,4.940115966796875,-0.8213019371032715,-0.15356305241584778,0.195471853017807
1761132974447963000,4.959962890625,-0.9353777766227722,-0.2530420124530792,0.34380149841308594
1761132974467811000,4.97981103515625,-1.1029512882232666,-0.3943677842617035,0.32648766040802
1761132974487659000,4.999658935546875,-1.268648624420166,-0.5001765489578247,0.2252928763628006
1761132974507506200,5.019506103515625,-1.4461930990219116,-0.5564616918563843,0.09579412639141083
1761132974527354000,5.03935400390625,-1.6700482368469238,-0.5867881774902344,0.013197758235037327
1761132974547202000,5.0592021484375,-1.8643519878387451,-0.5803670287132263,0.02281472273170948
1761132974567050000,5.079050048828125,-1.933324933052063,-0.45507848262786865,0.1110219657421112
1761132974586897200,5.098897216796875,-1.9227567911148071,-0.2571682035923004,0.2508479058742523
1761132974606745000,5.1187451171875,-1.8757182359695435,-0.0493568480014801,0.395002156496048
1761132974626593000,5.138593017578125,-1.8909002542495728,-0.022050799801945686,0.4915820062160492
1761132974646441000,5.15844091796875,-2.0189082622528076,-0.15811462700366974,0.5305135846138
1761132974666288000,5.1782880859375,-2.234689235687256,-0.3291401267051697,0.5007732510566711
1761132974686136600,5.198136474609375,-2.433367967605591,-0.36918196082115173,0.3465406000614166
1761132974705984500,5.217984619140625,-2.547187566757202,-0.38296908140182495,-0.0003531733527779579
1761132974725831400,5.23783154296875,-2.5012199878692627,-0.3783794939517975,-0.392137348651886
1761132974745679600,5.2576796875,-2.3289408683776855,-0.272946834564209,-0.6163399815559387
1761132974765527600,5.277527587890625,-2.105792999267578,-0.15058466792106628,-0.5508759617805481
1761132974785375500,5.29737548828125,-1.8677184581756592,-0.11257769167423248,-0.20789605379104614
1761132974805222400,5.317222412109375,-1.6936041116714478,-0.19590690732002258,0.20360241830348969
1761132974825070600,5.337070556640625,-1.6025224924087524,-0.30279481410980225,0.5562432408332825
1761132974844918500,5.35691845703125,-1.5691412687301636,-0.5019749402999878,0.7771844267845154
1761132974864766700,5.3767666015625,-1.582656741142273,-0.7070214748382568,0.8345189690589905
1761132974884613600,5.396613525390625,-1.6183141469955444,-0.7769783139228821,0.730245053768158
1761132974904461600,5.416461669921875,-1.6438262462615967,-0.7356356382369995,0.5395466685295105
1761132974924309500,5.4363095703125,-1.6308649778366089,-0.595587968826294,0.3266932964324951
1761132974944156700,5.45615673828125,-1.5357786417007446,-0.4704873263835907,0.05657387152314186
1761132974964004600,5.476004638671875,-1.426798939704895,-0.3573731482028961,-0.23929022252559662
1761132974983852500,5.4958525390625,-1.3087501525878906,-0.1830153912305832,-0.4486005902290344
1761132975003700500,5.515700439453125,-1.1853601932525635,0.008546508848667145,-0.5231332778930664
1761132975023547600,5.535547607421875,-1.1023741960525513,0.3258165717124939,-0.45591339468955994
1761132975043395600,5.5553955078125,-1.0709054470062256,0.6746074557304382,-0.2674150764942169
1761132975063243500,5.575243408203125,-1.0691280364990234,0.7407518029212952,-0.0721174106001854
1761132975083091500,5.595091552734375,-1.054835319519043,0.5247094035148621,0.06304358690977097
1761132975102938600,5.614938720703125,-0.9985271096229553,0.2595285475254059,0.17803704738616943
1761132975122786600,5.63478662109375,-0.8996237516403198,0.032756514847278595,0.31346577405929565
1761132975142634800,5.654634765625,-0.7983093857765198,-0.022349843755364418,0.5253739356994629
1761132975162482400,5.674482421875,-0.7625986337661743,-0.04354618862271309,0.6958187222480774
1761132975182329600,5.69432958984375,-0.7773172855377197,0.024912545457482338,0.7356785535812378
1761132975202177500,5.714177490234375,-0.8488245010375977,0.04127516224980354,0.5815291404724121
1761132975222025700,5.734025634765625,-0.9788807034492493,0.015143309719860554,0.3303578794002533
1761132975241872600,5.75387255859375,-1.1323151588439941,-0.01965213194489479,0.11148454248905182
1761132975261720600,5.773720458984375,-1.2452820539474487,-0.04839914292097092,0.010999413207173347
1761132975281568500,5.793568603515625,-1.2970789670944214,-0.047067925333976746,0.01173616573214531
1761132975301416700,5.813416748046875,-1.3120347261428833,-0.1010875254869461,0.06853321194648743
1761132975321263600,5.833263671875,-1.3012439012527466,-0.2506019175052643,0.13647136092185974
1761132975341111600,5.853111572265625,-1.2573193311691284,-0.42507079243659973,0.21387217938899994
1761132975360959500,5.87295947265625,-1.2165600061416626,-0.579948365688324,0.24698498845100403
1761132975380807700,5.8928076171875,-1.1928801536560059,-0.680427074432373,0.21453101933002472
1761132975400654600,5.912654541015625,-1.1961307525634766,-0.7567993402481079,0.14886528253555298
1761132975420502800,5.932502685546875,-1.241958737373352,-0.8054099678993225,0.09270476549863815
1761132975440350500,5.9523505859375,-1.292370319366455,-0.8025728464126587,0.05520837381482124
1761132975460197400,5.972197265625,-1.3006173372268677,-0.7589790225028992,0.03395027667284012
1761132975480045600,5.992045654296875,-1.2753698825836182,-0.726822555065155,-0.0031907567754387856
1761132975499893800,6.011893798828125,-1.2284775972366333,-0.8095751404762268,-0.08250201493501663
1761132975519741400,6.031741455078125,-1.2089089155197144,-0.981685221195221,-0.11199969798326492
1761132975539588400,6.05158837890625,-1.212986946105957,-1.0234766006469727,-0.006854950450360775
1761132975559436500,6.0714365234375,-1.2142231464385986,-0.8741078972816467,0.13937363028526306
1761132975579284700,6.09128466796875,-1.2147114276885986,-0.6975885033607483,0.2105664163827896
1761132975599132400,6.11113232421875,-1.214263916015625,-0.5099565386772156,0.1934799998998642
1761132975618979300,6.130979248046875,-1.2240463495254517,-0.4750046730041504,0.09064512699842453
1761132975638827500,6.15082763671875,-1.2527797222137451,-0.5260007381439209,0.0004561091773211956
1761132975658675700,6.17067578125,-1.2519112825393677,-0.5966491103172302,-0.06592347472906113
1761132975678524200,6.190524169921875,-1.217941403388977,-0.6452234387397766,-0.13939200341701508
1761132975698371000,6.21037109375,-1.1284332275390625,-0.5383412837982178,-0.18962672352790833
1761132975718219300,6.23021923828125,-0.9949672222137451,-0.4185006320476532,-0.1601250171661377
1761132975738067200,6.250067138671875,-0.8640162348747253,-0.35660114884376526,-0.018260810524225235
1761132975757914400,6.269914306640625,-0.7621292471885681,-0.46064382791519165,0.13174837827682495
1761132975777762000,6.289761962890625,-0.7209914922714233,-0.7744818329811096,0.2030397206544876
1761132975797610200,6.3096103515625,-0.7694056630134583,-1.0355545282363892,0.28124621510505676
1761132975817458200,6.329458251953125,-0.8638497591018677,-1.105570912361145,0.3364592492580414
1761132975837305000,6.34930517578125,-0.9416639804840088,-1.0416150093078613,0.2936832904815674
1761132975857153300,6.3691533203125,-0.9919707179069519,-0.8985029458999634,0.15548092126846313
1761132975877001200,6.389001220703125,-1.0338754653930664,-0.7233350276947021,-0.025778014212846756
1761132975896849200,6.40884912109375,-1.0727142095565796,-0.49722060561180115,-0.16228677332401276
1761132975916696000,6.428696044921875,-1.1375116109848022,-0.2844415307044983,-0.24993421137332916
1761132975936544300,6.448544189453125,-1.1699893474578857,-0.19148647785186768,-0.35087376832962036
1761132975956392200,6.46839208984375,-1.1278462409973145,-0.20382162928581238,-0.41109439730644226
1761132975976239000,6.488239013671875,-1.0433530807495117,-0.16916687786579132,-0.40652701258659363
1761132975996087000,6.508087158203125,-0.9694927334785461,-0.12663808465003967,-0.31103402376174927
1761132976015935200,6.527935302734375,-0.8854142427444458,-0.11509061604738235,-0.17294429242610931
1761132976035783200,6.547783203125,-0.8192455172538757,-0.2028152197599411,-0.08974194526672363
1761132976055630000,6.567630126953125,-0.7762417793273926,-0.3076082170009613,-0.062417592853307724
1761132976075478000,6.58747802734375,-0.7472873330116272,-0.34873875975608826,-0.08066743612289429
1761132976095326200,6.607326171875,-0.7094692587852478,-0.444697767496109,-0.13731737434864044
1761132976115174400,6.62717431640625,-0.6339321136474609,-0.47436168789863586,-0.11960063129663467
1761132976135021300,6.647021240234375,-0.5732306241989136,-0.4239877462387085,-0.048091866075992584
1761132976154869000,6.666868896484375,-0.5865875482559204,-0.4296239912509918,0.028925318270921707
1761132976174717200,6.68671728515625,-0.6475794911384583,-0.3053165674209595,0.13977327942848206
1761132976194565400,6.7065654296875,-0.7199869155883789,-0.3038153052330017,0.18551965057849884
1761132976214412300,6.726412353515625,-0.8229197859764099,-0.39610227942466736,0.12499835342168808
1761132976234260000,6.746260009765625,-0.8929527997970581,-0.22787517309188843,-0.16965773701667786
1761132976254108200,6.766108154296875,-0.8272309899330139,0.19721883535385132,-0.6018487215042114
1761132976273955000,6.785955078125,-0.793812096118927,0.569031834602356,-0.417406290769577
1761132976293803300,6.80580322265625,-0.7271898984909058,0.07602635025978088,-0.32803797721862793
1761132976313651200,6.825651123046875,-0.7347418069839478,-0.3762141168117523,-0.2259335219860077
1761132976333499100,6.8454990234375,-0.6777174472808838,-0.5976718068122864,-0.12894421815872192
1761132976353346000,6.865345947265625,-0.5637193918228149,-0.6533578038215637,-0.021572180092334747
1761132976373194200,6.8851943359375,-0.4759020209312439,-0.4457489550113678,0.34506770968437195
