time,seconds_elapsed,z,y,x
1761134009251414000,0.0124140625,0.04145912453532219,-0.0116195697337389,0.37466534972190857
1761134009271260000,0.032260009765625,0.09693141281604767,0.009333766996860504,0.2786526381969452
1761134009291107000,0.052107177734375,0.16964130103588104,0.059588730335235596,0.2216932624578476
1761134009310954000,0.0719541015625,0.29556429386138916,0.2839718461036682,0.264608234167099
1761134009330800000,0.091800048828125,0.42816320061683655,0.4196128249168396,0.3191036581993103
1761134009350647300,0.111647216796875,0.4060318171977997,0.5421160459518433,0.4131389856338501
1761134009370493200,0.1314931640625,0.28125429153442383,0.6291154026985168,0.5692442655563354
1761134009390340000,0.151340087890625,0.2184385061264038,0.31181466579437256,0.7392961382865906
1761134009410186000,0.17118603515625,0.07340974360704422,-0.5470491051673889,0.6795473694801331
1761134009430033200,0.191033203125,-0.06647858768701553,-0.9983857870101929,0.41753461956977844
1761134009449879300,0.21087939453125,0.1077982634305954,-0.7061580419540405,0.13347578048706055
1761134009469726200,0.230726318359375,0.3416348099708557,-0.11617732793092728,-0.254179984331131
1761134009489573000,0.250572998046875,0.41598519682884216,0.360770583152771,-0.5912717580795288
1761134009509419300,0.270419189453125,0.3881567120552063,0.6444189548492432,-0.6846721768379211
1761134009529266200,0.29026611328125,0.35648760199546814,0.6710588335990906,-0.6320714354515076
1761134009549112000,0.310112060546875,0.2812884747982025,0.4512435495853424,-0.599897563457489
1761134009568959200,0.329959228515625,0.16833961009979248,0.4053157567977905,-0.6002271771430969
1761134009588805000,0.34980517578125,0.11769771575927734,0.4823521375656128,-0.7114701867103577
1761134009608652000,0.369652099609375,0.08468665927648544,0.4477527439594269,-0.9031218886375427
1761134009628498200,0.389498291015625,0.06478309631347656,0.2903520464897156,-1.0691168308258057
1761134009648345300,0.409345458984375,0.01422471459954977,0.07132887095212936,-1.2076140642166138
1761134009668191200,0.429191162109375,-0.06022351607680321,-0.12113968282938004,-1.3549365997314453
1761134009688038100,0.4490380859375,-0.11493267863988876,-0.17045174539089203,-1.5073719024658203
1761134009707883500,0.468883544921875,-0.10479384660720825,0.005969947669655085,-1.6344939470291138
1761134009727730400,0.48873046875,0.023205701261758804,0.3384479582309723,-1.5895898342132568
1761134009747577300,0.508577392578125,0.1913682073354721,0.5982762575149536,-1.2526432275772095
1761134009767423500,0.528423583984375,0.2823137640953064,0.6484352350234985,-0.7819074988365173
1761134009787270700,0.548270751953125,0.2763294279575348,0.4953226149082184,-0.3912537693977356
1761134009807116500,0.568116455078125,0.22379089891910553,0.26393136382102966,-0.16840769350528717
1761134009826963500,0.58796337890625,0.22067205607891083,0.0981966182589531,-0.04688537120819092
1761134009846809300,0.607809326171875,0.264224648475647,-0.06899403035640717,-0.04709871858358383
1761134009866656500,0.627656494140625,0.3151683807373047,-0.1407085657119751,-0.06772461533546448
1761134009886502400,0.64750244140625,0.4382268190383911,0.06447581201791763,-0.05544029548764229
1761134009906349300,0.667349365234375,0.45127931237220764,0.3440060317516327,-0.05772332847118378
1761134009926196500,0.687196533203125,0.41036880016326904,0.5467239618301392,-0.013509925454854965
1761134009946042600,0.707042724609375,0.38239502906799316,0.8024178147315979,0.034388963133096695
1761134009965889500,0.7268896484375,0.43603190779685974,0.8040202260017395,0.10310816764831543
1761134009985735400,0.7467353515625,0.4009350836277008,0.3695816695690155,0.21279644966125488
1761134010005582600,0.76658251953125,0.3658006489276886,-0.23909291625022888,0.5337044596672058
1761134010025428500,0.786428466796875,0.38818803429603577,-0.6712736487388611,0.8881595730781555
1761134010045275400,0.806275390625,0.4393468201160431,-0.751736581325531,1.048068642616272
1761134010065121500,0.82612158203125,0.44525107741355896,-0.62220698595047,1.0002440214157104
1761134010084968400,0.845968505859375,0.4027533531188965,-0.5250381231307983,0.8457593321800232
1761134010104815400,0.8658154296875,0.41155505180358887,-0.49261748790740967,0.7344168424606323
1761134010124661500,0.88566162109375,0.41559427976608276,-0.4170036315917969,0.7250514626502991
1761134010144508700,0.9055087890625,0.400810569524765,-0.33104535937309265,0.7877554893493652
1761134010164354600,0.9253544921875,0.3368190824985504,-0.2503351867198944,0.877913773059845
1761134010184201500,0.945201416015625,0.2344261258840561,-0.1265161633491516,0.9109680652618408
1761134010204047400,0.96504736328125,0.13976092636585236,-0.2510252892971039,0.7402006983757019
1761134010223894500,0.98489453125,0.11606719344854355,-0.3031451404094696,0.5799648761749268
1761134010243740700,1.00474072265625,0.0409189835190773,-0.34453660249710083,0.45032644271850586
1761134010263587600,1.024587646484375,-0.006208904553204775,-0.3554777503013611,0.36900055408477783
1761134010283433500,1.04443359375,-0.03451850265264511,-0.2826814353466034,0.31882786750793457
1761134010303280600,1.06428076171875,-0.07982272654771805,-0.26497316360473633,0.19567929208278656
1761134010323127600,1.08412744140625,-0.014948110096156597,-0.21476508677005768,0.04723793640732765
1761134010342973400,1.103973388671875,-0.0258479043841362,-0.22736509144306183,-0.02670186012983322
1761134010362820400,1.1238203125,-0.1123456135392189,-0.26140329241752625,-0.001446492038667202
1761134010382666500,1.14366650390625,-0.21858744323253632,-0.2792767584323883,0.04489809647202492
1761134010402513400,1.163513427734375,-0.2748229205608368,-0.2159281224012375,0.029425257816910744
1761134010422359600,1.183359619140625,-0.31351137161254883,-0.14293409883975983,-0.1268548220396042
1761134010442206700,1.203206787109375,-0.3087857961654663,-0.11958175152540207,-0.45621466636657715
1761134010462052600,1.223052490234375,-0.2516430914402008,0.009885678067803383,-0.8526386618614197
1761134010481899500,1.2428994140625,-0.25638630986213684,0.22253474593162537,-1.0934299230575562
1761134010501745400,1.262745361328125,-0.3143991529941559,0.3469209671020508,-1.180787444114685
1761134010521592600,1.282592529296875,-0.3976360559463501,0.49166953563690186,-1.0361764430999756
1761134010541439500,1.302439453125,-0.47634369134902954,0.44452589750289917,-0.756894052028656
1761134010561285400,1.322285400390625,-0.5576337575912476,0.2266918271780014,-0.42388543486595154
1761134010581132300,1.34213232421875,-0.6534687876701355,-0.0968329906463623,-0.09522494673728943
1761134010600978700,1.361978759765625,-0.778877854347229,-0.5338945388793945,0.18113255500793457
1761134010620825600,1.38182568359375,-0.8134748935699463,-0.8730764985084534,0.37218615412712097
1761134010640671500,1.40167138671875,-0.7556591629981995,-0.891744077205658,0.5444166660308838
1761134010660518400,1.421518310546875,-0.5933416485786438,-0.5953093767166138,0.6484426856040955
1761134010680364500,1.441364501953125,-0.28363749384880066,-0.17261579632759094,0.569667398929596
1761134010700211500,1.46121142578125,-0.016112597659230232,0.22894404828548431,0.37998470664024353
1761134010720059100,1.48105908203125,0.11694981902837753,0.5319820046424866,0.14636346697807312
1761134010739905000,1.500905029296875,0.15113304555416107,0.6422486305236816,-0.033095479011535645
1761134010759752000,1.520751953125,0.13065573573112488,0.5836724042892456,-0.10677023231983185
1761134010779598300,1.540598388671875,0.1115584746003151,0.36422982811927795,-0.11990201473236084
1761134010799445200,1.5604453125,0.08740421384572983,0.09546194225549698,-0.09439371526241302
1761134010819291100,1.580291015625,0.04088130593299866,-0.052598707377910614,-0.017869869247078896
1761134010839138000,1.600137939453125,-0.0007909699925221503,-0.13711212575435638,0.01753014512360096
1761134010858984200,1.619984130859375,-0.034974876791238785,-0.12204696238040924,0.04684257134795189
1761134010878831000,1.6398310546875,-0.053476497530937195,0.06425060331821442,0.09053041785955429
1761134010898677000,1.659677001953125,-0.0324803963303566,0.16568246483802795,0.08595755696296692
1761134010918524000,1.67952392578125,-0.0439341701567173,0.08399581164121628,0.10611972212791443
1761134010938371000,1.69937109375,-0.053886886686086655,-0.05331885442137718,0.15947359800338745
1761134010958217200,1.71921728515625,-0.025964204221963882,-0.10457931458950043,0.19971424341201782
1761134010978064100,1.739064208984375,0.08244763314723969,-0.1358916163444519,0.2024090588092804
1761134010997910000,1.758909912109375,0.24387896060943604,-0.004461929202079773,0.23780205845832825
1761134011017757200,1.778757080078125,0.4754357635974884,0.2660151720046997,0.3124001920223236
1761134011037603000,1.79860302734375,0.7152292728424072,0.3446768820285797,0.3553956151008606
1761134011057450000,1.818449951171875,0.8135266304016113,0.3205187916755676,0.29355335235595703
1761134011077296000,1.838296142578125,0.7877757549285889,0.498736709356308,0.17615379393100739
1761134011097143300,1.858143310546875,0.7507179379463196,0.4406243860721588,0.10778913646936417
1761134011116990200,1.877990234375,0.6717932820320129,0.5019432306289673,0.11785168945789337
1761134011136836000,1.897836181640625,0.5025108456611633,0.5309981107711792,0.06794048100709915
1761134011156683300,1.917683349609375,0.24789617955684662,0.5674567818641663,0.032039444893598557
1761134011176529200,1.937529052734375,0.16855089366436005,0.5799468159675598,-0.08346269279718399
1761134011196376000,1.9573759765625,0.15063628554344177,0.4856284558773041,-0.20763619244098663
1761134011216222000,1.977221923828125,0.10891351848840714,0.28303247690200806,-0.33818310499191284
1761134011236069000,1.997069091796875,0.07074020057916641,0.13394707441329956,-0.34539318084716797
1761134011255915300,2.016915283203125,0.03213578835129738,0.13204483687877655,-0.2824922502040863
1761134011275762200,2.03676220703125,0.034268222749233246,0.10104457288980484,-0.2051745057106018
1761134011295608000,2.056608154296875,0.02476060576736927,-0.0033811856992542744,-0.1406169831752777
1761134011315455200,2.076455322265625,-0.12047086656093597,-0.07558199763298035,0.013653459958732128
1761134011335302100,2.09630224609375,-0.3429730236530304,-0.09721323847770691,0.09637090563774109
1761134011355148000,2.11614794921875,-0.4198901355266571,-0.013679800555109978,0.07277812063694
1761134011374995200,2.1359951171875,-0.1471378058195114,0.34555673599243164,-0.11997319012880325
1761134011394841000,2.155841064453125,0.29014506936073303,1.0608750581741333,-0.3322564661502838
1761134011414688000,2.17568798828125,0.4112423360347748,1.644394874572754,-0.5223430395126343
1761134011434534100,2.1955341796875,-0.08864718675613403,1.2136778831481934,-0.5450651049613953
1761134011454381300,2.21538134765625,-0.6915198564529419,0.04271794855594635,-0.3023380637168884
1761134011474227200,2.235227294921875,-0.31138208508491516,0.279788613319397,0.24003291130065918
1761134011494074000,2.25507421875,0.35833173990249634,1.0298010110855103,0.6763079166412354
1761134011513921000,2.274921142578125,0.659343957901001,0.79535311460495,0.9530224800109863
1761134011533767200,2.29476708984375,0.5909421443939209,-0.05487314239144325,0.9306433796882629
1761134011553614000,2.314614013671875,0.3381458520889282,-1.012831687927246,0.772760808467865
1761134011573460200,2.334460205078125,0.1483505517244339,-1.5710657835006714,0.6786903142929077
1761134011593307100,2.35430712890625,0.04594803974032402,-1.5835527181625366,0.681604266166687
1761134011613153300,2.3741533203125,-0.14307241141796112,-1.2673567533493042,0.6068271994590759
1761134011633000200,2.394000244140625,-0.3911474645137787,-0.7925670146942139,0.49128514528274536
1761134011652846000,2.41384619140625,-0.4712972342967987,-0.17785093188285828,0.37370434403419495
1761134011672693000,2.43369287109375,-0.4630805552005768,0.29755163192749023,0.24349981546401978
1761134011692540200,2.4535400390625,-0.3998219966888428,0.7278821468353271,0.23965032398700714
1761134011712385500,2.473385498046875,-0.468696653842926,0.6360470056533813,0.23371709883213043
1761134011732232400,2.493232421875,-0.5726534128189087,0.43058663606643677,0.27686014771461487
1761134011752078600,2.51307861328125,-0.5717981457710266,0.12880194187164307,0.46300047636032104
1761134011771925500,2.532925537109375,-0.3145442008972168,-0.49170154333114624,0.9797826409339905
1761134011791771400,2.552771484375,-0.03016113117337227,-0.923599898815155,1.0589162111282349
1761134011811618600,2.57261865234375,0.17356030642986298,-0.6095991134643555,0.48581379652023315
1761134011831464400,2.59246435546875,0.1688411831855774,0.30351686477661133,-0.36729028820991516
1761134011851311400,2.612311279296875,0.060784172266721725,0.7730762362480164,-0.9183661341667175
1761134011871158500,2.632158447265625,-0.2530728280544281,0.2641863226890564,-1.7448351383209229
1761134011891004700,2.652004638671875,-0.6109499931335449,-0.09686800837516785,-1.870772361755371
1761134011910851600,2.6718515625,-0.7465146780014038,-0.22594934701919556,-1.5759750604629517
1761134011930697500,2.691697509765625,-0.9941929578781128,-0.5774679183959961,-2.2271807193756104
1761134011950544600,2.711544677734375,-0.7166556715965271,-0.3857874274253845,-3.0394883155822754
1761134011970390500,2.731390625,-0.1677951067686081,-0.6554083824157715,-3.1823887825012207
1761134011990237400,2.751237548828125,0.22292578220367432,-1.466875672340393,-2.3650741577148438
1761134012010083300,2.771083251953125,0.3403468430042267,-1.612553358078003,-1.449849009513855
1761134012029930500,2.790930419921875,0.1857137829065323,-1.2819987535476685,-0.9410834312438965
1761134012049777400,2.81077734375,-0.03422534838318825,-1.0484682321548462,-0.8334751725196838
1761134012069623600,2.83062353515625,-0.18352454900741577,-0.9153250455856323,-1.0806623697280884
1761134012089470500,2.850470458984375,-0.1042892262339592,-0.3738221526145935,-1.1768338680267334
1761134012109316600,2.870316650390625,0.08748485893011093,0.15263384580612183,-0.7764583826065063
1761134012129163500,2.89016357421875,0.29896798729896545,0.14779643714427948,0.06417679786682129
1761134012149009400,2.910009521484375,0.3989325761795044,-0.2812408208847046,0.5108869671821594
1761134012168856600,2.929856689453125,0.4477154612541199,-0.6741920709609985,0.3018184006214142
1761134012188702500,2.949702392578125,0.5237228870391846,-0.6557160019874573,-0.1436769962310791
1761134012208549400,2.96954931640625,0.5242878198623657,-0.22150743007659912,-0.3139427900314331
1761134012228396300,2.989396240234375,0.3657836318016052,0.1944308578968048,0.09769236296415329
1761134012248242700,3.00924267578125,0.1084066852927208,0.48016050457954407,0.7129865884780884
1761134012268089600,3.029089599609375,-0.12616118788719177,0.4024703800678253,0.747225284576416
1761134012287935500,3.048935546875,-0.2649638056755066,0.01139407604932785,0.06842371821403503
1761134012307782400,3.068782470703125,-0.14543354511260986,-0.12818600237369537,-0.6467140913009644
1761134012327628500,3.088628662109375,0.16340121626853943,-0.028776494786143303,-0.7596141695976257
1761134012347475500,3.108475341796875,0.43329524993896484,0.040545810014009476,-0.439737468957901
1761134012367321600,3.128321533203125,0.5392341613769531,-0.13333532214164734,-0.015756556764245033
1761134012387168500,3.14816845703125,0.498445987701416,-0.46993497014045715,0.319692999124527
1761134012407015700,3.168015625,0.30563825368881226,-0.5518590211868286,0.44247961044311523
1761134012426861600,3.187861572265625,0.014619136229157448,-0.3997216820716858,0.4536384344100952
1761134012446708500,3.20770849609375,-0.339303195476532,-0.23256097733974457,0.3893584609031677
1761134012466554400,3.227554443359375,-0.6090449690818787,-0.15472736954689026,0.2718643844127655
1761134012486401500,3.247401611328125,-0.677100419998169,-0.18022464215755463,0.25669699907302856
1761134012506247400,3.267247314453125,-0.5829439163208008,-0.20228444039821625,0.3797309100627899
1761134012526094300,3.28709423828125,-0.48638656735420227,-0.24205879867076874,0.551186740398407
1761134012545941500,3.30694140625,-0.425999253988266,-0.28143808245658875,0.7237142324447632
1761134012565787600,3.32678759765625,-0.3683549463748932,-0.25212764739990234,0.871566653251648
1761134012585634600,3.346634521484375,-0.14069826900959015,0.15866605937480927,0.6387897729873657
1761134012605480400,3.36648046875,-0.1788424551486969,0.8271074891090393,0.8868821263313293
1761134012625327600,3.38632763671875,-0.5201791524887085,0.6061873435974121,1.491795539855957
1761134012645173500,3.406173583984375,-0.695307731628418,0.20255815982818604,1.6440513134002686
1761134012665020400,3.4260205078125,-0.4575844705104828,0.09104817360639572,0.9258896112442017
1761134012684866300,3.4458662109375,-0.1476978361606598,0.30050209164619446,-0.04745965078473091
1761134012704713500,3.46571337890625,0.026345862075686455,0.9410354495048523,-0.3268697261810303
1761134012724561400,3.4855615234375,0.3097570538520813,1.4593901634216309,-0.10097172856330872
1761134012744407300,3.5054072265625,0.6514419317245483,1.100244164466858,0.5778394341468811
1761134012764254200,3.525254150390625,0.896806001663208,0.5048110485076904,1.0799100399017334
1761134012784100400,3.545100341796875,1.0430020093917847,0.18033671379089355,1.386692762374878
1761134012803947500,3.564947509765625,1.0033775568008423,0.18392175436019897,1.4132627248764038
1761134012823793400,3.58479345703125,0.661870539188385,-0.11509829759597778,1.270200490951538
1761134012843640300,3.604640380859375,0.29192543029785156,-0.7900916934013367,1.4223361015319824
1761134012863487500,3.624487548828125,0.03844832256436348,-1.485207200050354,1.7691404819488525
1761134012883333400,3.64433349609375,-0.1236882135272026,-1.7201181650161743,2.04719877243042
1761134012903180300,3.66418017578125,-0.28351733088493347,-1.2568413019180298,2.0155718326568604
1761134012923026400,3.6840263671875,-0.5609646439552307,-0.035184286534786224,1.610144853591919
1761134012942873600,3.70387353515625,-0.5309239029884338,0.8757969737052917,1.2543667554855347
1761134012962719500,3.723719482421875,-0.33909231424331665,1.2869536876678467,0.8367263674736023
1761134012982566400,3.74356640625,-0.08749888837337494,1.4868559837341309,0.44819819927215576
1761134013002412300,3.763412353515625,0.12343720346689224,1.4512909650802612,0.19917841255664825
1761134013022259500,3.783259521484375,0.26851770281791687,1.3780089616775513,0.024987410753965378
1761134013042106400,3.8031064453125,0.28456929326057434,1.292672872543335,-0.07804882526397705
1761134013061952300,3.8229521484375,0.20937301218509674,1.0512510538101196,-0.27338019013404846
1761134013081799200,3.842799072265625,-0.011730940081179142,1.1205410957336426,-0.48930439352989197
1761134013101645600,3.8626455078125,-0.14533834159374237,1.1736047267913818,-0.5673874616622925
1761134013121492500,3.882492431640625,-0.21618521213531494,0.785365641117096,-0.6246421933174133
1761134013141338400,3.90233837890625,-0.5215460062026978,-0.1412895917892456,-0.8238623738288879
1761134013161185300,3.922185302734375,-0.8345310688018799,-1.0857042074203491,-1.482018232345581
1761134013181032400,3.942032470703125,-1.0964744091033936,-1.2840557098388672,-2.443085193634033
1761134013200878300,3.96187841796875,-1.1270843744277954,-0.8502470850944519,-3.6751883029937744
1761134013220725200,3.981725341796875,-1.1183074712753296,-1.556440830230713,-5.081962585449219
1761134013240571400,4.0015712890625,-1.1467657089233398,-1.7869949340820312,-5.086512088775635
1761134013260418300,4.021418212890625,-1.0535292625427246,-0.7928792238235474,-4.208041667938232
1761134013280264400,4.041264404296875,-0.8704171776771545,-0.17884214222431183,-4.237636566162109
1761134013300111400,4.061111328125,-0.46461373567581177,-0.6466958522796631,-3.4300665855407715
1761134013319958500,4.08095849609375,-0.2171308696269989,-1.1641144752502441,-2.2256040573120117
1761134013339804400,4.100804443359375,-0.0527036115527153,-1.4737588167190552,-1.4693541526794434
1761134013359651300,4.1206513671875,0.16615284979343414,-1.4995797872543335,-1.127261996269226
1761134013379497200,4.140497314453125,0.2340242713689804,-1.2019169330596924,-1.10710871219635
1761134013399344400,4.160344482421875,0.04172665998339653,-0.6433523893356323,-1.3263870477676392
1761134013419190500,4.1801904296875,-0.23215389251708984,-0.07439929991960526,-1.5358766317367554
1761134013439037400,4.200037353515625,-0.1374872624874115,0.015550343319773674,-1.5446913242340088
1761134013458884400,4.21988427734375,0.2637746036052704,-0.5657221674919128,-1.2746576070785522
1761134013478730500,4.23973046875,0.2567942440509796,-0.7084917426109314,-0.7499881386756897
1761134013498577400,4.259577392578125,-0.008445828221738338,0.09463852643966675,-0.4804060161113739
1761134013518423300,4.27942333984375,-0.27664175629615784,0.953620970249176,-0.5707234740257263
1761134013538270500,4.2992705078125,-0.42084673047065735,1.0098496675491333,-0.5295819640159607
1761134013558116400,4.319116455078125,-0.5155696272850037,0.448588490486145,-0.11205679178237915
1761134013577963300,4.33896337890625,-0.5576082468032837,0.08875070512294769,0.7652603387832642
1761134013597809400,4.358809326171875,-0.565336287021637,0.12014684826135635,1.4051638841629028
1761134013617656600,4.378656494140625,-0.5975148677825928,0.2990487813949585,1.2685463428497314
1761134013637503500,4.39850341796875,-0.5541674494743347,0.39215680956840515,0.4296475648880005
1761134013657349400,4.418349365234375,-0.4616623520851135,0.2403281033039093,-0.5600506067276001
1761134013677196300,4.4381962890625,-0.3279327154159546,0.18562109768390656,-1.0196882486343384
1761134013697042400,4.45804248046875,-0.1119532659649849,0.17970146238803864,-0.9205461740493774
1761134013716888600,4.477888671875,0.09536030888557434,-0.00012485450133681297,-0.5704470276832581
1761134013736734700,4.497734619140625,0.17783889174461365,-0.282027930021286,-0.15580330789089203
1761134013756581600,4.51758154296875,0.18247608840465546,-0.39661696553230286,0.08358477056026459
1761134013776428800,4.5374287109375,0.10121823847293854,-0.145108163356781,0.20765039324760437
1761134013796274700,4.557274658203125,0.050898198038339615,0.19256408512592316,0.3595755398273468
1761134013816121600,4.57712158203125,0.0857539102435112,0.4696912169456482,0.548730731010437
1761134013835967500,4.596967529296875,0.19024275243282318,0.7798414826393127,0.7761416435241699
1761134013855814700,4.616814697265625,0.20775391161441803,1.066884160041809,0.8293165564537048
1761134013875660500,4.63666064453125,0.1915472149848938,1.1219898462295532,0.9948225021362305
1761134013895507500,4.656507568359375,0.11915009468793869,0.8492762446403503,1.0323635339736938
1761134013915354600,4.676354736328125,-0.04311974719166756,0.3884621560573578,0.9354320168495178
1761134013935200800,4.69620068359375,-0.2204883098602295,0.06044860556721687,0.7934073209762573
1761134013955047700,4.716047607421875,-0.36062631011009216,-0.11930941045284271,0.5803975462913513
1761134013974893600,4.7358935546875,-0.4168390929698944,-0.09995630383491516,0.2916449010372162
1761134013994740700,4.75574072265625,-0.40010619163513184,-0.24995024502277374,-0.16035200655460358
1761134014014586600,4.775586669921875,-0.2711412012577057,-0.027473462745547295,-0.11796367168426514
1761134014034433500,4.79543359375,-0.19912976026535034,0.7620900869369507,0.38739779591560364
1761134014054280400,4.815280517578125,-0.02828756719827652,1.2481263875961304,0.8498170971870422
1761134014074126800,4.835126953125,0.2867167890071869,1.3119175434112549,0.9855130314826965
1761134014093973800,4.854973876953125,0.517926812171936,1.3346662521362305,0.6649680137634277
1761134014113819600,4.874819580078125,0.651633083820343,1.5493708848953247,0.7806575298309326
1761134014133666600,4.89466650390625,0.7399574518203735,1.634456753730774,1.8373416662216187
1761134014153512700,4.9145126953125,1.0202031135559082,0.595776379108429,2.805591106414795
1761134014173359600,4.934359619140625,1.1119959354400635,-0.9056239724159241,3.0829355716705322
1761134014193206500,4.95420654296875,0.7897815108299255,-1.425858497619629,2.7583060264587402
1761134014213052400,4.974052490234375,0.40614864230155945,-1.0873637199401855,2.227862596511841
1761134014232899600,4.993899658203125,0.33257368206977844,-0.7730568647384644,1.7239878177642822
1761134014252745700,5.013745849609375,0.6300075650215149,-0.3982630968093872,1.7515568733215332
1761134014272592600,5.033592529296875,0.8844913840293884,0.07328733056783676,2.2597861289978027
1761134014292438800,5.053438720703125,1.1068758964538574,0.3788381516933441,2.876084089279175
1761134014312285700,5.07328564453125,1.111609935760498,0.3946627676486969,3.153125762939453
1761134014332131600,5.093131591796875,0.8425466418266296,0.37153077125549316,2.7752065658569336
1761134014351978500,5.112978515625,0.27798524498939514,0.6235750317573547,2.008129358291626
1761134014371824600,5.13282470703125,-0.05239080637693405,1.045301914215088,1.2118123769760132
1761134014391671600,5.152671630859375,-0.18277457356452942,1.2751599550247192,0.556036651134491
1761134014411518500,5.1725185546875,-0.296362966299057,1.4092472791671753,0.011967811733484268
1761134014431364600,5.192364501953125,-0.4054429531097412,1.312685489654541,-0.42828595638275146
1761134014451211800,5.212211669921875,-0.4710042476654053,0.8436490893363953,-0.799138069152832
1761134014471057700,5.2320576171875,-0.5455761551856995,0.19443951547145844,-0.74970543384552
1761134014490904600,5.251904541015625,-0.49128836393356323,-0.672299861907959,-0.14678379893302917
1761134014510750500,5.27175048828125,-0.40178707242012024,-1.1326080560684204,0.3839476406574249
1761134014530597600,5.29159765625,-0.7038227915763855,-1.1581966876983643,-0.8072737455368042
1761134014550444500,5.311444580078125,-1.331336259841919,-2.2403719425201416,-3.084897756576538
1761134014570290700,5.331290771484375,-1.130357027053833,-2.8792243003845215,-4.583016872406006
1761134014590137600,5.3511376953125,-1.0665559768676758,-2.2497408390045166,-5.147825717926025
1761134014609983700,5.370983642578125,-1.0467510223388672,-1.3298107385635376,-3.9598910808563232
1761134014629830700,5.39083056640625,-0.06836611777544022,-1.3969779014587402,-3.057391881942749
1761134014649676500,5.410676513671875,0.3788173794746399,-1.1452692747116089,-2.8411378860473633
1761134014669523700,5.430523681640625,0.2814655005931854,-0.9669362902641296,-2.849332571029663
1761134014689370600,5.45037060546875,-0.3502291738986969,-0.24386607110500336,-1.9280517101287842
1761134014709216300,5.47021630859375,-0.626308023929596,1.3005034923553467,-0.1992121785879135
1761134014729063400,5.4900634765625,-0.27909979224205017,1.9578880071640015,1.2118642330169678
1761134014748909600,5.50990966796875,0.1126546636223793,1.2060048580169678,1.7407437562942505
1761134014768756500,5.529756591796875,0.2061878889799118,0.396232545375824,1.7306557893753052
1761134014788603400,5.549603271484375,0.30592653155326843,0.19330954551696777,1.4899215698242188
1761134014808449500,5.569449462890625,0.5978399515151978,0.26710277795791626,1.0754905939102173
1761134014828296400,5.58929638671875,0.9331114292144775,0.3270091116428375,0.6129170060157776
1761134014848142300,5.609142333984375,0.9993672370910645,0.12577861547470093,0.25426629185676575
1761134014867989500,5.628989501953125,0.8304324746131897,-0.3080815076828003,0.42699724435806274
1761134014887835400,5.64883544921875,0.6011174321174622,-0.48986348509788513,0.8245447874069214
1761134014907682300,5.668682373046875,0.47511371970176697,-0.48941755294799805,0.8402355313301086
1761134014927529200,5.688529296875,0.38623255491256714,-0.6212534308433533,0.3226644694805145
1761134014947375600,5.708375732421875,0.11821916699409485,-0.5668004751205444,-0.4467509984970093
1761134014967222500,5.728222412109375,-0.12123832106590271,0.11327933520078659,-0.6987348198890686
1761134014987068400,5.748068359375,0.0640132948756218,1.0494515895843506,-1.0503066778182983
1761134015006915300,5.767915283203125,0.22609633207321167,1.1547659635543823,-1.0717332363128662
1761134015026762500,5.787762451171875,0.4195568859577179,0.491314172744751,-0.7048216462135315
1761134015046608400,5.8076083984375,0.5121315121650696,0.006199185736477375,-0.17129524052143097
1761134015066455300,5.827455322265625,0.6434369087219238,-0.05569697171449661,0.11864325404167175
1761134015086301400,5.847301513671875,0.6302018165588379,-0.08991149067878723,0.1928236186504364
1761134015106148600,5.867148681640625,0.5994512438774109,-0.3064251244068146,0.2709445059299469
1761134015125994500,5.886994384765625,0.6117225885391235,-0.39772433042526245,0.28941813111305237
1761134015145841400,5.90684130859375,0.7178888320922852,-0.5582815408706665,0.47244665026664734
1761134015165688600,5.9266884765625,0.7629583477973938,-0.9637380242347717,0.6512864232063293
1761134015185534500,5.946534423828125,0.6111423969268799,-1.6415908336639404,0.6303338408470154
1761134015205381400,5.96638134765625,0.19457736611366272,-1.8379347324371338,0.8832634091377258
1761134015225227300,5.986227294921875,-0.11400236934423447,-1.0826725959777832,1.2814351320266724
1761134015245074400,6.006074462890625,-0.09751281887292862,0.4197603166103363,1.0422298908233643
1761134015264921300,6.02592138671875,0.20526152849197388,1.8880248069763184,0.9612007141113281
1761134015284767500,6.045767578125,0.488973468542099,2.327418565750122,1.5529850721359253
1761134015304614400,6.065614501953125,0.23481342196464539,1.2180147171020508,1.703417420387268
1761134015324460500,6.08546044921875,-0.2997974455356598,-0.1388324499130249,1.4089316129684448
1761134015344307500,6.105307373046875,-0.7443057298660278,-1.0171445608139038,0.9971754550933838
1761134015364153300,6.1251533203125,-0.8950361609458923,-1.1981701850891113,0.5112050771713257
1761134015384000500,6.14500048828125,-0.8078990578651428,-1.113685965538025,0.11260181665420532
1761134015403847400,6.164847412109375,-0.7945694923400879,-0.7244627475738525,-0.09763326495885849
1761134015423693300,6.184693359375,-0.8210245966911316,-0.3169855773448944,0.009468888863921165
1761134015443540200,6.204540283203125,-0.5342477560043335,0.10754352062940598,0.44108083844184875
1761134015463386600,6.22438671875,0.03731176257133484,0.30139774084091187,1.138588547706604
1761134015483233500,6.244233642578125,0.8116180896759033,0.23482337594032288,1.8431200981140137
1761134015503080400,6.26408056640625,1.3136882781982422,0.1674833744764328,2.371391773223877
1761134015522926300,6.28392626953125,1.5155199766159058,0.4515973627567291,2.581712484359741
1761134015542773500,6.3037734375,1.4139491319656372,1.1306146383285522,2.5750420093536377
1761134015562619400,6.323619384765625,0.6771875023841858,1.5018702745437622,2.5597410202026367
1761134015582466300,6.34346630859375,-0.24947933852672577,1.6068037748336792,2.6691136360168457
1761134015602312400,6.3633125,-0.7546005845069885,1.4510136842727661,2.7871901988983154
1761134015622159400,6.383159423828125,-0.7972726225852966,0.9423229694366455,2.6337835788726807
1761134015642006300,6.40300634765625,-0.7171410322189331,0.3533802330493927,2.0198845863342285
1761134015661852400,6.422852294921875,-0.8628244996070862,-0.4308103024959564,0.8227880001068115
1761134015681699600,6.442699462890625,-0.9090029001235962,-1.5816072225570679,-0.7833577394485474
1761134015701545500,6.46254541015625,-0.6317023038864136,-1.7618165016174316,-2.4734749794006348
1761134015721393200,6.48239306640625,-0.14948992431163788,-1.5732027292251587,-4.577377796173096
1761134015741240300,6.502240234375,-0.01791040413081646,-0.7282232046127319,-6.873946189880371
1761134015761086200,6.522086181640625,-0.5133666396141052,0.23124605417251587,-7.317221164703369
1761134015780933000,6.54193310546875,-0.811908483505249,0.609495997428894,-6.228772163391113
1761134015800779000,6.561779052734375,-0.5222914814949036,-0.23678916692733765,-4.334594249725342
1761134015820626200,6.581626220703125,-0.1631740927696228,-1.533778190612793,-3.413259267807007
1761134015840473000,6.60147314453125,0.3309463560581207,-2.0846524238586426,-2.5926666259765625
1761134015860319200,6.6213193359375,0.8769563436508179,-1.4412226676940918,-1.6080673933029175
1761134015880166100,6.641166259765625,1.1116443872451782,-0.15384894609451294,-0.8154656291007996
1761134015900012300,6.66101220703125,0.9891719818115234,0.7314610481262207,-0.2575569748878479
1761134015919859200,6.680859130859375,0.7506939768791199,1.046279788017273,0.252146452665329
1761134015939705000,6.700705078125,0.39231306314468384,0.9204774498939514,0.7685103416442871
1761134015959552300,6.72055224609375,0.08281192928552628,0.3814227283000946,1.1180229187011719
1761134015979399200,6.740399169921875,-0.06540638953447342,-0.596031665802002,1.2368944883346558
1761134015999245000,6.7602451171875,-0.10408718138933182,-1.3314558267593384,1.0558243989944458
1761134016019092000,6.780092041015625,-0.024847013875842094,-1.2033307552337646,0.538270115852356
1761134016038938400,6.7999384765625,0.11031290143728256,-0.4361247420310974,0.11721374839544296
1761134016058785300,6.819785400390625,0.13195545971393585,0.3801121711730957,0.08206373453140259
1761134016078632200,6.839632080078125,0.17828713357448578,0.5243641138076782,0.19959233701229095
1761134016098478000,6.85947802734375,0.23985694348812103,0.22997038066387177,0.24250276386737823
1761134016118325200,6.8793251953125,0.20662297308444977,-0.030486784875392914,0.296379953622818
1761134016138171100,6.899171142578125,0.003183607943356037,-0.30051615834236145,0.2874612808227539
1761134016158018000,6.91901806640625,-0.17124179005622864,-0.5213372707366943,0.01313343271613121
1761134016177864200,6.9388642578125,-0.09852893650531769,-0.44230109453201294,-0.332109659910202
1761134016197711000,6.958711181640625,0.03462091460824013,-0.3056071400642395,-0.5245088934898376
1761134016217558300,6.978558349609375,0.18209463357925415,-0.1934223473072052,-0.4293343424797058
1761134016237404200,6.998404052734375,0.29552215337753296,-0.250150203704834,-0.12967130541801453
1761134016257251300,7.018251220703125,0.2494516521692276,-0.42247727513313293,0.27132728695869446
1761134016277097200,7.03809716796875,0.11166953295469284,-0.5838126540184021,0.6841643452644348
1761134016296944000,7.057944091796875,-0.052441585808992386,-0.5336782932281494,0.9449412226676941
1761134016316791000,7.077791015625,-0.1321135312318802,-0.5697264075279236,0.9948569536209106
1761134016336637200,7.09763720703125,-0.1535092443227768,-0.6701926589012146,0.7850283980369568
1761134016356484000,7.117484130859375,-0.10854169726371765,-0.7018686532974243,0.5315412282943726
1761134016376330200,7.137330322265625,-0.026126308366656303,-0.534316897392273,0.4160289764404297
1761134016396177200,7.15717724609375,0.04591948911547661,-0.3228762447834015,0.3402711749076843
1761134016416024300,7.1770244140625,0.09083238989114761,-0.03376863896846771,0.18906645476818085
1761134016435870200,7.1968701171875,0.09448710083961487,0.2245849221944809,-0.07685142010450363
1761134016455717000,7.216717041015625,0.08016470819711685,0.3740004599094391,-0.2833494544029236
1761134016475563300,7.236563232421875,0.13737468421459198,0.40309619903564453,-0.22018767893314362
1761134016495410200,7.25641015625,0.10698418319225311,-0.11854303628206253,0.12823785841464996
1761134016515257000,7.276257080078125,-0.06280362606048584,-0.834817111492157,0.31496095657348633
1761134016535103000,7.29610302734375,-0.15020990371704102,-1.0226044654846191,0.5493687391281128
1761134016554950100,7.3159501953125,-0.07077962160110474,-0.5164840817451477,0.643325686454773
1761134016574796300,7.33579638671875,-0.018985407426953316,-0.08087705075740814,0.4285469949245453
1761134016594643200,7.355643310546875,-0.01831781677901745,-0.12638472020626068,0.31611162424087524
1761134016614489000,7.375489013671875,-0.08490783721208572,-0.42990994453430176,0.45087072253227234
1761134016634336300,7.395336181640625,0.007852030918002129,-0.4593624770641327,0.9344767928123474
