time,seconds_elapsed,z,y,x
1761132330056982800,0.084982666015625,0.012676275335252285,0.012125903740525246,0.007941982708871365
1761132330076829700,0.10482958984375,0.018342765048146248,0.029836073517799377,-0.02166203036904335
1761132330096678000,0.124677978515625,0.02113291434943676,0.024012485519051552,-0.027535317465662956
1761132330116525600,0.144525634765625,0.031147649511694908,0.009871862828731537,-0.004160144831985235
1761132330136373800,0.164373779296875,0.037415023893117905,-0.0002009631134569645,0.0064469086937606335
1761132330156220700,0.184220703125,0.030274298042058945,-0.00987316109240055,-0.010910579934716225
1761132330176068900,0.20406884765625,0.019813546910881996,-0.0036051219794899225,-0.016343116760253906
1761132330195916500,0.22391650390625,0.017047982662916183,-0.007162903435528278,-0.006732131354510784
1761132330215764700,0.2437646484375,0.015775222331285477,-0.0005205306224524975,0.01366581954061985
1761132330235611600,0.263611572265625,0.012059413827955723,0.006476260721683502,0.021333398297429085
1761132330255459800,0.2834599609375,0.010904079303145409,-0.003929961007088423,-0.01648842729628086
1761132330275307800,0.303307861328125,0.012232748791575432,0.003372255014255643,-0.038660429418087006
1761132330295155700,0.32315576171875,0.016566814854741096,0.006660019047558308,-0.026627467945218086
1761132330315002600,0.343002685546875,0.008406962268054485,-0.004577974788844585,0.01774854026734829
1761132330334850800,0.362850830078125,0.01474984921514988,-0.003125125542283058,0.016171418130397797
1761132330354698800,0.38269873046875,0.007461954839527607,0.008238958194851875,-0.014596322551369667
1761132330374546700,0.402546630859375,-0.0034763843286782503,0.011121174320578575,-0.003720411565154791
1761132330394393600,0.4223935546875,0.0024903379380702972,-0.0030794369522482157,0.01294282078742981
1761132330414241800,0.44224169921875,-0.0065043335780501366,-0.0033232250716537237,0.025538481771945953
1761132330434089700,0.46208984375,-0.02015349455177784,0.0037301687989383936,0.003852384863421321
1761132330453937700,0.481937744140625,-0.03788953274488449,0.009760777465999126,-0.012846481055021286
1761132330473784600,0.50178466796875,-0.037702661007642746,0.0034630538430064917,-0.004485173150897026
1761132330493632800,0.5216328125,-0.04262080043554306,0.001053545856848359,0.0037866525817662477
1761132330513480700,0.541480712890625,-0.03872210904955864,-0.0069810934364795685,-0.0005418788641691208
1761132330533329000,0.561328857421875,-0.02678871341049671,-0.018502909690141678,0.002647522371262312
1761132330553176600,0.581176513671875,-0.012847871519625187,-0.016686059534549713,0.015518629923462868
1761132330573023700,0.601023681640625,-0.005057437811046839,-0.01278224028646946,0.012598982080817223
1761132330592871700,0.62087158203125,-0.000017553276848047972,-0.0122234420850873,0.0048552826046943665
1761132330612719900,0.640719970703125,0.008032752200961113,-0.011031965725123882,0.00920911505818367
1761132330632567600,0.660567626953125,0.019105028361082077,-0.007132807280868292,0.00513956556096673
1761132330652414700,0.680414794921875,0.024025151506066322,-0.008793612942099571,0.003551713889464736
1761132330672262700,0.7002626953125,0.026613367721438408,-0.011110669001936913,0.006207926198840141
1761132330692110800,0.72011083984375,0.032957229763269424,-0.009314818307757378,0.014193802140653133
1761132330711958500,0.73995849609375,0.03475750610232353,-0.006230705417692661,0.013331592082977295
1761132330731805700,0.7598056640625,0.019275717437267303,-0.0063370573334395885,-0.007055172696709633
1761132330751653600,0.779653564453125,0.01794869266450405,-0.009921712800860405,0.007216780446469784
1761132330771501800,0.799501708984375,0.01857304573059082,-0.007200921885669231,0.024152377620339394
1761132330791349800,0.819349853515625,0.013073435984551907,-0.00025072437711060047,0.00929828267544508
1761132330811197000,0.839197021484375,0.005698831286281347,0.0015457926783710718,-0.004811094608157873
1761132330831044600,0.859044677734375,-0.0003577677998691797,-0.007123423740267754,0.006676448509097099
1761132330850892800,0.878892822265625,0.005154442973434925,-0.007094661705195904,0.022124646231532097
1761132330870740700,0.89874072265625,0.006987773347645998,-0.0025032376870512962,0.007284110877662897
1761132330890588000,0.918587890625,-0.0023017097264528275,0.00015821773558855057,-0.0093204565346241
1761132330910435600,0.938435546875,-0.008932703174650669,-0.0008722874335944653,-0.01232750155031681
1761132330930283800,0.95828369140625,-0.01975005306303501,-0.005141313187777996,0.004415837116539478
1761132330950131700,0.978131591796875,-0.019064059481024742,-0.004205034580081701,0.030362214893102646
1761132330969979000,0.997978759765625,-0.017788102850317955,0.007220814004540443,0.015725482255220413
1761132330989826600,1.01782666015625,-0.020016534253954887,-0.0009204945527017117,0.004299021326005459
1761132331009674800,1.0376748046875,-0.01486285775899887,-0.007296916097402573,0.005791964940726757
1761132331029523200,1.057523193359375,-0.005385400727391243,-0.014629241079092026,0.00753749767318368
1761132331049370000,1.0773701171875,-0.009175272658467293,0.0009198023471981287,0.006680226884782314
1761132331069218000,1.097218017578125,0.0031937065068632364,0.0063052368350327015,0.006322541739791632
1761132331089066000,1.11706591796875,0.018407199531793594,-0.000507706543430686,-0.006186255253851414
1761132331108914200,1.1369140625,0.023566078394651413,0.0027369961608201265,-0.032348617911338806
1761132331128761000,1.156760986328125,0.02541733719408512,0.0016520449426025152,-0.033351946622133255
1761132331148609000,1.176609130859375,0.04121417552232742,-0.006868559867143631,-0.01588531956076622
1761132331168457000,1.19645703125,0.0375947467982769,-0.0010884185321629047,0.006415483076125383
1761132331188305200,1.21630517578125,0.033908020704984665,0.003191589843481779,0.01168086938560009
1761132331208152000,1.236152099609375,0.02867911010980606,0.002209917176514864,-0.0018870416097342968
1761132331228000000,1.256,0.02077498659491539,-0.0022376542910933495,-0.013195767998695374
1761132331247848000,1.275847900390625,0.0158303864300251,-0.0019867836963385344,-0.018872417509555817
1761132331267696000,1.295696044921875,0.007138535846024752,0.0022105176467448473,-0.011274853721261024
1761132331287543000,1.31554296875,0.000825258728582412,-0.005709315184503794,0.0010272841900587082
1761132331307391000,1.335390869140625,0.0007388047524727881,-0.005760480649769306,0.014415355399250984
1761132331327239000,1.355239013671875,-0.005699113942682743,0.0012587702367454767,-0.0005966681055724621
1761132331347087000,1.375087158203125,-0.0018048281781375408,-0.006562586408108473,-0.01233096793293953
1761132331366934000,1.39493408203125,-0.0020538954995572567,-0.0011209908407181501,-0.02419036254286766
1761132331386782000,1.414781982421875,-0.007317406591027975,0.003010436659678817,-0.020715229213237762
1761132331406630100,1.434630126953125,-0.013658824376761913,-0.0016317437402904034,-0.010309895500540733
1761132331426478000,1.45447802734375,-0.01622522994875908,0.0012811000924557447,-0.011869222857058048
1761132331446325000,1.474324951171875,-0.019557133316993713,0.0016986452974379063,-0.013611286878585815
1761132331466173000,1.4941728515625,-0.027658674865961075,0.00868637952953577,-0.023255301639437675
1761132331486021000,1.514021240234375,-0.03562194108963013,0.004825929645448923,-0.041847921907901764
1761132331505869000,1.533869140625,-0.03711461275815964,0.013184485957026482,-0.022823557257652283
1761132331525716000,1.553716064453125,-0.03138202428817749,0.015373403206467628,0.007031375542283058
1761132331545564000,1.57356396484375,-0.031215466558933258,0.02179066278040409,-0.007146470248699188
1761132331565412000,1.593412109375,-0.025184065103530884,0.026000764220952988,-0.036969490349292755
1761132331585260000,1.613260009765625,-0.00977496150881052,0.014914368279278278,-0.03237089142203331
1761132331605108000,1.63310791015625,0.005032516550272703,0.003885607933625579,0.001967931166291237
1761132331624955000,1.652954833984375,0.016257604584097862,-0.0024970821104943752,0.009414277970790863
1761132331644803000,1.672802978515625,0.020343801006674767,-0.006714531220495701,0.0011183107271790504
1761132331664651300,1.6926513671875,0.025726325809955597,0.00018930993974208832,-0.010656661354005337
1761132331684499000,1.7124990234375,0.03141200169920921,-0.002257253509014845,0.0004001888446509838
1761132331704345900,1.732345947265625,0.03220575302839279,-0.002157786162570119,0.01655370369553566
1761132331724194000,1.752194091796875,0.023881129920482635,-0.013361811637878418,0.020122047513723373
1761132331744042000,1.7720419921875,0.012286811135709286,-0.011945981532335281,0.013385193422436714
1761132331763890000,1.791889892578125,0.006384235806763172,-0.0005413407925516367,0.018724709749221802
1761132331783736800,1.81173681640625,-0.002493218518793583,0.002611295087262988,0.01288597285747528
1761132331803585000,1.8315849609375,-0.004962168633937836,0.014302099123597145,0.011585360392928123
1761132331823433000,1.851432861328125,-0.005692593287676573,0.02038419619202614,-0.002415969967842102
1761132331843281200,1.87128125,-0.002118428936228156,0.02087140642106533,-0.01991915889084339
1761132331863128000,1.891128173828125,0.01281883753836155,0.005850045010447502,0.004769311286509037
1761132331882976000,1.91097607421875,0.020669130608439445,-0.007270531728863716,0.019583027809858322
1761132331902824000,1.930823974609375,0.022544166073203087,-0.009473922662436962,0.025250732898712158
1761132331922672000,1.950672119140625,0.01884942688047886,0.0002458894159644842,0.028852976858615875
1761132331942519000,1.97051904296875,0.0164843387901783,0.007361111231148243,0.007546165958046913
1761132331962367000,1.990366943359375,0.004100740887224674,0.013634158298373222,-0.008059329353272915
1761132331982215000,2.01021484375,0.003663405077531934,0.007212960161268711,-0.009662768803536892
1761132332002063000,2.03006298828125,-0.011429354548454285,0.008198847994208336,0.0029942896217107773
1761132332021910000,2.049909912109375,-0.00817785132676363,0.0026067106518894434,0.00482993945479393
1761132332041758500,2.069758544921875,-0.0026188271585851908,-0.00667130621150136,0.006228505168110132
1761132332061606400,2.0896064453125,-0.005385805852711201,-0.004117646254599094,0.006178632844239473
1761132332081454600,2.10945458984375,-0.013108932413160801,0.0033281217329204082,0.002606804948300123
1761132332101301500,2.129301513671875,-0.016652749851346016,0.0035582242999225855,0.009429721161723137
1761132332121149400,2.1491494140625,-0.008007459342479706,0.0025769141502678394,0.008073470555245876
1761132332140997400,2.168997314453125,0.0026254323311150074,0.01711345836520195,0.001908301841467619
1761132332160845600,2.188845458984375,0.0005869058077223599,0.014868130907416344,0.0032627414911985397
1761132332180692500,2.2086923828125,0.0024431012570858,0.009532527066767216,0.016009090468287468
1761132332200540400,2.22854052734375,0.01810048520565033,0.0006303072441369295,0.023214440792798996
1761132332220388400,2.248388427734375,0.01964951492846012,0.00008771475404500961,0.012346197851002216
1761132332240236500,2.268236572265625,0.008713264018297195,-0.0015835819067433476,0.010674677789211273
1761132332260083500,2.28808349609375,0.007720986381173134,-0.004154612310230732,0.012301190756261349
1761132332279931600,2.307931640625,0.00339379976503551,-0.00839078240096569,0.004549043253064156
1761132332299779300,2.327779296875,-0.0014601508155465126,-0.016994137316942215,-0.001268655527383089
1761132332319627500,2.34762744140625,-0.0015375816728919744,-0.026525797322392464,0.0013839290477335453
1761132332339474400,2.367474365234375,-0.0018076261039823294,-0.023688198998570442,0.013991067185997963
1761132332359322600,2.387322509765625,-0.00481603667140007,-0.019263776019215584,0.011696677654981613
1761132332379170300,2.40717041015625,-0.0031834151595830917,-0.012610247358679771,-0.0035474468022584915
1761132332399018500,2.4270185546875,0.0030256181489676237,-0.01627415232360363,-0.015576313249766827
1761132332418865400,2.446865478515625,0.01357362326234579,-0.024263327941298485,-0.017911549657583237
1761132332438713600,2.466713623046875,0.01512856874614954,-0.0184954684227705,-0.010350325144827366
1761132332458561500,2.4865615234375,0.008854888379573822,-0.00844497699290514,0.007270456291735172
1761132332478409500,2.506409423828125,0.013328060507774353,-0.01083603035658598,0.0021938406862318516
1761132332498256400,2.52625634765625,0.013004777021706104,-0.01225255150347948,-0.01297646202147007
1761132332518104600,2.5461044921875,0.010685167275369167,-0.010794525034725666,-0.01600106805562973
1761132332537952500,2.565952392578125,-0.004088174551725388,0.007238142658025026,-0.012882843613624573
1761132332557800400,2.585800537109375,-0.012887940742075443,0.009179382584989071,-0.00944925844669342
1761132332577647400,2.6056474609375,-0.017850199714303017,0.004655072465538979,-0.0032082106918096542
1761132332597495600,2.62549560546875,-0.020527474582195282,0.013592374511063099,-0.016149843111634254
1761132332617343500,2.645343505859375,-0.03560936823487282,0.018164822831749916,-0.038061290979385376
1761132332637191400,2.66519140625,-0.040183790028095245,0.023547884076833725,-0.03150603920221329
1761132332657038300,2.685038330078125,-0.028835009783506393,0.007233536336570978,0.0073221721686422825
1761132332676886500,2.704886474609375,-0.01669693924486637,0.00310815148986876,0.01708856411278248
1761132332696734500,2.724734375,-0.014126897789537907,0.0023838754277676344,-0.0012876135297119617
1761132332716582700,2.744582763671875,-0.009391899220645428,0.00155592430382967,-0.005921076983213425
1761132332736429600,2.7644296875,-0.0007483753142878413,0.0013341745361685753,-0.003712537232786417
1761132332756277500,2.784277587890625,0.004409916698932648,0.0021925957407802343,0.005361261311918497
1761132332776125400,2.80412548828125,0.008743202313780785,0.007871707901358604,-0.0020909165032207966
1761132332795973600,2.8239736328125,0.012843862175941467,0.019154269248247147,-0.013646375387907028
1761132332815820500,2.843820556640625,0.012924869544804096,0.0253355260938406,-0.02104788087308407
1761132332835668500,2.86366845703125,0.023490922525525093,0.02124657854437828,-0.006352049298584461
1761132332855516400,2.883516357421875,0.037121936678886414,0.011898243799805641,0.018435830250382423
1761132332875364600,2.903364501953125,0.03918907418847084,0.005219349637627602,0.009819491766393185
1761132332895211500,2.92321142578125,0.03279979154467583,-0.0008681248873472214,0.0028818082064390182
1761132332915059500,2.9430595703125,0.0210726335644722,-0.003586399368941784,0.02215219847857952
1761132332934907400,2.962907470703125,0.014246879145503044,-0.004230365622788668,0.04129311069846153
1761132332954755600,2.982755615234375,-0.0016793932300060987,0.010330109857022762,0.023750070482492447
1761132332974602500,3.0026025390625,-0.013069869950413704,0.021968860179185867,-0.0001356508582830429
1761132332994450700,3.02245068359375,-0.01796026900410652,0.020587019622325897,-0.018908295780420303
1761132333014298400,3.04229833984375,-0.0109351621940732,0.013252989389002323,-0.00425231596454978
1761132333034145300,3.062145263671875,-0.005751229356974363,0.013178160414099693,0.006949882488697767
1761132333053992200,3.0819921875,-0.00883639045059681,0.014456848613917828,0.006866284180432558
1761132333073840400,3.10184033203125,-0.0013757562264800072,0.003780422965064645,0.01649695262312889
1761132333093688300,3.121688232421875,0.00890331994742155,0.013006425462663174,0.030173372477293015
1761132333113536300,3.141536376953125,-0.00237084086984396,0.010047174990177155,0.032944731414318085
1761132333133383200,3.161383056640625,-0.013845730572938919,0.010694125667214394,0.012008391320705414
1761132333153231400,3.1812314453125,-0.021217525005340576,0.012242568656802177,-0.0014926502481102943
1761132333173079300,3.201079345703125,-0.015375149436295033,0.016172165051102638,0.007435498293489218
1761132333192927500,3.220927490234375,-0.0076888795010745525,0.023680655285716057,0.007441577035933733
1761132333212774400,3.2407744140625,-0.0009404397569596767,0.029130415990948677,0.02348293364048004
1761132333232622300,3.260622314453125,0.005279309581965208,0.033133365213871,0.012619558721780777
1761132333252470300,3.28047021484375,0.021379031240940094,0.03376668319106102,-0.006912325043231249
1761132333272318500,3.300318359375,0.030762823298573494,0.03215441852807999,-0.010249221697449684
1761132333292165400,3.320165283203125,0.038462791591882706,0.02667101100087166,-0.004618839826434851
1761132333312013300,3.340013427734375,0.03710705041885376,0.029281187802553177,0.0017733029089868069
1761132333331861200,3.359861328125,0.040849700570106506,0.024411970749497414,-0.0017505669966340065
1761132333351709400,3.37970947265625,0.051214467734098434,0.01721331849694252,0.00497171375900507
1761132333371556400,3.399556396484375,0.05317127704620361,0.005091791041195393,0.017118971794843674
1761132333391404300,3.419404296875,0.04052187502384186,0.007768950425088406,0.003354376181960106
1761132333411252200,3.439252197265625,0.031049663200974464,-0.0038468968123197556,-0.004453240428119898
1761132333431100400,3.459100341796875,0.0208889227360487,-0.028528708964586258,0.003377930261194706
1761132333450948400,3.4789482421875,0.007320723962038755,-0.03608657792210579,0.02726941555738449
1761132333470795500,3.49879541015625,-0.010170173831284046,-0.030978821218013763,0.03516021743416786
1761132333490643200,3.518643310546875,-0.011778733693063259,-0.0359199196100235,0.015756763517856598
1761132333510491400,3.538491455078125,-0.003984957002103329,-0.048800140619277954,-0.005138074513524771
1761132333530339300,3.55833935546875,0.00785293523222208,-0.0590522363781929,-0.0034357402473688126
1761132333550186500,3.5781865234375,0.009294545277953148,-0.062049515545368195,0.005993985570967197
1761132333570034200,3.5980341796875,0.005202940199524164,-0.07417599856853485,0.003855169052258134
1761132333589882400,3.61788232421875,0.005106011405587196,-0.09749370813369751,0.014543695375323296
1761132333609730300,3.637730224609375,0.014209595508873463,-0.10013825446367264,0.04583806172013283
1761132333629577500,3.657577392578125,0.0052090599201619625,-0.07851424068212509,0.06907683610916138
1761132333649425200,3.677425048828125,-0.012671148404479027,-0.05043880641460419,0.06418867409229279
1761132333669273300,3.6972734375,-0.013414802961051464,-0.02125399187207222,0.020853355526924133
1761132333689121300,3.717121337890625,-0.0033430331386625767,-0.008156663738191128,-0.016637297347187996
1761132333708968400,3.736968505859375,-0.0018399544060230255,-0.004532765597105026,-0.03092215582728386
1761132333728816400,3.75681640625,-0.005003347992897034,0.00754163321107626,-0.014166247099637985
1761132333748664300,3.776664306640625,-0.0015262970700860023,0.012135813012719154,-0.012063874863088131
1761132333768512300,3.79651220703125,0.0029604302253574133,0.02070556953549385,-0.012469643726944923
1761132333788359400,3.816359375,0.0011390943545848131,0.01562186237424612,-0.005253010895103216
1761132333808207400,3.836207275390625,-0.01165429875254631,0.012797076255083084,-0.003331368789076805
1761132333828055300,3.85605517578125,-0.03910312056541443,0.018290488049387932,-0.014447377994656563
1761132333847903200,3.8759033203125,-0.04189981892704964,0.019737806171178818,-0.009995396248996258
1761132333867750100,3.895750244140625,-0.04322901368141174,0.019259899854660034,-0.01598956808447838
1761132333887598300,3.915598388671875,-0.0647033229470253,0.022392062470316887,-0.021323999390006065
1761132333907446300,3.9354462890625,-0.07734063267707825,0.016418708488345146,0.002139829099178314
1761132333927294200,3.955294189453125,-0.07968758046627045,0.01758573204278946,0.002658762503415346
1761132333947141000,3.97514111328125,-0.06731272488832474,0.010454077273607254,-0.004831844940781593
1761132333966989300,3.9949892578125,-0.05588313937187195,0.01704115979373455,-0.01732192188501358
1761132333986837500,4.01483740234375,-0.039275556802749634,0.010889900848269463,-0.027618741616606712
1761132334006684400,4.034684326171875,-0.029160000383853912,-0.007628815248608589,-0.030761228874325752
1761132334026532900,4.054532958984375,-0.009679014794528484,-0.02400212548673153,-0.008621329441666603
1761132334046381000,4.074381103515625,-0.002147190971300006,-0.009611934423446655,0.01281854696571827
1761132334066228000,4.09422802734375,0.0007516437326557934,-0.011457858607172966,0.006813242100179195
1761132334086076000,4.114075927734375,0.00833066739141941,-0.02041519433259964,-0.010413490235805511
1761132334105923800,4.133923828125,0.025360921397805214,-0.024496421217918396,-0.016565294936299324
1761132334125772000,4.15377197265625,0.04781681299209595,-0.03676686808466911,0.005396170541644096
1761132334145619000,4.173618896484375,0.05731990933418274,-0.04440608248114586,0.017798341810703278
1761132334165467100,4.193467041015625,0.055456873029470444,-0.04713677987456322,0.01020462904125452
1761132334185314800,4.213314697265625,0.043877992779016495,-0.03744646534323692,-0.01317080482840538
1761132334205163000,4.2331630859375,0.027896534651517868,-0.029372043907642365,-0.00935277808457613
1761132334225010000,4.253010009765625,0.03370978310704231,-0.02045074664056301,0.015069570392370224
1761132334244858000,4.272858154296875,0.013692059554159641,-0.0045218621380627155,0.020551931113004684
1761132334264705800,4.292705810546875,0.0009005758329294622,0.010098705999553204,-0.020255567505955696
1761132334284554000,4.312553955078125,-0.013250396586954594,0.00890374556183815,-0.05070028826594353
1761132334304401000,4.33240087890625,-0.013837026432156563,0.0038688916247338057,-0.03895961493253708
1761132334324249000,4.3522490234375,-0.013190564699470997,0.007040762808173895,-0.016273241490125656
1761132334344097000,4.372096923828125,-0.022902389988303185,0.009448870085179806,-0.010002832859754562
1761132334363945000,4.391945068359375,-0.03643444925546646,0.018173959106206894,-0.013534932397305965
1761132334383794000,4.4117939453125,-0.03757328540086746,0.027113337069749832,-0.0246579647064209
1761132334403641900,4.431641845703125,-0.03517419099807739,0.02735033445060253,-0.02165503054857254
1761132334423488800,4.45148876953125,-0.03575170040130615,0.02241942100226879,-0.033063046634197235
1761132334443337000,4.4713369140625,-0.022259371355175972,-0.0005280186887830496,-0.03607343137264252
1761132334463185000,4.491184814453125,-0.002802916569635272,-0.01115462463349104,0.00041579362004995346
1761132334483032800,4.51103271484375,0.01205111388117075,-0.009891841560602188,0.01781727746129036
1761132334502879700,4.530879638671875,0.02259826846420765,0.006380211561918259,0.009614957496523857
1761132334522728000,4.55072802734375,0.029368536546826363,0.018452752381563187,-0.006915962789207697
1761132334542575900,4.570575927734375,0.037419818341732025,0.016773492097854614,-0.006658506579697132
1761132334562424000,4.590424072265625,0.04115020111203194,0.008036574348807335,-0.005645803175866604
1761132334582271000,4.61027099609375,0.038970738649368286,0.009650364518165588,-0.012766029685735703
1761132334602119000,4.630118896484375,0.025410469621419907,0.004945231601595879,-0.010256601497530937
1761132334621966800,4.649966796875,0.03560145944356918,0.0030419440008699894,0.007980557158589363
1761132334641815000,4.66981494140625,0.03611515462398529,0.019958646968007088,0.03354762867093086
1761132334661662000,4.689661865234375,0.045141953974962234,0.034111034125089645,0.03772547096014023
1761132334681510000,4.709510009765625,0.04004409536719322,0.04279790073633194,-0.00781964510679245
1761132334701357800,4.72935791015625,0.06200111284852028,0.02792247012257576,-0.029272858053445816
1761132334721206000,4.7492060546875,0.07754789292812347,0.003937874920666218,-0.004048460628837347
1761132334741053000,4.769052978515625,0.06063035503029823,0.012307331897318363,0.003541473299264908
1761132334760900900,4.78890087890625,0.03839635103940964,0.012796010822057724,0.0011992002837359905
1761132334780748800,4.808748779296875,0.02300618216395378,0.017604654654860497,0.007857296615839005
1761132334800597000,4.828596923828125,0.0050950064323842525,0.03443174809217453,-0.014523274265229702
1761132334820445000,4.84844482421875,-0.009727301076054573,0.049615487456321716,-0.0504014827311039
1761132334840292000,4.8682919921875,-0.010734625160694122,0.053316954523324966,-0.07141566276550293
1761132334860139800,4.888139892578125,-0.011478861793875694,0.054423294961452484,-0.0738290473818779
1761132334879988000,4.907988037109375,0.0070067825727164745,0.06013774499297142,-0.04270332679152489
1761132334899836000,4.9278359375,0.013029687106609344,0.06494931131601334,-0.032636672258377075
1761132334919683000,4.94768310546875,0.018855364993214607,0.06470523774623871,-0.033344611525535583
1761132334939530800,4.96753076171875,0.017231496050953865,0.0480303131043911,-0.037935465574264526
1761132334959379000,4.98737890625,0.0221434086561203,0.044819071888923645,-0.03945572301745415
1761132334979227000,5.007226806640625,0.017573149874806404,0.03182405233383179,-0.02845999039709568
1761132334999074000,5.027073974609375,0.01429518312215805,0.012710241600871086,-0.0173844862729311
1761132335018921700,5.046921630859375,0.014784093014895916,-0.00007964274846017361,-0.008250592276453972
1761132335038769700,5.066769775390625,0.016526682302355766,-0.01808193139731884,0.02304096892476082
1761132335058617600,5.08661767578125,0.0060226162895560265,-0.022872650995850563,0.043435387313365936
1761132335078464500,5.106464599609375,-0.0034524782095104456,-0.0007630586624145508,0.016038285568356514
1761132335098312700,5.126312744140625,-0.013710865750908852,0.00973319262266159,-0.018428564071655273
1761132335118160600,5.14616064453125,-0.018276138231158257,0.010403100401163101,-0.047994665801525116
1761132335138008600,5.166008544921875,-0.015718592330813408,0.011301131919026375,-0.05776846036314964
1761132335157855500,5.18585546875,-0.03874458000063896,-0.0009364960715174675,-0.07183453440666199
1761132335177703700,5.20570361328125,-0.05610917881131172,-0.02082858420908451,-0.11697837710380554
1761132335197551600,5.225551513671875,-0.0367756225168705,-0.013821523636579514,-0.145527184009552
1761132335217399600,5.245399658203125,-0.007753769867122173,-0.031720709055662155,-0.09669957309961319
1761132335237246500,5.26524658203125,-0.0076396269723773,-0.02824973873794079,-0.003636782057583332
1761132335257094700,5.2850947265625,-0.016388628631830215,-0.054315872490406036,0.04163949564099312
1761132335276942800,5.30494287109375,-0.028228675946593285,-0.09537678956985474,0.01335868425667286
1761132335296790500,5.32479052734375,-0.007686176337301731,-0.07276428490877151,0.03322151303291321
1761132335316637400,5.344637451171875,-0.0049928887747228146,-0.056576620787382126,0.05062662065029144
1761132335336485600,5.364485595703125,-0.012210704386234283,-0.03856465220451355,0.05131667107343674
1761132335356333800,5.384333740234375,-0.0077583324164152145,-0.029953621327877045,0.031078342348337173
1761132335376181500,5.404181396484375,0.0008796305046416819,-0.027745595201849937,0.0023691998794674873
1761132335396028400,5.4240283203125,0.009515292942523956,-0.021953457966446877,-0.0023412490263581276
1761132335415876600,5.443876708984375,0.019624223932623863,-0.016744665801525116,0.0008497918024659157
1761132335435724800,5.463724853515625,0.017740830779075623,-0.015883883461356163,0.016407765448093414
1761132335455572500,5.483572509765625,0.01876467652618885,-0.02884599380195141,0.02280460111796856
1761132335475419600,5.503419677734375,0.012003373354673386,-0.05139029026031494,0.023314552381634712
1761132335495267600,5.523267578125,-0.007344790734350681,-0.04284008592367172,0.024282557889819145
1761132335515115800,5.54311572265625,-0.028749577701091766,-0.045263681560754776,0.032593294978141785
1761132335534963700,5.562963623046875,-0.05018162727355957,-0.03623347729444504,0.04278675839304924
1761132335554810600,5.582810546875,-0.05899069830775261,-0.02049567922949791,0.040606576949357986
1761132335574658600,5.602658447265625,-0.0618094727396965,-0.00008882465772330761,0.025737930089235306
1761132335594506500,5.622506591796875,-0.04958323389291763,0.024640697985887527,-0.008564990013837814
1761132335614354700,5.642354736328125,-0.03193246200680733,0.024310000240802765,-0.03455628082156181
1761132335634201600,5.66220166015625,-0.010920359753072262,0.02495577745139599,-0.03743375092744827
1761132335654049500,5.682049560546875,0.014116579666733742,0.023601889610290527,-0.019383283331990242
1761132335673897500,5.7018974609375,0.03657454624772072,0.009028317406773567,-0.0008585294708609581
1761132335693745700,5.72174560546875,0.05100634694099426,0.009342682547867298,0.01795206032693386
1761132335713592600,5.741592529296875,0.056754667311906815,0.01176418550312519,0.023330820724368095
1761132335733440500,5.7614404296875,0.05820371210575104,0.024354100227355957,0.011847145855426788
1761132335753288400,5.781288330078125,0.04948609322309494,0.013328654691576958,0.007408383302390575
1761132335773136600,5.80113671875,0.05032481625676155,0.00588762853294611,0.006896692328155041
1761132335792983600,5.820983642578125,0.05612776800990105,0.000905368709936738,0.0048921070992946625
1761132335812831700,5.840831787109375,0.05563617870211601,-0.0019402593607082963,-0.009094475768506527
1761132335832679400,5.860679443359375,0.04069266840815544,-0.004882154054939747,-0.011807559989392757
1761132335852527600,5.880527587890625,0.03980986028909683,-0.007379266433417797,-0.01229752879589796
1761132335872374500,5.90037451171875,0.03168577328324318,-0.002003720495849848,-0.005070743151009083
1761132335892222700,5.92022265625,0.02881954051554203,0.0009884724859148264,-0.007630196399986744
1761132335912070400,5.9400703125,0.025019044056534767,-0.0016158607322722673,-0.014799329452216625
1761132335931918600,5.959918701171875,0.029994234442710876,-0.011578146368265152,-0.006317330524325371
1761132335951765500,5.979765625,0.0344899445772171,-0.013853857293725014,-0.0037499703466892242
1761132335971613700,5.99961376953125,0.028502386063337326,0.00017297291196882725,0.004446779377758503
1761132335991461600,6.019461669921875,0.012747886590659618,0.009254524484276772,0.00470909895375371
1761132336011309600,6.0393095703125,0.008149232715368271,0.01566583290696144,-0.006509318947792053
1761132336031157000,6.059156982421875,-0.0024001183919608593,0.016470812261104584,-0.02170931175351143
1761132336051005000,6.0790048828125,-0.009636870585381985,0.016011128202080727,-0.036425985395908356
1761132336070853000,6.09885302734375,-0.0161121916025877,0.012284190393984318,-0.04175233468413353
1761132336090700800,6.11870068359375,-0.02045314386487007,0.011870335787534714,-0.05978939309716225
1761132336110548000,6.1385478515625,-0.0230880044400692,0.006012457888573408,-0.07259677350521088
1761132336130396000,6.15839599609375,-0.016796723008155823,0.0006251689046621323,-0.04338787868618965
1761132336150244000,6.178244140625,-0.004033718723803759,-0.008039150387048721,-0.02039944753050804
1761132336170091800,6.198091796875,0.013125055469572544,-0.02317153848707676,-0.00007945625111460686
1761132336189939000,6.21793896484375,0.015743115916848183,-0.027646727859973907,0.001966236624866724
1761132336209787000,6.237786865234375,0.004672576207667589,-0.03464104235172272,-0.022884201258420944
1761132336229635000,6.257635009765625,-0.006105113308876753,-0.030568819493055344,-0.013009777292609215
1761132336249482800,6.277482666015625,-0.011121144518256187,-0.028922542929649353,0.008081145584583282
1761132336269330000,6.297329833984375,-0.008078859187662601,-0.01315673440694809,0.006583891808986664
1761132336289177900,6.317177734375,-0.015340840443968773,-0.006807772908359766,0.002911635674536228
1761132336309026000,6.337026123046875,-0.013591143302619457,0.012663662433624268,-0.011341601610183716
1761132336328874000,6.3568740234375,-0.006140139885246754,0.025516215711832047,-0.029334787279367447
1761132336348722000,6.376721923828125,0.003145933384075761,0.0165697131305933,-0.016475258395075798
1761132336368568800,6.39656884765625,0.013598592951893806,0.007907778955996037,0.0039587682113051414
1761132336388417000,6.4164169921875,0.021530158817768097,0.006830067839473486,0.011163782328367233
1761132336408265000,6.436264892578125,0.02608223259449005,0.003464838257059455,0.002458631992340088
1761132336428113000,6.45611279296875,0.02816947177052498,0.00024168635718524456,0.01194745022803545
1761132336447959800,6.475959716796875,0.022676734253764153,0.0028224263805896044,0.022869393229484558
1761132336467808000,6.49580810546875,0.011218948289752007,0.0026657709386199713,0.0173397958278656
1761132336487656000,6.515656005859375,-0.006987275555729866,0.0047337948344647884,0.02473285235464573
1761132336507503900,6.53550390625,-0.008961016312241554,0.008255548775196075,0.025536835193634033
1761132336527350800,6.555350830078125,-0.011076540686190128,0.00844713393598795,0.014031615108251572
1761132336547199000,6.575198974609375,-0.00943736545741558,0.0088135851547122,-0.014751828275620937
1761132336567047000,6.595046875,-0.007569458801299334,0.01494959183037281,-0.027161646634340286
1761132336586895000,6.61489501953125,-0.0033181272447109222,0.019686220213770866,-0.020742196589708328
1761132336606742000,6.634741943359375,0.012211847119033337,0.01030772365629673,-0.01356483343988657
1761132336626590000,6.65458984375,0.00724409706890583,0.005861950106918812,-0.015782423317432404
1761132336646438000,6.67443798828125,0.0023743417114019394,-0.0008377910126000643,-0.012500248849391937
1761132336666286000,6.6942861328125,-0.007080713286995888,-0.01124667003750801,0.0023633665405213833
1761132336686133000,6.714133056640625,-0.012163816951215267,-0.012979048304259777,0.012913500890135765
1761132336705981000,6.73398095703125,-0.012691388837993145,-0.0018475675024092197,0.031809158623218536
1761132336725828900,6.753828857421875,-0.021211393177509308,0.015561520121991634,0.041376180946826935
1761132336745677000,6.773677001953125,-0.023862294852733612,0.021797439083456993,0.03039322979748249
1761132336765524000,6.79352392578125,-0.025821048766374588,0.025955166667699814,0.011323930695652962
1761132336785372000,6.813371826171875,-0.0030268211849033833,0.013474348932504654,0.0018148282542824745
1761132336805219800,6.8332197265625,0.01173403114080429,0.0014153772499412298,-0.012080071493983269
1761132336825068000,6.853068115234375,0.00994492881000042,0.007222631014883518,-0.014458590187132359
1761132336844915000,6.8729150390625,-0.0058901249431073666,0.015710003674030304,-0.011543420143425465
1761132336864763100,6.89276318359375,-0.015945589169859886,0.0035835355520248413,-0.006924604531377554
1761132336884610800,6.91261083984375,-0.013022379949688911,-0.005927428137511015,0.003929330967366695
1761132336904459000,6.932458984375,-0.006381461396813393,-0.0008004407864063978,0.00383061938919127
1761132336924306000,6.952305908203125,-0.015080694109201431,-0.0013938831398263574,-0.0037850989028811455
1761132336944154000,6.972154052734375,-0.013846945017576218,-0.0045484136790037155,-0.0016712299548089504
1761132336964001800,6.992001708984375,-0.004742064047604799,-0.014872368425130844,0.024589210748672485
1761132336983850000,7.01185009765625,0.0022583380341529846,0.0032481367234140635,0.04475321248173714
1761132337003697000,7.03169677734375,0.003174594370648265,0.021179933100938797,0.034680239856243134
1761132337023545000,7.051545166015625,0.007232040632516146,0.023109102621674538,0.009018241427838802
1761132337043393300,7.071393310546875,0.02176908776164055,0.010336433537304401,0.0011265436187386513
1761132337063241500,7.091241455078125,0.031291667371988297,0.004327396396547556,-0.0018854434601962566
1761132337083088400,7.11108837890625,0.03159911930561066,-0.0047243507578969,0.0036448517348617315
1761132337102936600,7.1309365234375,0.03105103224515915,-0.011962252669036388,0.0039050921332091093
1761132337122784300,7.1507841796875,0.02262493595480919,-0.016551384702324867,0.013163618743419647
1761132337142632400,7.170632568359375,0.016767533496022224,-0.013743937015533447,0.01926150731742382
1761132337162479400,7.190479248046875,0.011736412532627583,-0.014786582440137863,0.032781265676021576
1761132337182327600,7.21032763671875,0.004841893911361694,-0.012770764529705048,0.019229603931307793
1761132337202175500,7.230175537109375,-0.0027487713377922773,-0.011707083322107792,0.019715674221515656
1761132337222023400,7.2500234375,-0.004684182815253735,-0.010841036215424538,0.004150683060288429
1761132337241870300,7.269870361328125,-0.00962726678699255,-0.0054258983582258224,-0.01642976514995098
1761132337261718500,7.289718505859375,-0.013050181791186333,-0.0036617666482925415,-0.017495878040790558
1761132337281566500,7.30956640625,-0.006787942256778479,-0.009371970780193806,0.006352681200951338
1761132337301414400,7.329414306640625,-0.00850684754550457,-0.006253915373235941,0.00275651877745986
1761132337321261300,7.34926123046875,-0.007544702384620905,-0.006497514434158802,-0.004083423409610987
1761132337341109500,7.369109619140625,-0.0017087514279410243,-0.014800690114498138,0.00046968739479780197
1761132337360957400,7.38895751953125,0.005245128646492958,-0.005706289783120155,0.014140588231384754
1761132337380805400,7.408805419921875,-0.0010090988362208009,0.007781154476106167,0.017967725172638893
1761132337400652300,7.42865234375,-0.00021304766414687037,0.015804899856448174,0.00026491330936551094
1761132337420500500,7.44850048828125,0.006763635668903589,0.01500648446381092,-0.006892864592373371
1761132337440348400,7.468348388671875,0.01918010227382183,0.010190029628574848,0.015077877789735794
1761132337460196600,7.488196533203125,0.024626219645142555,0.007424908224493265,0.037047162652015686
1761132337480043500,7.50804345703125,0.025459064170718193,-0.00044827302917838097,0.03206519037485123
1761132337499891500,7.527891357421875,0.014078606851398945,-0.01463949866592884,0.018409371376037598
1761132337519739400,7.547739501953125,0.000484067655634135,-0.010866362601518631,0.03446939215064049
1761132337539587600,7.567587646484375,-0.013215403072535992,-0.0032813886646181345,0.037908751517534256
1761132337559434500,7.5874345703125,-0.03083120472729206,0.005207514856010675,0.008875086903572083
1761132337579282400,7.607282470703125,-0.04299323260784149,0.0012918361462652683,-0.013736121356487274
1761132337599130400,7.62713037109375,-0.030157634988427162,-0.01688374951481819,0.0015499424189329147
1761132337618978600,7.646978515625,-0.011074571870267391,-0.03440244123339653,0.02004777453839779
1761132337638826500,7.666826416015625,-0.0045026009902358055,-0.035274527966976166,0.034700918942689896
1761132337658673400,7.68667333984375,-0.01528063416481018,-0.025326235219836235,0.02912261337041855
1761132337678521300,7.706521240234375,-0.018609998747706413,-0.013400626368820667,0.021139472723007202
1761132337698369500,7.72636962890625,-0.004214741289615631,-0.016408922150731087,0.034151434898376465
1761132337718217500,7.746217529296875,0.0017146035097539425,-0.018266862258315086,0.038250792771577835
1761132337738064600,7.766064697265625,-0.013877937570214272,-0.008696792647242546,0.011208520270884037
1761132337757912300,7.785912353515625,-0.0276433564722538,0.0026605131570249796,-0.022951602935791016
1761132337777760500,7.805760498046875,-0.031509190797805786,0.0054734875448048115,-0.024009212851524353
1761132337797608400,7.8256083984375,-0.029260888695716858,-0.003185114823281765,-0.02773994207382202
1761132337817455600,7.84545556640625,-0.01857721619307995,-0.008634344674646854,-0.017807265743613243
1761132337837303300,7.86530322265625,-0.01927288807928562,-0.02309822104871273,-0.008590266108512878
1761132337857151500,7.8851513671875,-0.015810050070285797,-0.029816320165991783,0.012872659601271152
1761132337876999400,7.90499951171875,-0.007276393938809633,-0.02912353165447712,0.03768309950828552
1761132337896846300,7.924846435546875,-0.01348108146339655,-0.015737337991595268,0.03009347803890705
1761132337916694500,7.944694580078125,-0.019647736102342606,-0.008707579225301743,-0.0042589446529746056
1761132337936542500,7.96454248046875,-0.023299826309084892,-0.006684666965156794,-0.03464682772755623
1761132337956390400,7.984390380859375,-0.0168035589158535,-0.011586655862629414,-0.030069243162870407
1761132337976237300,8.0042373046875,-0.004897993989288807,-0.0035818524193018675,0.003981598652899265
1761132337996084500,8.02408447265625,-7.550697773694992e-7,0.00916760228574276,0.01751048117876053
1761132338015931400,8.043931396484375,0.012438856065273285,0.010953701101243496,-0.003919584210962057
1761132338035779000,8.063779052734375,0.02161574736237526,0.011284545995295048,-0.02190110832452774
1761132338055627000,8.083626953125,0.038883306086063385,-0.008019058033823967,-0.007900653406977654
1761132338075475000,8.103474853515625,0.062178511172533035,-0.02198600582778454,0.020801298320293427
1761132338095321900,8.12332177734375,0.06697207689285278,-0.023540280759334564,0.03878378868103027
1761132338115170000,8.143170166015626,0.043559882789850235,-0.02322431467473507,0.036083392798900604
1761132338135018000,8.16301806640625,0.02854907512664795,-0.02336602658033371,0.03387359529733658
1761132338154866000,8.182865966796875,0.013867911882698536,-0.02770213596522808,0.035363584756851196
1761132338174712800,8.202712890625,-0.0016600536182522774,-0.028304610401391983,0.015381788834929466
1761132338194561000,8.22256103515625,-0.027919601649045944,-0.015865685418248177,-0.014312843792140484
1761132338214409200,8.2424091796875,-0.04359583184123039,-0.012362712994217873,-0.033355340361595154
1761132338234257000,8.2622568359375,-0.042487625032663345,-0.012661635875701904,-0.02605898305773735
1761132338254103800,8.282103759765626,-0.03867745026946068,-0.0141995744779706,-0.008793924935162067
1761132338273952000,8.301951904296875,-0.024492502212524414,-0.014379924163222313,-0.004831910133361816
1761132338293800000,8.321800048828125,-0.021785717457532883,-0.019088635221123695,-0.00952886138111353
1761132338313647900,8.34164794921875,-0.004395054187625647,-0.01996326632797718,0.005156391300261021
1761132338333496000,8.36149609375,0.014758878387510777,-0.014718624763190746,0.025510253384709358
1761132338353343000,8.381343017578125,0.02036021277308464,-0.005856970325112343,0.023374516516923904
1761132338373191000,8.40119091796875,0.011319544166326523,0.017695045098662376,-0.006757040973752737
1761132338393039000,8.4210390625,0.01045530941337347,0.02931831404566765,-0.023616183549165726
1761132338412888000,8.44088818359375,0.011359076015651226,0.025891249999403954,-0.01245303824543953
1761132338432736000,8.460736083984376,0.01024707779288292,0.022416159510612488,-0.014711832627654076
1761132338452584000,8.480583984375,0.0032220615539699793,0.01962769217789173,-0.009558727964758873
1761132338472430800,8.500430908203125,-0.004442879930138588,0.016459831967949867,-0.006440051831305027
1761132338492279000,8.520279052734375,-0.02022426761686802,0.007831228896975517,0.004533696454018354
1761132338512127000,8.540126953125,-0.027912769466638565,0.0037795440293848515,0.001379930879920721
1761132338531975000,8.559974853515625,-0.030453596264123917,-0.0011986804893240333,0.014582434669137001
1761132338551821800,8.57982177734375,-0.04132983088493347,0.008519518189132214,0.012222046963870525
1761132338571670000,8.599669921875,-0.044582705944776535,-0.0003632856532931328,0.04057096689939499
1761132338591518000,8.61951806640625,-0.02438434585928917,0.0026716692373156548,0.04999140650033951
1761132338611366100,8.6393662109375,-0.015836454927921295,0.011121426708996296,0.01841229759156704
1761132338631213000,8.659213134765626,-0.009850926697254181,0.016063999384641647,-0.02671600691974163
1761132338651061000,8.67906103515625,0.006059541366994381,0.007221321575343609,-0.03614933416247368
1761132338670909000,8.698908935546875,0.038530897349119186,0.010031305253505707,-0.01244695670902729
