time,seconds_elapsed,z,y,x
1761133629493145600,0.0711455078125,0.07821085304021835,0.037703290581703186,-0.05600680410861969
1761133629512991700,0.09099169921875,0.09669552743434906,0.13146184384822845,-0.09418561309576035
1761133629532838700,0.110838623046875,0.11581280082464218,0.19186151027679443,-0.0960061252117157
1761133629552684500,0.1306845703125,0.11988470703363419,0.16343750059604645,-0.08348755538463593
1761133629572531700,0.15053173828125,0.11708769202232361,0.08734067529439926,-0.05898255854845047
1761133629592378600,0.170378662109375,0.1273522526025772,0.0517658069729805,0.01416020281612873
1761133629612224500,0.190224609375,0.15390489995479584,0.03746190667152405,0.0791403129696846
1761133629632071700,0.21007177734375,0.2151418924331665,0.025230273604393005,0.0939062088727951
1761133629651918600,0.229918701171875,0.24461646378040314,-0.05641501396894455,0.06965769082307816
1761133629671764700,0.2497646484375,0.24683278799057007,-0.09621245414018631,0.01703105866909027
1761133629691611600,0.269611572265625,0.24872490763664246,-0.1397700011730194,-0.07769471406936646
1761133629711457800,0.289457763671875,0.24248763918876648,-0.11218764632940292,-0.12247028946876526
1761133629731304700,0.3093046875,0.25100377202033997,-0.05391901358962059,-0.10862307250499725
1761133629751151600,0.329151611328125,0.29390060901641846,-0.022832592949271202,-0.1120900958776474
1761133629770997500,0.34899755859375,0.32602307200431824,-0.028659768402576447,-0.1293928325176239
1761133629790844700,0.3688447265625,0.3428756296634674,-0.09359472244977951,-0.1616252362728119
1761133629810690600,0.388690673828125,0.35600048303604126,-0.14183175563812256,-0.15762516856193542
1761133629830537500,0.408537353515625,0.3730432689189911,-0.07594982534646988,-0.11109413951635361
1761133629850384600,0.428384521484375,0.3754083216190338,0.005874725989997387,-0.06696780025959015
1761133629870230800,0.448230712890625,0.359752357006073,0.07558571547269821,-0.046460092067718506
1761133629890077700,0.46807763671875,0.3318434953689575,0.14433468878269196,-0.0940590426325798
1761133629909924900,0.4879248046875,0.29900670051574707,0.18586528301239014,-0.19988378882408142
1761133629929770800,0.507770751953125,0.25008639693260193,0.14753961563110352,-0.2390272170305252
1761133629949617700,0.52761767578125,0.2188793569803238,0.13564805686473846,-0.17464300990104675
1761133629969463600,0.547463623046875,0.19592534005641937,0.12424466013908386,-0.09923078864812851
1761133629989310700,0.567310791015625,0.17494027316570282,0.10161533206701279,-0.08888000249862671
1761133630009157600,0.58715771484375,0.14010699093341827,0.1410447210073471,-0.12000243365764618
1761133630029003500,0.60700341796875,0.1080772653222084,0.30526676774024963,-0.17172351479530334
1761133630048850400,0.626850341796875,0.0832565426826477,0.42721396684646606,-0.3279677629470825
1761133630068696800,0.64669677734375,0.07754608988761902,0.4208783805370331,-0.46516209840774536
1761133630088543700,0.666543701171875,0.09788484126329422,0.3263961374759674,-0.42758098244667053
1761133630108390700,0.686390625,0.1423427015542984,0.28440362215042114,-0.23814146220684052
1761133630128236500,0.706236572265625,0.21912193298339844,0.24097269773483276,-0.06814689934253693
1761133630148083700,0.726083740234375,0.296000212430954,0.14038097858428955,-0.03013836219906807
1761133630167930600,0.7459306640625,0.3630295395851135,0.04054189845919609,-0.015683148056268692
1761133630187776500,0.765776611328125,0.44282057881355286,-0.08772837370634079,0.018471550196409225
1761133630207623700,0.785623779296875,0.472041517496109,-0.19988064467906952,0.08343510329723358
1761133630227469600,0.805469482421875,0.39186957478523254,-0.2545528709888458,0.188127338886261
1761133630247316500,0.82531640625,0.2735275626182556,-0.19839993119239807,0.3787881135940552
1761133630267163400,0.845163330078125,0.2059747725725174,-0.14355674386024475,0.5505244731903076
1761133630287009800,0.865009765625,0.24172011017799377,-0.04826033115386963,0.5588432550430298
1761133630306856700,0.884856689453125,0.3042038083076477,0.09398073703050613,0.3750131130218506
1761133630326702600,0.90470263671875,0.33450567722320557,0.1870860904455185,0.11674197018146515
1761133630346549500,0.924549560546875,0.3132353127002716,0.224935844540596,0.011981330811977386
1761133630366396400,0.944396484375,0.2873588800430298,0.21018411219120026,0.07887832820415497
1761133630386242300,0.9642421875,0.24062873423099518,0.2057260125875473,0.20355212688446045
1761133630406089500,0.98408935546875,0.20918205380439758,0.4121176302433014,0.22531498968601227
1761133630425935600,1.003935546875,0.14732742309570312,0.5090588927268982,-0.005165070295333862
1761133630445782500,1.023782470703125,0.030607368797063828,0.40838995575904846,-0.3278074860572815
1761133630465629700,1.043629638671875,-0.12841062247753143,0.5023146271705627,-0.6590020656585693
1761133630485475600,1.0634755859375,-0.33591824769973755,0.9688408970832825,-0.8482126593589783
1761133630505322500,1.083322509765625,-0.4418737590312958,1.2877781391143799,-0.7798888683319092
1761133630525169700,1.103169677734375,-0.44171252846717834,1.2727588415145874,-0.37256893515586853
1761133630545015600,1.123015625,-0.2548746168613434,1.068268060684204,0.4914906322956085
1761133630564862500,1.142862548828125,-0.05458777770400047,0.6628006100654602,1.4622834920883179
1761133630584708400,1.162708251953125,-0.05246513709425926,0.23385734856128693,2.1184046268463135
1761133630604555500,1.182555419921875,-0.174734964966774,-0.1317300796508789,2.2437751293182373
1761133630624402400,1.20240234375,-0.16259148716926575,-0.35047635436058044,2.12269926071167
1761133630644248600,1.22224853515625,0.017780836671590805,-0.4014211595058441,1.914939284324646
1761133630664095500,1.242095458984375,0.1478365808725357,-0.24506983160972595,1.6039143800735474
1761133630683941600,1.261941650390625,0.22743703424930573,-0.1290907859802246,1.2262042760849
1761133630703788500,1.28178857421875,0.2563369870185852,-0.021095680072903633,0.849083662033081
1761133630723635500,1.301635498046875,0.27833569049835205,0.05902343615889549,0.5373483896255493
1761133630743481300,1.3214814453125,0.34584271907806396,0.10340647399425507,0.3651140332221985
1761133630763328500,1.34132861328125,0.4283977150917053,0.24842633306980133,0.3304726779460907
1761133630783175400,1.361175537109375,0.501213788986206,0.3611810505390167,0.33712029457092285
1761133630803021300,1.381021240234375,0.5113316774368286,0.2685423493385315,0.277646541595459
1761133630822868500,1.400868408203125,0.45483553409576416,0.07822413742542267,0.2509150505065918
1761133630842714600,1.420714599609375,0.4392480254173279,0.12443724274635315,0.5065377950668335
1761133630862561500,1.4405615234375,0.4441947340965271,0.3177777826786041,1.0396203994750977
1761133630882408700,1.46040869140625,0.46384814381599426,0.41415339708328247,1.6018482446670532
1761133630902254600,1.480254638671875,0.461416631937027,0.38940492272377014,1.9180777072906494
1761133630922101500,1.5001015625,0.47944357991218567,0.45335736870765686,1.8159103393554688
1761133630941947400,1.519947509765625,0.5357670187950134,0.7657668590545654,1.4537177085876465
1761133630961794600,1.539794677734375,0.53228759765625,0.9814794659614563,0.8864783048629761
1761133630981641500,1.559641357421875,0.4919814467430115,0.8401140570640564,0.0890064686536789
1761133631001487600,1.579487548828125,0.49401310086250305,0.3398968577384949,-1.164056420326233
1761133631021334500,1.59933447265625,0.45758914947509766,0.902012825012207,-2.0792934894561768
1761133631041180700,1.6191806640625,0.2988675832748413,1.6301499605178833,-2.7499866485595703
1761133631061027600,1.639027587890625,0.06999893486499786,1.749332070350647,-3.0921504497528076
1761133631080874500,1.65887451171875,-0.05425123870372772,1.1503915786743164,-3.112591028213501
1761133631100720400,1.678720458984375,-0.04876936599612236,0.6514127850532532,-2.859034299850464
1761133631120567600,1.698567626953125,-0.03189121559262276,0.4783039391040802,-2.3367295265197754
1761133631140413400,1.718413330078125,0.024018732830882072,0.22789940237998962,-1.8211326599121094
1761133631160260400,1.73826025390625,0.06843765825033188,-0.1759968400001526,-1.5853079557418823
1761133631180107500,1.758107421875,-0.1728539615869522,-0.007714073173701763,-1.638719916343689
1761133631199953700,1.77795361328125,-0.47968438267707825,0.5065392255783081,-1.7403757572174072
1761133631219800600,1.797800537109375,-0.4888016879558563,0.7557526230812073,-1.4674980640411377
1761133631239647500,1.8176474609375,-0.3026411235332489,0.1701684594154358,-0.9767835140228271
1761133631259493600,1.83749365234375,-0.562545895576477,-0.5042884945869446,-0.6556800603866577
1761133631279340500,1.857340576171875,-1.312201738357544,-1.2998759746551514,-0.7051180601119995
1761133631299186400,1.8771865234375,-1.989240050315857,-2.1741082668304443,-0.8482022285461426
1761133631319033600,1.89703369140625,-2.0177009105682373,-2.1405556201934814,-0.8884052038192749
1761133631338880300,1.91688037109375,-1.3692691326141357,-1.7002836465835571,-1.023157000541687
1761133631358726100,1.93672607421875,-0.6052494049072266,-1.301206111907959,-1.0317776203155518
1761133631378573300,1.9565732421875,-0.26599228382110596,-1.4256114959716797,-0.8118554949760437
1761133631398419500,1.97641943359375,-0.37654316425323486,-1.4603078365325928,-0.6750853061676025
1761133631418266400,1.996266357421875,-0.4388152062892914,-1.2172601222991943,-0.796697199344635
1761133631438113500,2.016113525390625,-0.2926616668701172,-0.9923950433731079,-0.7715546488761902
1761133631457959400,2.03595947265625,-0.031725943088531494,-0.943647563457489,-0.5340693593025208
1761133631477806300,2.055806396484375,0.153124138712883,-0.955629289150238,-0.3563508987426758
1761133631497652200,2.07565234375,0.14552323520183563,-0.9285988211631775,-0.35887643694877625
1761133631517499400,2.09549951171875,-0.0005945819430053234,-0.7839393019676208,-0.45909383893013
1761133631537346300,2.11534619140625,-0.16212619841098785,-0.45785796642303467,-0.5495198965072632
1761133631557192400,2.1351923828125,-0.26677405834198,-0.027879735454916954,-0.5094398856163025
1761133631577039400,2.155039306640625,-0.22612550854682922,0.2622745931148529,-0.3257589042186737
1761133631596885500,2.174885498046875,-0.07589210569858551,0.4160658121109009,-0.013595073483884335
1761133631616732400,2.194732421875,0.06584342569112778,0.4650801122188568,0.2740677297115326
1761133631636579300,2.214579345703125,0.12439064681529999,0.39307793974876404,0.41964876651763916
1761133631656425500,2.234425537109375,0.09839370101690292,0.31514766812324524,0.4649384021759033
1761133631676272400,2.2542724609375,0.04574353247880936,0.2730797529220581,0.4605867266654968
1761133631696118300,2.2741181640625,-0.004388496745377779,0.26934346556663513,0.44767147302627563
1761133631715965200,2.293965087890625,-0.05450424179434776,0.20740701258182526,0.4338158369064331
1761133631735812400,2.313812255859375,-0.08904767036437988,0.10052574425935745,0.4585002362728119
1761133631755658500,2.333658447265625,-0.07425791025161743,0.06911981105804443,0.46581655740737915
1761133631775505400,2.35350537109375,-0.08522152155637741,0.05450599640607834,0.368548721075058
1761133631795351300,2.373351318359375,-0.14793537557125092,0.07546587288379669,0.18974262475967407
1761133631815198500,2.393198486328125,-0.1995941400527954,0.14238883554935455,0.05375094339251518
1761133631835045400,2.41304541015625,-0.20957747101783752,0.2099941372871399,-0.01775652915239334
1761133631854891300,2.432891357421875,-0.1749754250049591,0.24822235107421875,-0.018304089084267616
1761133631874738400,2.452738525390625,-0.15100505948066711,0.25183582305908203,-0.009662508964538574
1761133631894584300,2.472584228515625,-0.14730894565582275,0.2723965048789978,-0.005114486441016197
1761133631914431200,2.49243115234375,-0.12248240411281586,0.24904155731201172,0.02715340629220009
1761133631934278400,2.5122783203125,-0.03854711353778839,0.11273135989904404,0.11464131623506546
1761133631954124500,2.53212451171875,0.061265502125024796,-0.05631305277347565,0.3483472764492035
1761133631973971500,2.551971435546875,0.07910072803497314,-0.22022482752799988,0.5549131631851196
1761133631993817300,2.5718173828125,0.024324996396899223,-0.19244621694087982,0.5853431820869446
1761133632013664500,2.59166455078125,-0.024419907480478287,-0.0057288105599582195,0.39061203598976135
1761133632033511400,2.611511474609375,-0.056577812880277634,0.1970154345035553,0.19366884231567383
1761133632053357300,2.631357421875,-0.07443156093358994,0.24197779595851898,0.17353880405426025
1761133632073204200,2.651204345703125,-0.014387410134077072,0.1490161120891571,0.31632545590400696
1761133632093050400,2.67105029296875,0.07553844153881073,0.19906358420848846,0.5537976622581482
1761133632112897300,2.690897216796875,0.10624277591705322,0.47841715812683105,0.6503595113754272
1761133632132744200,2.710744140625,0.0673016682267189,0.822353720664978,0.6574000120162964
1761133632152590300,2.73059033203125,0.05162055045366287,0.9569191336631775,0.7290078401565552
1761133632172437500,2.7504375,0.13072305917739868,0.8601489663124084,0.8975731730461121
1761133632192284400,2.770284423828125,0.2832320034503937,0.6085931658744812,1.1090000867843628
1761133632212130300,2.79013037109375,0.3384816646575928,0.3380527198314667,1.3520058393478394
1761133632231977500,2.8099775390625,0.3524535596370697,0.15503180027008057,1.4415568113327026
1761133632251823400,2.8298232421875,0.3186448812484741,0.08000102639198303,1.2736833095550537
1761133632271670300,2.849670166015625,0.17635883390903473,0.06907999515533447,1.0451844930648804
1761133632291517400,2.869517333984375,-0.033112965524196625,0.08234850317239761,0.9673045873641968
1761133632311363600,2.889363525390625,-0.19167691469192505,0.08843456208705902,1.1183983087539673
1761133632331210800,2.909210693359375,-0.23443178832530975,0.004557813983410597,1.2889113426208496
1761133632351057000,2.929056884765625,-0.16244280338287354,-0.06372317671775818,1.3085514307022095
1761133632370903800,2.94890380859375,-0.21042588353157043,-0.04273089021444321,1.2661381959915161
1761133632390751000,2.9687509765625,-0.38376322388648987,0.053935155272483826,1.2540614604949951
1761133632410596900,2.988596923828125,-0.6239330172538757,0.007532216142863035,1.237545371055603
1761133632430443800,3.00844384765625,-0.8390620946884155,-0.2138020396232605,1.1500905752182007
1761133632450289700,3.02828955078125,-0.8587692379951477,-0.24894563853740692,1.049103021621704
1761133632470136800,3.04813671875,-0.6114927530288696,-0.0728183314204216,1.072532296180725
1761133632489983700,3.067983642578125,-0.3258076012134552,0.04759681224822998,1.0727204084396362
1761133632509829600,3.08782958984375,-0.05458226054906845,0.08836615830659866,0.8661527037620544
1761133632529676800,3.1076767578125,0.10008442401885986,0.12603983283042908,0.7119351029396057
1761133632549523000,3.12752294921875,0.19298133254051208,-0.0815051719546318,0.6098467111587524
1761133632569369900,3.147369873046875,0.30870485305786133,-0.36343082785606384,0.5213875770568848
1761133632589216800,3.167216796875,0.43426743149757385,-0.5499535202980042,0.37075433135032654
1761133632609063000,3.18706298828125,0.5296337604522705,-0.5466029644012451,0.18955856561660767
1761133632628909800,3.206909912109375,0.5259400606155396,-0.28885772824287415,0.006251149345189333
1761133632648755700,3.226755615234375,0.4624548554420471,0.06166645884513855,-0.17414869368076324
1761133632668602600,3.2466025390625,0.32455191016197205,0.40624377131462097,-0.23782719671726227
1761133632688449800,3.26644970703125,0.2858613431453705,0.5461351275444031,-0.31496551632881165
1761133632708296000,3.2862958984375,0.3140694499015808,0.40627673268318176,-0.48831039667129517
1761133632728142800,3.306142822265625,0.3756554424762726,0.1873866617679596,-0.6873011589050293
1761133632747988700,3.32598876953125,0.4338154196739197,0.1603212207555771,-0.8481736779212952
1761133632767836000,3.3458359375,0.452144056558609,0.2030213177204132,-1.0311909914016724
1761133632787682800,3.365682861328125,0.3945753872394562,0.4247386157512665,-1.1457273960113525
1761133632807528700,3.38552880859375,0.44442132115364075,0.5427793264389038,-1.14992356300354
1761133632827375900,3.4053759765625,0.5197423696517944,0.3155997395515442,-1.0270634889602661
1761133632847221800,3.4252216796875,0.4943985044956207,-0.011693569831550121,-0.8920723795890808
1761133632867068700,3.445068603515625,0.4192047417163849,-0.2129068523645401,-0.875254213809967
1761133632886915600,3.46491552734375,0.4023069143295288,-0.4041030704975128,-0.9630846977233887
1761133632906762000,3.484761962890625,0.3924693763256073,-0.7153316736221313,-1.0783861875534058
1761133632926609000,3.50460888671875,0.17635340988636017,-0.8319303393363953,-1.2590956687927246
1761133632946454800,3.524454833984375,-0.13593433797359467,-0.8149427175521851,-1.659704566001892
1761133632966301700,3.5443017578125,-0.2538050711154938,-0.7299047112464905,-1.8841065168380737
1761133632986148900,3.56414892578125,-0.08737363666296005,-1.0120506286621094,-1.7700612545013428
1761133633005994800,3.583994873046875,-0.036410775035619736,-1.1079072952270508,-1.5220787525177002
1761133633025841700,3.603841552734375,-0.19991017878055573,-0.7982849478721619,-1.6923567056655884
1761133633045687800,3.623687744140625,-0.3124849796295166,-0.4141228199005127,-2.0474514961242676
1761133633065534700,3.64353466796875,-0.10383611172437668,-0.33122316002845764,-1.8047044277191162
1761133633085381600,3.663381591796875,0.28999456763267517,-0.540062665939331,-1.2058130502700806
1761133633105227800,3.683227783203125,0.21560464799404144,-0.4735867381095886,-1.0315572023391724
1761133633125075000,3.703074951171875,-0.13232140243053436,-0.5714988708496094,-1.4611766338348389
1761133633144920800,3.7229208984375,-0.2797621786594391,-0.7342022657394409,-1.5329387187957764
1761133633164767700,3.742767822265625,-0.11448263376951218,-0.8193435668945312,-0.9798083305358887
1761133633184615000,3.762614990234375,-0.02558981440961361,-0.4051258862018585,-0.44721826910972595
1761133633204460800,3.782460693359375,-0.11478880792856216,0.06248386576771736,-0.4884546101093292
1761133633224307700,3.8023076171875,-0.24239560961723328,0.3108919858932495,-0.7216894030570984
1761133633244153900,3.82215380859375,-0.30070337653160095,0.3584941327571869,-0.5775612592697144
1761133633264000800,3.842000732421875,-0.20212484896183014,0.4601774513721466,-0.08192341029644012
1761133633283848000,3.861847900390625,-0.0589592419564724,0.5936315655708313,0.3592700958251953
1761133633303693800,3.88169384765625,-0.013284736312925816,0.5956510305404663,0.5167491436004639
1761133633323540700,3.901540771484375,-0.040830083191394806,0.5274120569229126,0.5074265003204346
1761133633343386000,3.92138623046875,-0.08820552378892899,0.3920469284057617,0.46205389499664307
1761133633363233000,3.94123291015625,-0.14673009514808655,0.20243969559669495,0.42811164259910583
1761133633383080200,3.961080078125,-0.24292872846126556,-0.06334787607192993,0.41832873225212097
1761133633402926000,3.980926025390625,-0.251821368932724,-0.23161466419696808,0.4752161204814911
1761133633422773200,4.000773193359375,-0.17830830812454224,-0.20385010540485382,0.5086555480957031
1761133633442619100,4.020619140625,-0.15667204558849335,-0.12070142477750778,0.4249792993068695
1761133633462466300,4.04046630859375,-0.18559865653514862,0.022036373615264893,0.3033190965652466
1761133633482313200,4.060313232421875,-0.22875526547431946,0.1510724425315857,0.17982777953147888
1761133633502159000,4.0801591796875,-0.23272112011909485,0.21213404834270477,0.14585404098033905
1761133633522006000,4.100006103515625,-0.21112139523029327,0.20371674001216888,0.19906024634838104
1761133633541852200,4.11985205078125,-0.18354888260364532,0.1274166852235794,0.2507818639278412
1761133633561699000,4.139698974609375,-0.15656568109989166,0.10888099670410156,0.2722969949245453
1761133633581546000,4.1595458984375,-0.128149151802063,0.17847341299057007,0.21824367344379425
1761133633601392000,4.17939208984375,-0.11879488825798035,0.26293161511421204,0.14013713598251343
1761133633621239300,4.1992392578125,-0.13397178053855896,0.32957684993743896,0.1108454018831253
1761133633641085200,4.219085205078125,-0.15534812211990356,0.33289146423339844,0.10522862523794174
1761133633660932000,4.23893212890625,-0.132307231426239,0.2520281672477722,0.1070181280374527
1761133633680779300,4.258779296875,-0.04816783219575882,0.13089939951896667,0.14548781514167786
1761133633700625200,4.278625244140625,0.003237571567296982,0.0652962327003479,0.2548738121986389
1761133633720472000,4.29847216796875,0.013448510318994522,0.0908225029706955,0.3661201596260071
1761133633740318000,4.31831787109375,-0.026690341532230377,0.1474521905183792,0.44202131032943726
1761133633760165000,4.3381650390625,-0.07585953921079636,0.23431862890720367,0.5113409161567688
1761133633780012000,4.358011962890625,-0.12284011393785477,0.41753920912742615,0.5803717970848083
1761133633799858200,4.377858154296875,-0.003285728394985199,0.6304854154586792,0.6170071959495544
1761133633819705300,4.397705322265625,0.257109135389328,0.558872640132904,0.5784570574760437
1761133633839551200,4.41755126953125,0.4059388339519501,0.2113969773054123,0.4821116030216217
1761133633859398100,4.437398193359375,0.4413350522518158,0.011686518788337708,0.5708470344543457
1761133633879245000,4.4572451171875,0.46929189562797546,-0.22467710077762604,0.7734599113464355
1761133633899092200,4.47709228515625,0.43170619010925293,-0.42277270555496216,0.89082270860672
1761133633918938000,4.496938232421875,0.36354967951774597,-0.5339536666870117,0.9345308542251587
1761133633938785000,4.516784912109375,0.30051231384277344,-0.4013775587081909,1.033837080001831
1761133633958631000,4.536630859375,0.2924051582813263,-0.2628813683986664,0.8591980338096619
1761133633978478000,4.55647802734375,0.22017090022563934,-0.23035591840744019,0.45630621910095215
1761133633998325000,4.576324951171875,0.061803728342056274,-0.264638215303421,0.2303192913532257
1761133634018171100,4.596171142578125,-0.04215407371520996,-0.3981988728046417,0.25919783115386963
1761133634038018300,4.616018310546875,0.020618928596377373,-0.7079668641090393,0.3211686909198761
1761133634057865200,4.635865234375,0.16847486793994904,-1.0946044921875,0.3648187220096588
1761133634077711000,4.655711181640625,0.07459110766649246,-1.0618739128112793,0.4699937701225281
1761133634097558000,4.67555810546875,-0.10543262958526611,-0.5269274711608887,0.610670804977417
1761133634117404200,4.695404052734375,-0.17623023688793182,-0.23018819093704224,0.6168646812438965
1761133634137251000,4.7152509765625,-0.2197839915752411,-0.19187602400779724,0.5850418210029602
1761133634157098000,4.735097900390625,-0.21708659827709198,-0.2457381784915924,0.504919171333313
1761133634176944000,4.754944091796875,-0.29292428493499756,-0.13982698321342468,0.5036717653274536
1761133634196791300,4.774791259765625,-0.38318654894828796,0.049414049834012985,0.6410141587257385
1761133634216637200,4.79463720703125,-0.33300963044166565,0.25814446806907654,0.7656859755516052
1761133634236484000,4.814484130859375,-0.28688040375709534,0.43985146284103394,0.7990909218788147
1761133634256331300,4.834331298828125,-0.2950141429901123,0.6502910852432251,0.7762448787689209
1761133634276177200,4.85417724609375,-0.34909388422966003,0.9451969861984253,0.673201858997345
1761133634296024000,4.874024169921875,-0.3760959804058075,1.2664369344711304,0.5128716230392456
1761133634315870000,4.893869873046875,-0.37359923124313354,1.3021023273468018,0.4638938307762146
1761133634335717000,4.913717041015625,-0.3302934169769287,0.8952005505561829,0.5508636832237244
1761133634355564300,4.933564208984375,-0.27962687611579895,0.3911965787410736,0.6644290685653687
1761133634375410400,4.953410400390625,-0.2515302002429962,0.09687966853380203,0.7075230479240417
1761133634395257300,4.97325732421875,-0.22064422070980072,0.09612755477428436,0.6774710416793823
1761133634415103200,4.993103271484375,-0.18448083102703094,0.25080299377441406,0.6466525793075562
1761133634434950400,5.012950439453125,-0.12244825065135956,0.38423779606819153,0.678977370262146
1761133634454797300,5.03279736328125,-0.02526584081351757,0.32100149989128113,0.7259019017219543
1761133634474643200,5.052643310546875,0.07378367334604263,0.12311337143182755,0.7660626769065857
1761133634494490400,5.072490478515625,0.17349271476268768,-0.05167902633547783,0.7217263579368591
1761133634514336300,5.092336181640625,0.2674862742424011,0.013634844683110714,0.5597534775733948
1761133634534183200,5.11218310546875,0.30925798416137695,0.3202320635318756,0.29351386427879333
1761133634554030000,5.132030029296875,0.2854844629764557,0.6258670687675476,0.005658632609993219
1761133634573876500,5.15187646484375,0.2383868396282196,0.6289065480232239,-0.224082350730896
1761133634593723400,5.171723388671875,0.20617595314979553,0.41739144921302795,-0.2955763638019562
1761133634613569300,5.1915693359375,0.23977385461330414,0.07595869898796082,-0.28137218952178955
1761133634633416400,5.21141650390625,0.29930827021598816,-0.24965280294418335,-0.25076645612716675
1761133634653263400,5.231263427734375,0.27640438079833984,-0.3459353744983673,-0.29927346110343933
1761133634673109200,5.251109130859375,0.24253436923027039,-0.38151511549949646,-0.4972204864025116
1761133634692956200,5.2709560546875,0.1991080790758133,-0.3948928415775299,-0.7443933486938477
1761133634712802300,5.29080224609375,0.18311195075511932,-0.39006978273391724,-0.8541644215583801
1761133634732649200,5.310649169921875,0.30783796310424805,-0.30477485060691833,-0.7601339221000671
1761133634752496000,5.33049609375,0.4799961447715759,-0.2105334848165512,-0.5793430209159851
1761133634772342300,5.35034228515625,0.5306413769721985,-0.20923615992069244,-0.5838546752929688
1761133634792189400,5.370189453125,0.2875514328479767,-0.42692703008651733,-0.7621077299118042
1761133634812035300,5.390035400390625,-0.027995087206363678,-0.566525936126709,-0.7355839610099792
1761133634831882200,5.40988232421875,-0.11737967282533646,-0.6944441199302673,-0.7691413760185242
1761133634851729400,5.4297294921875,-0.1462293416261673,-0.6550441980361938,-1.145703673362732
1761133634871575300,5.4495751953125,-0.16221661865711212,-0.4737663269042969,-1.6116461753845215
1761133634891422200,5.469422119140625,-0.1850462108850479,-0.27504396438598633,-1.8055610656738281
1761133634911268400,5.489268310546875,-0.3583191931247711,-0.28749895095825195,-1.8238812685012817
1761133634931115300,5.509115234375,-0.521188497543335,-0.29826900362968445,-1.8380687236785889
1761133634950962400,5.52896240234375,-0.4144890010356903,-0.16056737303733826,-1.782436490058899
1761133634970808300,5.548808349609375,-0.21385622024536133,-0.170266792178154,-1.5708351135253906
1761133634990655200,5.5686552734375,-0.20679119229316711,-0.11528226733207703,-1.3889150619506836
1761133635010501400,5.58850146484375,-0.23883746564388275,0.07145795971155167,-1.4014116525650024
1761133635030348300,5.608348388671875,-0.1195605993270874,0.013797118328511715,-1.2461974620819092
1761133635050195200,5.6281953125,0.06611888110637665,-0.16405153274536133,-0.6755028367042542
1761133635070041000,5.648041015625,0.13098369538784027,-0.18180863559246063,-0.2939460575580597
1761133635089888300,5.66788818359375,0.15583282709121704,-0.10649988800287247,-0.2784351110458374
1761133635109734400,5.687734375,0.17390108108520508,0.030184229835867882,-0.21796822547912598
1761133635129581300,5.707581298828125,0.2754829227924347,0.007900714874267578,-0.012922124937176704
1761133635149428500,5.727428466796875,0.272721529006958,-0.050914864987134933,0.14484208822250366
1761133635169274400,5.7472744140625,0.10732937604188919,-0.025363782420754433,0.12440408021211624
1761133635189121300,5.767121337890625,-0.035972874611616135,0.08343943953514099,0.03412780165672302
1761133635208967200,5.78696728515625,-0.06307227909564972,0.1216442883014679,-0.013756319880485535
1761133635228814300,5.806814453125,0.03848850354552269,0.149796724319458,0.042868610471487045
1761133635248661200,5.8266611328125,0.13045254349708557,0.1602737158536911,0.15194354951381683
1761133635268507100,5.846507080078125,0.13861125707626343,0.15845319628715515,0.23056769371032715
1761133635288354300,5.866354248046875,0.09875404089689255,0.13566716015338898,0.26517802476882935
1761133635308200400,5.886200439453125,0.057387594133615494,0.13220928609371185,0.26108166575431824
1761133635328047400,5.90604736328125,0.040776077657938004,0.12544243037700653,0.16564959287643433
1761133635347893200,5.925893310546875,0.033764470368623734,0.12650130689144135,0.03603218123316765
1761133635367740200,5.945740234375,0.04160270094871521,0.1179492324590683,-0.0369449183344841
1761133635387587300,5.96558740234375,0.043867286294698715,0.07754723727703094,-0.05791936069726944
1761133635407433200,5.98543310546875,0.010656861588358879,0.044915005564689636,-0.035977791994810104
1761133635427280100,6.005280029296875,-0.00227447971701622,0.02320588380098343,0.026305846869945526
1761133635447126300,6.025126220703125,0.03582308068871498,0.039303768426179886,0.1351507008075714
1761133635466973200,6.04497314453125,0.08654532581567764,0.08052040636539459,0.22654125094413757
1761133635486820000,6.064820068359375,0.08903010934591293,0.14332444965839386,0.24951882660388947
1761133635506666200,6.084666259765625,0.03903697431087494,0.2167661190032959,0.18016766011714935
1761133635526513400,6.104513427734375,0.019579794257879257,0.2667377293109894,0.13120460510253906
1761133635546359300,6.124359375,0.03203272819519043,0.2834751009941101,0.1416424810886383
1761133635566206200,6.144206298828125,0.043600164353847504,0.23617710173130035,0.18384724855422974
1761133635586053400,6.164053466796875,-0.011022467166185379,0.1704809069633484,0.3168749213218689
1761133635605899300,6.183899169921875,-0.09732387959957123,0.09650924801826477,0.496319442987442
1761133635625746200,6.20374609375,-0.13206464052200317,0.11405147612094879,0.6105186343193054
1761133635645592300,6.22359228515625,-0.12131714075803757,0.2254219800233841,0.6199036836624146
1761133635665439500,6.243439453125,-0.13389328122138977,0.35367724299430847,0.5657860040664673
1761133635685286400,6.263286376953125,-0.15598727762699127,0.4377800226211548,0.5406069755554199
1761133635705132300,6.28313232421875,-0.17780625820159912,0.35244885087013245,0.6513579487800598
1761133635724979200,6.302979248046875,-0.13360899686813354,0.1962527185678482,0.983947217464447
1761133635744825300,6.322825439453125,-0.011884214356541634,0.0827108770608902,1.2982981204986572
1761133635764672300,6.34267236328125,0.09728461503982544,-0.1165071502327919,1.395017147064209
1761133635784519200,6.362519287109375,0.12684611976146698,-0.30809682607650757,1.359076738357544
1761133635804365000,6.382364990234375,0.10219518840312958,-0.46219736337661743,1.2031798362731934
1761133635824212200,6.402212158203125,-0.027847634628415108,-0.49428850412368774,1.0694212913513184
1761133635844058400,6.422058349609375,-0.1179727166891098,-0.39276123046875,0.9887135624885559
1761133635863905300,6.4419052734375,-0.14020593464374542,-0.3119467496871948,0.8546605706214905
1761133635883752400,6.46175244140625,-0.254500150680542,-0.28649139404296875,0.6642743945121765
1761133635903598300,6.481598388671875,-0.4581143856048584,-0.16662481427192688,0.6551027297973633
1761133635923445200,6.5014453125,-0.5843849182128906,-0.2647472023963928,0.7132243514060974
1761133635943291100,6.521291015625,-0.6684366464614868,-0.24212633073329926,0.8759733438491821
1761133635963138300,6.54113818359375,-0.676719605922699,-0.16381168365478516,0.9584062099456787
1761133635982985200,6.560985107421875,-0.6655228734016418,-0.049928124994039536,0.8612164855003357
1761133636002831000,6.5808310546875,-0.5973149538040161,0.07841658592224121,0.6445357203483582
1761133636022678000,6.600677978515625,-0.4704810082912445,0.25144803524017334,0.41749313473701477
1761133636042524400,6.6205244140625,-0.3203626573085785,0.2837176024913788,0.23657123744487762
1761133636062371300,6.640371337890625,-0.2248910367488861,0.2070370465517044,0.09160001575946808
1761133636082218200,6.66021826171875,-0.1517678201198578,0.19269943237304688,0.00174368591979146
1761133636102064400,6.680064453125,-0.08987552672624588,0.23603931069374084,0.016899485141038895
1761133636121911300,6.699911376953125,0.00908718816936016,0.38878148794174194,0.14291326701641083
1761133636141757200,6.719757080078125,0.11330894380807877,0.532568097114563,0.2460813820362091
1761133636161604000,6.73960400390625,0.15389423072338104,0.5371446013450623,0.1866305023431778
1761133636181451300,6.759451171875,0.1124727874994278,0.5498814582824707,0.04832857474684715
1761133636201297400,6.77929736328125,-0.0015944060869514942,0.7466485500335693,0.10654681921005249
1761133636221144300,6.799144287109375,0.009396722540259361,1.015300989151001,0.4596024751663208
1761133636240990200,6.818990234375,0.20234692096710205,0.9864398241043091,0.9118831753730774
1761133636260837400,6.83883740234375,0.3420960009098053,0.6951081156730652,1.2863383293151855
1761133636280683300,6.858683349609375,0.4049786329269409,0.3795695900917053,1.3999077081680298
1761133636300530200,6.8785302734375,0.3327566981315613,0.05085527151823044,1.0666182041168213
1761133636320377300,6.89837744140625,0.2376030832529068,-0.11156132072210312,0.4585344195365906
1761133636340223200,6.91822314453125,0.17178775370121002,-0.06108531355857849,-0.07028014957904816
1761133636360070400,6.9380703125,0.11299026757478714,0.1128140315413475,-0.45615777373313904
1761133636379917300,6.957917236328125,0.10449405759572983,0.3277722895145416,-0.7987913489341736
1761133636399763500,6.977763427734375,0.16918769478797913,0.38707229495048523,-1.1627740859985352
1761133636419610400,6.9976103515625,0.3299090266227722,0.2828470766544342,-1.3937290906906128
1761133636439456500,7.01745654296875,0.42978549003601074,0.0006290564779192209,-1.425506353378296
1761133636459303400,7.037303466796875,0.36704856157302856,-0.3017226755619049,-1.3852804899215698
1761133636479150300,7.057150390625,0.33657845854759216,-0.5560276508331299,-1.3223297595977783
1761133636498996500,7.07699658203125,0.4258839190006256,-0.8136940002441406,-1.1513139009475708
1761133636518843400,7.096843505859375,0.6514694690704346,-0.9737488627433777,-0.9220800995826721
1761133636538689300,7.116689208984375,0.9442630410194397,-1.0528738498687744,-0.7910784482955933
1761133636558536200,7.1365361328125,1.101832389831543,-0.964945912361145,-0.8257397413253784
1761133636578382600,7.156382568359375,1.0418484210968018,-0.8919772505760193,-0.9798305630683899
1761133636598229500,7.1762294921875,0.7070304155349731,-0.7880484461784363,-1.2408804893493652
1761133636618076400,7.196076416015625,0.2733346223831177,-0.7779135704040527,-1.5751636028289795
1761133636637922300,7.21592236328125,0.05788862332701683,-0.7346102595329285,-1.7651418447494507
1761133636657769500,7.23576953125,0.08346956968307495,-0.5879430174827576,-1.677583932876587
1761133636677615400,7.255615478515625,0.11078286170959473,-0.47429612278938293,-1.5643022060394287
1761133636697462300,7.275462158203125,0.052383292466402054,-0.4804344177246094,-1.5543994903564453
1761133636717309400,7.295309326171875,-0.03079701028764248,-0.34445491433143616,-1.4595304727554321
1761133636737155300,7.3151552734375,0.0005928081809543073,-0.3372148871421814,-1.2176661491394043
1761133636757002200,7.335002197265625,0.0022386712953448296,-0.29369115829467773,-0.873611569404602
1761133636776848400,7.354848388671875,-0.03919324651360512,-0.15376774966716766,-0.6372796893119812
1761133636796695600,7.374695556640625,-0.08069164305925369,-0.008552989922463894,-0.6691139340400696
1761133636816542500,7.39454248046875,-0.01648922823369503,0.06610121577978134,-0.7390550374984741
1761133636836388400,7.414388427734375,0.06530844420194626,0.056573815643787384,-0.627013087272644
1761133636856235300,7.4342353515625,0.09807341545820236,0.0757896676659584,-0.3202367424964905
1761133636876081400,7.454081298828125,0.09819332510232925,0.17854897677898407,-0.01570318266749382
1761133636895928300,7.47392822265625,0.06200524792075157,0.3183506727218628,0.0801883190870285
1761133636915775200,7.493775146484375,-0.007056172471493483,0.406851589679718,0.004725517705082893
1761133636935621400,7.513621337890625,-0.02692774310708046,0.38887637853622437,-0.0013782288879156113
1761133636955468500,7.533468505859375,0.033675651997327805,0.39604809880256653,0.1271073818206787
1761133636975314400,7.553314453125,0.11526563763618469,0.4048134386539459,0.2689642310142517
1761133636995161300,7.573161376953125,0.15715788304805756,0.42693719267845154,0.3685600459575653
1761133637015008500,7.593008544921875,0.15350300073623657,0.37170180678367615,0.4402365982532501
1761133637034854400,7.6128544921875,0.16229146718978882,0.31377679109573364,0.5056458115577698
1761133637054701300,7.632701416015625,0.18156102299690247,0.3152810037136078,0.4961242377758026
1761133637074547200,7.652547119140625,0.1673254817724228,0.2992468476295471,0.40293601155281067
1761133637094394400,7.672394287109375,0.1088280901312828,0.25540482997894287,0.29429689049720764
1761133637114241300,7.6922412109375,0.06726345419883728,0.20246484875679016,0.24118128418922424
1761133637134087400,7.71208740234375,0.029261305928230286,0.1536039263010025,0.256690114736557
1761133637153934600,7.7319345703125,0.029417861253023148,0.16577644646167755,0.2737404406070709
1761133637173780500,7.751780517578125,0.08229383826255798,0.17202596366405487,0.21731193363666534
1761133637193627400,7.77162744140625,0.12876732647418976,0.09244852513074875,0.13158734142780304
1761133637213474300,7.791474365234375,0.09330806136131287,-0.029961712658405304,0.1003895252943039
1761133637233320400,7.811320556640625,0.038266152143478394,-0.040715042501688004,0.13058766722679138
1761133637253167400,7.83116748046875,0.022509578615427017,0.007362610660493374,0.1298711895942688
1761133637273013200,7.85101318359375,-0.00006187456892803311,0.07071005553007126,0.08980315923690796
1761133637292860200,7.870860107421875,0.0060987528413534164,0.055585864931344986,0.025720421224832535
1761133637312707300,7.890707275390625,0.037534646689891815,-0.016967318952083588,-0.017667530104517937
1761133637332554000,7.910553955078125,0.04468892142176628,-0.05735142156481743,-0.05047813057899475
1761133637352401000,7.93040087890625,0.050774507224559784,-0.0011565756285563111,-0.061328329145908356
1761133637372247000,7.9502470703125,0.058140575885772705,0.11421758681535721,0.011265363544225693
1761133637392094000,7.970093994140625,0.05336708575487137,0.17873716354370117,0.13833928108215332
1761133637411940900,7.98994091796875,0.05012256279587746,0.18711425364017487,0.20395419001579285
1761133637431787000,8.009787109375,0.07393116503953934,0.1875184178352356,0.22202886641025543
1761133637451633000,8.0296328125,0.10634491592645645,0.16832752525806427,0.2968221604824066
1761133637471479800,8.049479736328125,0.13050387799739838,0.1434749811887741,0.4363970160484314
1761133637491326700,8.06932666015625,0.12660349905490875,0.09999507665634155,0.5134755969047546
1761133637511173000,8.089173095703124,0.11462549865245819,0.08251441270112991,0.4772484600543976
1761133637531020000,8.10902001953125,0.09180514514446259,0.03230031207203865,0.3363547921180725
1761133637550866000,8.128865966796875,0.04499116539955139,-0.01280511450022459,0.17470425367355347
1761133637570712800,8.148712890625,0.025773122906684875,-0.054057806730270386,0.13854791224002838
1761133637590560000,8.16856005859375,0.021951762959361076,-0.0810648649930954,0.24044182896614075
1761133637610406000,8.188406005859376,0.011955337598919868,-0.062378671020269394,0.35454514622688293
1761133637630252800,8.208252685546874,-0.007463687099516392,-0.034591078758239746,0.29681268334388733
1761133637650099000,8.228098876953124,-0.04669107124209404,-0.014453551732003689,0.08973990380764008
1761133637669945900,8.24794580078125,-0.08689479529857635,-0.021933183073997498,-0.07328149676322937
1761133637689792800,8.267792724609375,-0.08492929488420486,-0.021425291895866394,-0.08154888451099396
1761133637709639000,8.287638916015625,-0.0528518408536911,-0.042566101998090744,0.010798151604831219
1761133637729486000,8.307486083984376,-0.012104888446629047,-0.07748190313577652,0.07879791408777237
1761133637749332000,8.32733203125,0.04694586247205734,-0.05075632408261299,0.08145938068628311
1761133637769179000,8.347178955078125,0.06950823962688446,-0.006255996413528919,0.017798446118831635
1761133637789026000,8.367026123046875,0.0540524460375309,0.015517404302954674,-0.059472858905792236
1761133637808872000,8.386871826171875,0.029359005391597748,0.030840465798974037,-0.07632914185523987
1761133637828719900,8.406719970703126,0.009807918220758438,0.04055742546916008,-0.04924517869949341
1761133637848565800,8.426565673828126,0.02079528197646141,0.05854949355125427,-0.050753895193338394
1761133637868413000,8.446412841796874,0.010378198698163033,0.054945703595876694,-0.08519644290208817
1761133637888258800,8.4662587890625,0.004094406962394714,0.0820070430636406,-0.07390373200178146
1761133637908105700,8.486105712890625,-0.002479969058185816,0.06789121776819229,-0.04007287696003914
1761133637927953000,8.505952880859375,-0.018393438309431076,0.014540726318955421,-0.05118173360824585
1761133637947799000,8.525799072265626,-0.022611692547798157,0.06774790585041046,-0.11355920135974884
1761133637967646000,8.54564599609375,-0.03369523957371712,0.14600703120231628,-0.1960548758506775
1761133637987491800,8.565491943359374,-0.02456868626177311,0.1973273903131485,-0.2513686418533325
1761133638007339000,8.585339111328125,-0.018514826893806458,0.17109499871730804,-0.15900839865207672
1761133638027186000,8.60518603515625,-0.02622811309993267,-0.03609447553753853,-0.037013813853263855
1761133638047031800,8.62503173828125,-0.048184700310230255,-0.15193550288677216,0.05850166454911232
1761133638066879000,8.64487890625,-0.07476101070642471,-0.10251040011644363,0.054467491805553436
1761133638086725000,8.66472509765625,-0.08722729980945587,0.020592112094163895,-0.039309363812208176
1761133638106572000,8.684572021484374,-0.09389636665582657,0.10903400927782059,-0.10847914963960648
1761133638126419000,8.7044189453125,-0.09946330636739731,0.14531952142715454,-0.06953863054513931
1761133638146265000,8.72426513671875,-0.08643756061792374,0.19776758551597595,0.005046148784458637
1761133638166112000,8.744112060546875,-0.04730390012264252,0.1429087221622467,0.03891514986753464
