time,seconds_elapsed,z,y,x
1761131695290493200,0.1334931640625,3.3465776443481445,-0.47360754013061523,-0.7936875224113464
1761131695330505000,0.1735048828125,3.273824691772461,-0.31165266036987305,-0.8445668816566467
1761131695340505000,0.183505126953125,3.2547969818115234,-0.26870107650756836,-0.8560165762901306
1761131695350505000,0.1935048828125,3.2402477264404297,-0.2435150146484375,-0.8441973328590393
1761131695360505000,0.203505126953125,3.2335987091064453,-0.23288297653198242,-0.8363385796546936
1761131695370505000,0.2135048828125,3.233565330505371,-0.23630285263061523,-0.8272916674613953
1761131695380505000,0.223505126953125,3.241849899291992,-0.24963140487670898,-0.8368889689445496
1761131695390505000,0.2335048828125,3.2541627883911133,-0.26944446563720703,-0.8507629036903381
1761131695410505500,0.25350537109375,3.2724647521972656,-0.3015322685241699,-0.8637681603431702
1761131695420505300,0.26350537109375,3.2763147354125977,-0.3086667060852051,-0.8653967976570129
1761131695430505500,0.27350537109375,3.2795791625976562,-0.3158884048461914,-0.8637039065361023
1761131695440505300,0.28350537109375,3.28558349609375,-0.3324165344238281,-0.8520175814628601
1761131695450503700,0.293503662109375,3.2977867126464844,-0.36368322372436523,-0.8336383700370789
1761131695460503800,0.30350390625,3.321084976196289,-0.41461992263793945,-0.8200426697731018
1761131695470503700,0.313503662109375,3.3598508834838867,-0.49251270294189453,-0.812021791934967
1761131695480503800,0.32350390625,3.4176244735717773,-0.6046700477600098,-0.8025164008140564
1761131695490503700,0.333503662109375,3.4947633743286133,-0.7477240562438965,-0.7940874695777893
1761131695500503800,0.34350390625,3.5711441040039062,-0.880195140838623,-0.7974537014961243
1761131695510503700,0.353503662109375,3.626948356628418,-0.9770588874816895,-0.790396511554718
1761131695520503800,0.36350390625,1.0888986587524414,-3.098872661590576,-1.1262974739074707
1761131695530503700,0.373503662109375,0.9794015884399414,-3.120492458343506,-1.2668923139572144
1761131695540503800,0.38350390625,0.9860010147094727,-2.9568049907684326,-1.3821314573287964
1761131695550503700,0.393503662109375,1.0169038772583008,-2.655048370361328,-1.5433415174484253
1761131695560503800,0.40350390625,0.556879997253418,-1.8038177490234375,-2.6730666160583496
1761131695570503700,0.413503662109375,0.4830360412597656,-1.0532822608947754,-3.111393928527832
1761131695580503800,0.42350390625,0.5321121215820312,-1.2557368278503418,-2.6154727935791016
1761131695590503700,0.433503662109375,0.4604349136352539,-1.7374439239501953,-1.9973773956298828
1761131695600503800,0.44350390625,0.40496158599853516,-1.899095058441162,-1.5575168132781982
1761131695610503700,0.453503662109375,0.2802295684814453,-1.8534369468688965,-1.4230631589889526
1761131695620503800,0.46350390625,0.24788475036621094,-1.8554506301879883,-1.52425217628479
1761131695630503700,0.473503662109375,0.23072052001953125,-1.89827561378479,-1.5599992275238037
1761131695640503800,0.48350390625,0.2325897216796875,-1.8917896747589111,-1.479670524597168
1761131695650503000,0.4935029296875,0.2575540542602539,-1.8257005214691162,-1.3220198154449463
1761131695660502800,0.503502685546875,0.21433353424072266,-1.7373969554901123,-1.3648258447647095
1761131695670503000,0.5135029296875,0.3155660629272461,-1.7319045066833496,-1.0038604736328125
1761131695680502800,0.523502685546875,0.26999855041503906,-1.6434197425842285,-1.0240094661712646
1761131695690503000,0.5335029296875,0.31259727478027344,-1.8265297412872314,-0.8209044933319092
1761131695700502800,0.543502685546875,0.3465003967285156,-1.869720220565796,-0.7984490394592285
1761131695710502700,0.553502685546875,0.36594581604003906,-1.9603900909423828,-0.8323978185653687
1761131695720502800,0.563502685546875,0.41486263275146484,-2.0562212467193604,-0.8545170426368713
1761131695730502700,0.573502685546875,0.5013160705566406,-2.086344003677368,-0.7748339176177979
1761131695740502800,0.583502685546875,0.6570978164672852,-2.0823776721954346,-0.8061052560806274
1761131695760503600,0.603503662109375,1.0709724426269531,-2.102562427520752,-0.9159762859344482
1761131695770503700,0.613503662109375,1.3252534866333008,-2.1324987411499023,-0.9360206723213196
1761131695780503600,0.623503662109375,1.6318368911743164,-2.1267993450164795,-0.9345000982284546
1761131695800503600,0.643503662109375,2.17025089263916,-2.0556726455688477,-0.9976695775985718
1761131695810503700,0.653503662109375,2.2595367431640625,-2.1013457775115967,-0.9926782846450806
1761131695820503600,0.663503662109375,2.223921775817871,-2.157081127166748,-0.9093924760818481
1761131695830503700,0.673503662109375,2.110536575317383,-2.234184741973877,-0.9934023022651672
1761131695840503600,0.683503662109375,1.9713897705078125,-2.305509090423584,-1.0887463092803955
1761131695850502700,0.693502685546875,1.8482370376586914,-2.375277042388916,-1.1253902912139893
1761131695860502800,0.703502685546875,1.7633028030395508,-2.427902936935425,-1.1672569513320923
1761131695870502700,0.713502685546875,1.6913471221923828,-2.4653310775756836,-1.211296558380127
1761131695880502800,0.723502685546875,1.619832992553711,-2.4980902671813965,-1.252618432044983
1761131695890502700,0.733502685546875,1.5303764343261719,-2.512585401535034,-1.3034188747406006
1761131695900502800,0.743502685546875,1.454176902770996,-2.5344998836517334,-1.3564152717590332
1761131695910502700,0.753502685546875,1.3669681549072266,-2.5488853454589844,-1.401334524154663
1761131695920502800,0.763502685546875,1.2777109146118164,-2.539877414703369,-1.4417340755462646
1761131695930502700,0.773502685546875,1.1739368438720703,-2.5193729400634766,-1.4937222003936768
1761131695940502800,0.783502685546875,1.0577192306518555,-2.5086169242858887,-1.5274975299835205
1761131695950503700,0.793503662109375,0.9499034881591797,-2.499271869659424,-1.5492233037948608
1761131695960503600,0.803503662109375,0.8572368621826172,-2.4959778785705566,-1.5707546472549438
1761131695970503700,0.813503662109375,0.7913360595703125,-2.462599515914917,-1.6024186611175537
1761131695980503600,0.823503662109375,0.7453222274780273,-2.461923360824585,-1.6183618307113647
1761131695990503700,0.833503662109375,0.6858444213867188,-2.4400336742401123,-1.6517155170440674
1761131696000503600,0.843503662109375,0.6207990646362305,-2.413090944290161,-1.6407235860824585
1761131696010503700,0.853503662109375,0.5310792922973633,-2.37947416305542,-1.6452255249023438
1761131696020503600,0.863503662109375,0.4474029541015625,-2.3412370681762695,-1.6538183689117432
1761131696030503700,0.873503662109375,0.3927288055419922,-2.2914371490478516,-1.6404707431793213
1761131696040503600,0.883503662109375,0.3704652786254883,-2.2342166900634766,-1.6233793497085571
1761131696050502700,0.893502685546875,0.36205482482910156,-2.18308162689209,-1.6158356666564941
1761131696060502800,0.903502685546875,0.3629293441772461,-2.1337547302246094,-1.6104695796966553
1761131696070502700,0.913502685546875,0.3945159912109375,-2.1102747917175293,-1.6107213497161865
1761131696080502800,0.923502685546875,0.4281015396118164,-2.0435798168182373,-1.6080334186553955
1761131696090502700,0.933502685546875,0.4645967483520508,-2.026489019393921,-1.605104923248291
1761131696100502800,0.943502685546875,0.5318937301635742,-2.005460500717163,-1.5958154201507568
1761131696110502700,0.953502685546875,0.6316299438476562,-1.9648964405059814,-1.5711874961853027
1761131696120502800,0.963502685546875,0.7146987915039062,-1.915233850479126,-1.5664472579956055
1761131696130502700,0.973502685546875,0.796290397644043,-1.8485071659088135,-1.5989584922790527
1761131696140502800,0.983502685546875,0.8688516616821289,-1.8426668643951416,-1.602797508239746
1761131696150503700,0.993503662109375,0.9350481033325195,-1.852989912033081,-1.5531991720199585
1761131696160503600,1.003503662109375,0.9828004837036133,-1.8852741718292236,-1.5080657005310059
1761131696170503700,1.013503662109375,1.0022258758544922,-1.9301931858062744,-1.4778327941894531
1761131696180503600,1.023503662109375,1.026860237121582,-1.9734504222869873,-1.431261658668518
1761131696190503400,1.03350341796875,1.0394611358642578,-2.0091168880462646,-1.3736543655395508
1761131696200503600,1.043503662109375,1.0237922668457031,-2.0333924293518066,-1.3177354335784912
1761131696210503400,1.05350341796875,0.9994268417358398,-2.0589652061462402,-1.2692997455596924
1761131696220503600,1.063503662109375,0.9636411666870117,-2.07108736038208,-1.2100352048873901
1761131696230503400,1.07350341796875,0.9080972671508789,-2.0496268272399902,-1.1395686864852905
1761131696240503600,1.083503662109375,0.8371658325195312,-2.0140743255615234,-1.0613043308258057
1761131696250502700,1.093502685546875,0.7407875061035156,-2.016103744506836,-1.0134930610656738
1761131696260502500,1.10350244140625,0.6446056365966797,-2.0134782791137695,-0.9890840649604797
1761131696270502700,1.113502685546875,0.5691137313842773,-1.9890618324279785,-0.9569758772850037
1761131696280502500,1.12350244140625,0.5214920043945312,-1.9546442031860352,-0.9589230418205261
1761131696290502700,1.133502685546875,0.4755725860595703,-1.9059321880340576,-0.9654284715652466
1761131696300502500,1.14350244140625,0.41692352294921875,-1.8547663688659668,-0.952197790145874
1761131696310502700,1.153502685546875,0.3439788818359375,-1.8175039291381836,-0.9496966004371643
1761131696320502500,1.16350244140625,0.25541114807128906,-1.780090570449829,-0.9420459270477295
1761131696330502700,1.173502685546875,0.15364837646484375,-1.749781847000122,-0.9250471591949463
1761131696340502500,1.18350244140625,0.06440258026123047,-1.7253406047821045,-0.9452003836631775
1761131696350503400,1.19350341796875,0.051306724548339844,-1.6973111629486084,-0.9198909997940063
1761131696360503600,1.203503662109375,-0.007931709289550781,-1.6671857833862305,-0.9863024950027466
1761131696370503400,1.21350341796875,-0.007587432861328125,-1.6333348751068115,-1.0042046308517456
1761131696380503600,1.223503662109375,-0.00003910064697265625,-1.596510648727417,-1.009310245513916
1761131696390503400,1.23350341796875,0.012881278991699219,-1.5605030059814453,-0.9968708753585815
1761131696400503000,1.2435029296875,-0.0023107528686523438,-1.5279555320739746,-0.9684258699417114
1761131696410503200,1.253503173828125,-0.019431114196777344,-1.505812168121338,-0.9443007707595825
1761131696420503000,1.2635029296875,-0.017630577087402344,-1.4779739379882812,-0.933696448802948
1761131696430503200,1.273503173828125,0.033553123474121094,-1.4522604942321777,-0.9460461139678955
1761131696440503000,1.2835029296875,0.1004934310913086,-1.4234609603881836,-0.9627183079719543
1761131696450502100,1.293502197265625,0.15751934051513672,-1.4051547050476074,-0.9722572565078735
1761131696460502300,1.303502197265625,0.1932668685913086,-1.3941054344177246,-0.9632317423820496
1761131696470502100,1.313502197265625,0.1984701156616211,-1.3696873188018799,-0.9347572922706604
1761131696480502300,1.323502197265625,0.1801309585571289,-1.3567280769348145,-0.9228695034980774
1761131696490502400,1.33350244140625,0.13806438446044922,-1.3324167728424072,-0.9050666689872742
1761131696500502300,1.343502197265625,0.08623409271240234,-1.3028216361999512,-0.8790863752365112
1761131696510502000,1.353501953125,0.040706634521484375,-1.2635295391082764,-0.8535296320915222
1761131696520502000,1.363501953125,0.01799774169921875,-1.2113478183746338,-0.8322265148162842
1761131696530502000,1.373501953125,0.0205230712890625,-1.1582517623901367,-0.813069224357605
1761131696540502000,1.383501953125,0.03907299041748047,-1.1220207214355469,-0.8024030923843384
1761131696550503000,1.3935029296875,0.0836029052734375,-1.0917837619781494,-0.8158031702041626
1761131696560502800,1.403502685546875,0.1497478485107422,-1.0735633373260498,-0.8452581763267517
1761131696570503000,1.4135029296875,0.2164325714111328,-1.0495727062225342,-0.8622115850448608
1761131696580502800,1.423502685546875,0.27919769287109375,-1.0375151634216309,-0.8577461242675781
1761131696590503000,1.4335029296875,0.34029102325439453,-1.027402400970459,-0.8372324109077454
1761131696600502800,1.443502685546875,0.3970489501953125,-1.018476963043213,-0.8150168657302856
1761131696610503000,1.4535029296875,0.43497276306152344,-1.0271105766296387,-0.7914533615112305
1761131696620503600,1.463503662109375,0.4544105529785156,-1.0080220699310303,-0.750784158706665
1761131696630503400,1.47350341796875,0.49037742614746094,-0.9727120399475098,-0.7095350027084351
1761131696640503600,1.483503662109375,0.5432443618774414,-0.9198675155639648,-0.6828296184539795
1761131696650502700,1.493502685546875,0.5759773254394531,-0.8703129291534424,-0.6566358804702759
1761131696660502500,1.50350244140625,0.5749406814575195,-0.824242353439331,-0.6172460913658142
1761131696670502700,1.513502685546875,0.5209941864013672,-0.7772645950317383,-0.5734069347381592
1761131696680502500,1.52350244140625,0.44015979766845703,-0.7382402420043945,-0.5329416394233704
1761131696690502700,1.533502685546875,0.3461017608642578,-0.7074518203735352,-0.4967130422592163
1761131696700503000,1.5435029296875,0.2666797637939453,-0.6653094291687012,-0.47220635414123535
1761131696710503000,1.5535029296875,0.20380783081054688,-0.6197249889373779,-0.4589007496833801
1761131696720503000,1.5635029296875,0.1430501937866211,-0.5752007961273193,-0.44522178173065186
1761131696733952300,1.5769521484375,0.08939456939697266,-0.5371806621551514,-0.43944984674453735
1761131696743952400,1.586952392578125,0.06447124481201172,-0.5011558532714844,-0.43708762526512146
1761131696753953300,1.596953369140625,0.07319831848144531,-0.4723944664001465,-0.4143502414226532
1761131696763953200,1.606953125,0.07532405853271484,-0.46688389778137207,-0.38744056224823
1761131696773953300,1.616953369140625,0.07572555541992188,-0.4634432792663574,-0.35766351222991943
1761131696783953200,1.626953125,0.07401752471923828,-0.46311450004577637,-0.3395692706108093
1761131696793953300,1.636953369140625,0.08902931213378906,-0.4575221538543701,-0.3307984173297882
1761131696803953200,1.646953125,0.12545394897460938,-0.44391417503356934,-0.32474297285079956
1761131696813953500,1.65695361328125,0.1500720977783203,-0.4306201934814453,-0.32425087690353394
1761131696823953700,1.66695361328125,0.16315937042236328,-0.41873812675476074,-0.3198860287666321
1761131696833953500,1.67695361328125,0.16007041931152344,-0.41124534606933594,-0.3112296164035797
1761131696843953700,1.68695361328125,0.1456460952758789,-0.41550278663635254,-0.28493809700012207
1761131696853952800,1.696952880859375,0.12447929382324219,-0.4140458106994629,-0.2652670741081238
1761131696863952600,1.70695263671875,0.10337638854980469,-0.405458927154541,-0.25769567489624023
1761131696873952800,1.716952880859375,0.06545066833496094,-0.40364861488342285,-0.2412751317024231
1761131696883952600,1.72695263671875,0.03211021423339844,-0.3961915969848633,-0.21003271639347076
1761131696893952800,1.736952880859375,0.0271148681640625,-0.37032628059387207,-0.20425941050052643
1761131696903952600,1.74695263671875,0.02920818328857422,-0.3533289432525635,-0.19277043640613556
1761131696913952800,1.756952880859375,0.045952796936035156,-0.3324108123779297,-0.1758054494857788
1761131696923952000,1.7669521484375,0.06305789947509766,-0.31279706954956055,-0.16153864562511444
1761131696933952000,1.776951904296875,0.08311843872070312,-0.2881178855895996,-0.156474769115448
1761131696943952100,1.7869521484375,0.0869741439819336,-0.27764034271240234,-0.14456817507743835
1761131696953953000,1.796953125,0.0745401382446289,-0.2642836570739746,-0.13059961795806885
1761131696963953000,1.806952880859375,0.043254852294921875,-0.254436731338501,-0.11133885383605957
1761131696973953000,1.816953125,0.028817176818847656,-0.24965691566467285,-0.08973869681358337
1761131696983953000,1.826952880859375,0.04059314727783203,-0.22759795188903809,-0.07144477963447571
1761131696993953000,1.836953125,0.050154685974121094,-0.20628666877746582,-0.07274597883224487
1761131697003953000,1.846952880859375,0.05041694641113281,-0.18626189231872559,-0.07272359728813171
1761131697013953000,1.856953125,0.048577308654785156,-0.17725682258605957,-0.06699773669242859
1761131697023953000,1.866952880859375,0.04929065704345703,-0.1689755916595459,-0.06891590356826782
1761131697033953000,1.876953125,0.05966663360595703,-0.15142607688903809,-0.05868878960609436
1761131697043953000,1.886952880859375,0.08691024780273438,-0.12472772598266602,-0.050737619400024414
1761131697053952000,1.896951904296875,0.10969829559326172,-0.11373710632324219,-0.03253099322319031
1761131697063952100,1.9069521484375,0.11138725280761719,-0.10960626602172852,-0.014768391847610474
1761131697073952000,1.916951904296875,0.11822891235351562,-0.10238885879516602,0.0000922083854675293
1761131697083952000,1.9269521484375,0.1443319320678711,-0.10286569595336914,0.012375950813293457
1761131697093952000,1.936951904296875,0.1944417953491211,-0.10121941566467285,0.015090018510818481
1761131697103952100,1.9469521484375,0.26146697998046875,-0.10744643211364746,0.0010678470134735107
1761131697113952000,1.956951904296875,0.3312511444091797,-0.10829949378967285,-0.01627272367477417
1761131697123952000,1.9669521484375,0.38228702545166016,-0.10892844200134277,-0.018787473440170288
1761131697133952000,1.976951904296875,0.39327144622802734,-0.1152653694152832,-0.011509031057357788
1761131697143952100,1.9869521484375,0.3858928680419922,-0.11340498924255371,-0.0031739771366119385
1761131697153953000,1.996953125,0.36715221405029297,-0.11177372932434082,0.0030179619789123535
1761131697163953000,2.006952880859375,0.3250741958618164,-0.11501932144165039,0.017023056745529175
1761131697173953000,2.016953125,0.2592458724975586,-0.11427474021911621,0.033052146434783936
1761131697183953000,2.026952880859375,0.18372631072998047,-0.11534786224365234,0.04879617691040039
1761131697193953000,2.036953125,0.11491680145263672,-0.1239786148071289,0.05893853306770325
1761131697203953000,2.046952880859375,0.040752410888671875,-0.11809563636779785,0.07396823167800903
1761131697213953000,2.056953125,-0.02906322479248047,-0.09812498092651367,0.07566380500793457
1761131697223953000,2.066952880859375,-0.07777118682861328,-0.08563566207885742,0.06407317519187927
1761131697233953000,2.076953125,-0.10525989532470703,-0.07396578788757324,0.05101203918457031
1761131697243953000,2.086952880859375,-0.12094974517822266,-0.07103919982910156,0.0312829315662384
1761131697253952000,2.096951904296875,-0.14386749267578125,-0.07513260841369629,0.023289024829864502
1761131697263952100,2.1069521484375,-0.17400646209716797,-0.0840291976928711,0.038117408752441406
1761131697273952000,2.116951904296875,-0.20194244384765625,-0.08984756469726562,0.049717605113983154
1761131697283952000,2.1269521484375,-0.21111297607421875,-0.09396171569824219,0.05692857503890991
1761131697293952000,2.136951904296875,-0.20401763916015625,-0.09597635269165039,0.06896817684173584
1761131697303952100,2.1469521484375,-0.19008827209472656,-0.09894800186157227,0.06161317229270935
1761131697313952000,2.156951904296875,-0.16692543029785156,-0.0982062816619873,0.05819880962371826
1761131697323952000,2.1669521484375,-0.13910770416259766,-0.10661053657531738,0.05157920718193054
1761131697333952000,2.176951904296875,-0.11365985870361328,-0.10547280311584473,0.04050809144973755
1761131697343952100,2.1869521484375,-0.07378482818603516,-0.1067049503326416,0.014373242855072021
1761131697353953000,2.196953125,-0.038489341735839844,-0.12052488327026367,-0.010135233402252197
1761131697363953000,2.206952880859375,-0.03887653350830078,-0.11851930618286133,-0.008031308650970459
1761131697373953000,2.216953125,0.006325721740722656,-0.12417173385620117,-0.025401443243026733
1761131697383953000,2.226952880859375,0.025186538696289062,-0.1154944896697998,-0.03834027051925659
1761131697393953000,2.236953125,0.0367584228515625,-0.10409879684448242,-0.049654871225357056
1761131697403953000,2.246952880859375,0.04100799560546875,-0.09953022003173828,-0.06721451878547668
1761131697413953000,2.256953125,0.030939102172851562,-0.09748363494873047,-0.0771658718585968
1761131697423953000,2.266952880859375,0.02100086212158203,-0.09354734420776367,-0.07484373450279236
1761131697433953000,2.276953125,0.020597457885742188,-0.08706355094909668,-0.07505187392234802
1761131697443953000,2.286952880859375,0.027309417724609375,-0.08268070220947266,-0.07527825236320496
1761131697453952000,2.296951904296875,0.034010887145996094,-0.0711205005645752,-0.0733916163444519
1761131697463952100,2.3069521484375,0.038306236267089844,-0.05716061592102051,-0.08613932132720947
1761131697473952000,2.316951904296875,0.038005828857421875,-0.05112051963806152,-0.107950359582901
1761131697483952000,2.3269521484375,0.03789234161376953,-0.04350924491882324,-0.11550933122634888
1761131697493952000,2.336951904296875,0.03531837463378906,-0.0284883975982666,-0.12819647789001465
1761131697503952100,2.3469521484375,0.030455589294433594,-0.02584099769592285,-0.1405831277370453
1761131697513952000,2.356951904296875,0.020956993103027344,-0.019069194793701172,-0.1386236548423767
1761131697523952000,2.3669521484375,0.011610984802246094,-0.012969732284545898,-0.1367338001728058
1761131697533952000,2.376951904296875,-0.0023822784423828125,-0.012167930603027344,-0.1414562165737152
1761131697543952100,2.3869521484375,-0.01627349853515625,-0.01416921615600586,-0.13883215188980103
1761131697553953000,2.396953125,-0.018314361572265625,-0.013287067413330078,-0.1387580931186676
1761131697563953000,2.406952880859375,-0.011080741882324219,-0.008734703063964844,-0.1412648856639862
1761131697573953000,2.416953125,-0.00164794921875,-0.005761623382568359,-0.14150747656822205
1761131697583953000,2.426952880859375,0.012566566467285156,-0.009895563125610352,-0.13908666372299194
1761131697593953000,2.436953125,0.03150653839111328,-0.009012222290039062,-0.14649584889411926
1761131697603953000,2.446952880859375,0.05035686492919922,-0.0005471706390380859,-0.15618091821670532
1761131697613953000,2.456953125,0.06452465057373047,0.007478237152099609,-0.17061668634414673
1761131697623953000,2.466952880859375,0.06219291687011719,0.007162332534790039,-0.17803654074668884
1761131697633953000,2.476953125,0.055533409118652344,0.005194425582885742,-0.17397812008857727
1761131697643953000,2.486952880859375,0.03962135314941406,0.002055644989013672,-0.16137149930000305
1761131697653952300,2.4969521484375,0.009578704833984375,-0.0042743682861328125,-0.1500406563282013
1761131697663952100,2.5069521484375,-0.01807689666748047,-0.010588407516479492,-0.1340862214565277
1761131697673952300,2.5169521484375,-0.024580955505371094,-0.010542631149291992,-0.12367668747901917
1761131697683952000,2.5269521484375,-0.01952362060546875,-0.018541336059570312,-0.10980740189552307
1761131697693952300,2.5369521484375,-0.007580757141113281,-0.032726287841796875,-0.1046694815158844
1761131697703952100,2.5469521484375,0.01606464385986328,-0.03627610206604004,-0.10725083947181702
1761131697713952300,2.5569521484375,0.03498077392578125,-0.04244589805603027,-0.09768390655517578
1761131697723952000,2.5669521484375,0.044663429260253906,-0.04993486404418945,-0.08489593863487244
1761131697733952300,2.5769521484375,0.04503059387207031,-0.05127382278442383,-0.08355987071990967
1761131697743952100,2.5869521484375,0.033652305603027344,-0.05342698097229004,-0.06462931632995605
1761131697753953000,2.596953125,0.0009851455688476562,-0.061424970626831055,-0.033473074436187744
1761131697763953200,2.606953125,-0.029310226440429688,-0.062128543853759766,-0.007107377052307129
1761131697773953000,2.616953125,-0.04312419891357422,-0.0663917064666748,0.012361675500869751
1761131697783953200,2.626953125,-0.03799152374267578,-0.06731534004211426,0.020139068365097046
1761131697793953000,2.636953125,-0.03795051574707031,-0.055138587951660156,0.024616718292236328
1761131697803953200,2.646953125,-0.031012535095214844,-0.0492396354675293,0.0178050696849823
1761131697813953000,2.656953125,-0.03842639923095703,-0.053218841552734375,0.033604174852371216
1761131697823953200,2.666953125,-0.05292034149169922,-0.0458219051361084,0.05093348026275635
1761131697833953000,2.676953125,-0.06746482849121094,-0.03569769859313965,0.061711132526397705
1761131697843953200,2.686953125,-0.07958221435546875,-0.03028273582458496,0.061699509620666504
1761131697853952300,2.6969521484375,-0.0820779800415039,-0.022565126419067383,0.06466785073280334
1761131697863952400,2.706952392578125,-0.07751083374023438,-0.011951208114624023,0.06281960010528564
1761131697873952300,2.7169521484375,-0.06819915771484375,-0.01314234733581543,0.06321129202842712
1761131697883952400,2.726952392578125,-0.06826972961425781,-0.012755155563354492,0.06368798017501831
1761131697893952300,2.7369521484375,-0.056240081787109375,-0.015258312225341797,0.0860011875629425
1761131697903952400,2.746952392578125,-0.049050331115722656,-0.012680768966674805,0.0776221752166748
1761131697913952300,2.7569521484375,-0.04182243347167969,-0.012440681457519531,0.056005656719207764
1761131697923952400,2.766952392578125,-0.029890060424804688,-0.014297962188720703,0.034074753522872925
1761131697933952300,2.7769521484375,-0.010889053344726562,-0.011080265045166016,0.018270134925842285
1761131697943952400,2.786952392578125,0.0031137466430664062,-0.0071582794189453125,0.010946184396743774
1761131697953953000,2.796953125,0.00025177001953125,-0.010187387466430664,0.007264226675033569
1761131697963953000,2.806952880859375,-0.016963958740234375,-0.022951364517211914,0.0005615055561065674
1761131697973953000,2.816953125,-0.029455184936523438,-0.03544783592224121,-0.010979890823364258
1761131697983953000,2.826952880859375,-0.042133331298828125,-0.03990745544433594,-0.022251546382904053
1761131697993953000,2.836953125,-0.0573577880859375,-0.04611778259277344,-0.03358373045921326
1761131698003953000,2.846952880859375,-0.08703899383544922,-0.04964327812194824,-0.04554435610771179
1761131698013953000,2.856953125,-0.08803367614746094,-0.04598236083984375,-0.049003392457962036
1761131698023953000,2.866952880859375,-0.18243122100830078,-0.042461395263671875,-0.037297576665878296
1761131698033953000,2.876953125,-0.24343299865722656,-0.024150848388671875,-0.021452605724334717
1761131698043953000,2.886952880859375,-0.30948638916015625,-0.007075071334838867,-0.005681931972503662
1761131698053952000,2.896951904296875,-0.363922119140625,0.023542165756225586,0.014918863773345947
1761131698063952100,2.9069521484375,-0.4020709991455078,0.04918384552001953,0.04576250910758972
1761131698073952000,2.916951904296875,-0.4239358901977539,0.0724177360534668,0.07553938031196594
1761131698083952000,2.9269521484375,-0.42466163635253906,0.0881495475769043,0.11134183406829834
1761131698093952000,2.936951904296875,-0.39955997467041016,0.0969688892364502,0.15613102912902832
1761131698103952100,2.9469521484375,-0.4034414291381836,0.11428165435791016,0.15570729970932007
1761131698113952000,2.956951904296875,-0.3476228713989258,0.1277017593383789,0.1962473839521408
1761131698123952000,2.9669521484375,-0.27020263671875,0.13860344886779785,0.236517995595932
1761131698133952000,2.976951904296875,-0.09198570251464844,0.13414502143859863,0.2980343997478485
1761131698143952100,2.9869521484375,-0.004323005676269531,0.1374192237854004,0.3092288076877594
1761131698153952800,2.996952880859375,0.07194232940673828,0.14055132865905762,0.30145296454429626
1761131698163953000,3.006952880859375,0.12727737426757812,0.14328479766845703,0.28191518783569336
1761131698173952800,3.016952880859375,0.1616802215576172,0.13851547241210938,0.2631782293319702
1761131698183953000,3.026952880859375,0.18454742431640625,0.12464594841003418,0.24512594938278198
1761131698193952800,3.036952880859375,0.20763397216796875,0.11703324317932129,0.22763825953006744
1761131698203953000,3.046952880859375,0.22592830657958984,0.11184811592102051,0.21017473936080933
1761131698213952800,3.056952880859375,0.2297983169555664,0.10693168640136719,0.19017699360847473
1761131698223953000,3.066952880859375,0.22406291961669922,0.10440611839294434,0.1740962117910385
1761131698233952800,3.076952880859375,0.22311019897460938,0.10906624794006348,0.1746426373720169
1761131698243953000,3.086952880859375,0.21976852416992188,0.09231293201446533,0.13046979904174805
1761131698253952000,3.096951904296875,0.22847270965576172,0.08743071556091309,0.10199812054634094
1761131698263952100,3.1069521484375,0.2301788330078125,0.08672034740447998,0.0868578553199768
1761131698273952000,3.116951904296875,0.21782684326171875,0.0799715518951416,0.0824781060218811
1761131698283952000,3.1269521484375,0.20099830627441406,0.07191038131713867,0.0670137107372284
1761131698293952000,3.136951904296875,0.16993045806884766,0.06818771362304688,0.04029276967048645
1761131698303952100,3.1469521484375,0.14130115509033203,0.04759502410888672,0.018733680248260498
1761131698313952000,3.156951904296875,0.1317911148071289,0.015358328819274902,-0.009348571300506592
1761131698323952000,3.1669521484375,0.14829254150390625,-0.012810945510864258,-0.04190188646316528
1761131698333952000,3.176951904296875,0.17409420013427734,-0.04928767681121826,-0.07260376214981079
1761131698343952100,3.1869521484375,0.1903371810913086,-0.07880008220672607,-0.10404995083808899
1761131698353953000,3.196953125,0.19723129272460938,-0.10481476783752441,-0.11012229323387146
1761131698363953000,3.206952880859375,0.19731426239013672,-0.13278234004974365,-0.10491630434989929
1761131698373953000,3.216953125,0.20971298217773438,-0.1457000970840454,-0.1022803783416748
1761131698383953000,3.226952880859375,0.19137859344482422,-0.15333092212677002,-0.11399438977241516
1761131698393953000,3.236953125,0.15190792083740234,-0.16778814792633057,-0.13313254714012146
1761131698403953000,3.246952880859375,0.09817981719970703,-0.19021093845367432,-0.14631232619285583
1761131698413953000,3.256953125,0.039470672607421875,-0.20248198509216309,-0.1634647250175476
1761131698423953000,3.266952880859375,0.004169464111328125,-0.19800233840942383,-0.17916306853294373
1761131698433953000,3.276953125,-0.034030914306640625,-0.22205495834350586,-0.17504748702049255
1761131698443953000,3.286952880859375,-0.05830574035644531,-0.2512894868850708,-0.1307554841041565
1761131698453952300,3.2969521484375,-0.06393909454345703,-0.25153303146362305,-0.12402790784835815
1761131698463952100,3.3069521484375,-0.05781841278076172,-0.23346781730651855,-0.12245026230812073
1761131698473952300,3.3169521484375,-0.051634788513183594,-0.21071767807006836,-0.1010337769985199
1761131698483952000,3.3269521484375,-0.0665903091430664,-0.21135973930358887,-0.11740744113922119
1761131698503952100,3.3469521484375,-0.14877891540527344,-0.15785348415374756,0.17704203724861145
1761131698513952300,3.3569521484375,-0.2187814712524414,-0.1303422451019287,-0.04494032263755798
1761131698523952000,3.3669521484375,-0.2196197509765625,-0.18281090259552002,-0.09178435802459717
1761131698533952300,3.3769521484375,-0.15848827362060547,-0.18283116817474365,-0.047076284885406494
1761131698543952100,3.3869521484375,-0.12465381622314453,-0.1312394142150879,-0.049582481384277344
1761131698553953000,3.396953125,-0.07608890533447266,-0.11444342136383057,-0.06706267595291138
1761131698563953200,3.406953125,-0.04155921936035156,-0.10163426399230957,-0.06297540664672852
1761131698573953000,3.416953125,-0.027984619140625,-0.07734405994415283,-0.07303136587142944
1761131698583953200,3.426953125,-0.028154373168945312,-0.05813145637512207,-0.08154875040054321
1761131698593953000,3.436953125,-0.03289985656738281,-0.03732931613922119,-0.07480663061141968
1761131698603953200,3.446953125,-0.01861572265625,-0.02782309055328369,-0.06559044122695923
1761131698613953000,3.456953125,0.012126922607421875,-0.01931631565093994,-0.05929988622665405
1761131698623953200,3.466953125,0.059246063232421875,-0.009217381477355957,-0.06628495454788208
1761131698633953000,3.476953125,0.1203775405883789,0.004550337791442871,-0.07994377613067627
1761131698643953200,3.486953125,0.17907333374023438,0.008494257926940918,-0.09286117553710938
1761131698653952300,3.4969521484375,0.22615623474121094,0.010388493537902832,-0.09223133325576782
1761131698663952100,3.5069521484375,0.25449085235595703,0.01706254482269287,-0.08791184425354004
1761131698673952300,3.5169521484375,0.26646900177001953,0.014641046524047852,-0.07829850912094116
1761131698683952000,3.5269521484375,0.26662254333496094,0.011191964149475098,-0.06723296642303467
1761131698693952300,3.5369521484375,0.2619972229003906,0.004932403564453125,-0.05503714084625244
1761131698703952100,3.5469521484375,0.2525501251220703,-0.001495361328125,-0.053575217723846436
1761131698713952300,3.5569521484375,0.2432565689086914,-0.00640416145324707,-0.050065696239471436
1761131698723952000,3.5669521484375,0.2150125503540039,-0.010035157203674316,-0.04448884725570679
1761131698733952300,3.5769521484375,0.16788673400878906,-0.024720191955566406,-0.029719650745391846
1761131698743952100,3.5869521484375,0.11612987518310547,-0.033142685890197754,-0.013068974018096924
1761131698753953000,3.596953125,0.08101177215576172,-0.036167144775390625,-0.0061310529708862305
1761131698763953000,3.606952880859375,0.057715415954589844,-0.04779255390167236,-0.008062481880187988
1761131698773953000,3.616953125,0.03669929504394531,-0.05170166492462158,-0.017363309860229492
1761131698783953000,3.626952880859375,0.010850906372070312,-0.05546760559082031,-0.015080809593200684
1761131698793953000,3.636953125,-0.012465476989746094,-0.06732141971588135,-0.011283338069915771
1761131698803953000,3.646952880859375,-0.02615070343017578,-0.08404839038848877,-0.01406770944595337
1761131698813953000,3.656953125,-0.0302734375,-0.10035192966461182,-0.010801702737808228
1761131698823953000,3.666952880859375,-0.024957656860351562,-0.11113524436950684,-0.014591187238693237
1761131698833953000,3.676953125,-0.01751232147216797,-0.10882580280303955,-0.01919376850128174
1761131698843953000,3.686952880859375,-0.02208423614501953,-0.10409021377563477,-0.02705991268157959
1761131698853952000,3.696951904296875,-0.03857135772705078,-0.10445582866668701,-0.03754621744155884
1761131698863952100,3.7069521484375,-0.06207084655761719,-0.10303044319152832,-0.04953160881996155
1761131698873952000,3.716951904296875,-0.0734567642211914,-0.1090855598449707,-0.07185015082359314
1761131698883952000,3.7269521484375,-0.06569385528564453,-0.11712563037872314,-0.10221073031425476
1761131698893952000,3.736951904296875,-0.050917625427246094,-0.12173342704772949,-0.12455198168754578
1761131698903952100,3.7469521484375,-0.043471336364746094,-0.13520467281341553,-0.13735279440879822
1761131698913952000,3.756951904296875,-0.033782958984375,-0.14567124843597412,-0.1387850046157837
1761131698923952000,3.7669521484375,-0.024297714233398438,-0.1504833698272705,-0.13839566707611084
1761131698933952000,3.776951904296875,-0.014927864074707031,-0.14513063430786133,-0.133119136095047
1761131698943952100,3.7869521484375,-0.0032339096069335938,-0.13941574096679688,-0.13498839735984802
1761131698953953000,3.796953125,0.0036773681640625,-0.12634193897247314,-0.1407461166381836
1761131698963953000,3.806952880859375,-0.0016918182373046875,-0.11772632598876953,-0.13427910208702087
1761131698973953000,3.816953125,-0.016289710998535156,-0.110329270362854,-0.12336975336074829
1761131698983953000,3.826952880859375,-0.035007476806640625,-0.09936892986297607,-0.11145973205566406
1761131698993953000,3.836953125,-0.06078624725341797,-0.07916200160980225,-0.10572385787963867
1761131699003953000,3.846952880859375,-0.09371662139892578,-0.06388652324676514,-0.09521147608757019
1761131699013953000,3.856953125,-0.13158416748046875,-0.04807758331298828,-0.07115328311920166
1761131699023953000,3.866952880859375,-0.1603860855102539,-0.02306222915649414,-0.046746790409088135
1761131699033953000,3.876953125,-0.18469715118408203,0.005415558815002441,-0.02871677279472351
1761131699043953000,3.886952880859375,-0.19016456604003906,0.025533080101013184,-0.014325380325317383
1761131699053952000,3.896951904296875,-0.1766681671142578,0.036911845207214355,0.002030998468399048
1761131699063952100,3.9069521484375,-0.1369915008544922,0.04925382137298584,0.021484851837158203
1761131699073952000,3.916951904296875,-0.08540916442871094,0.057239413261413574,0.048476070165634155
1761131699083952000,3.9269521484375,-0.038445472717285156,0.05958056449890137,0.08017221093177795
1761131699093952000,3.936951904296875,-0.0032958984375,0.06106150150299072,0.10432097315788269
1761131699103952100,3.9469521484375,0.015277862548828125,0.059117794036865234,0.13760828971862793
1761131699113952000,3.956951904296875,0.019631385803222656,0.0608372688293457,0.166927307844162
1761131699123952000,3.9669521484375,0.021686553955078125,0.06187248229980469,0.19549235701560974
1761131699133952000,3.976951904296875,0.02388763427734375,0.057416319847106934,0.2216992974281311
1761131699143952100,3.9869521484375,0.03336906433105469,0.05005908012390137,0.24069461226463318
1761131699153953000,3.996953125,0.0476837158203125,0.052056312561035156,0.25007104873657227
1761131699163953000,4.006952880859375,0.06443119049072266,0.05376911163330078,0.2543147802352905
1761131699173953000,4.016953125,0.07409191131591797,0.05010998249053955,0.2533426880836487
1761131699183953000,4.026952880859375,0.0767354965209961,0.0527498722076416,0.24251951277256012
1761131699193953000,4.036953125,0.07712554931640625,0.04749155044555664,0.2172498106956482
1761131699203953000,4.046952880859375,0.08470821380615234,0.039736390113830566,0.18932372331619263
1761131699213953000,4.056953125,0.09704875946044922,0.03685116767883301,0.16103890538215637
1761131699223953000,4.066952880859375,0.09523677825927734,0.03538548946380615,0.13066259026527405
1761131699233953000,4.076953125,0.08651542663574219,0.025481700897216797,0.09348329901695251
1761131699243953000,4.086952880859375,0.08760452270507812,0.01940608024597168,0.0905434787273407
1761131699253952000,4.096951904296875,0.04342460632324219,-0.0019505023956298828,0.04278942942619324
1761131699263952100,4.1069521484375,0.020730018615722656,-0.0012645721435546875,0.022036463022232056
1761131699273952000,4.116951904296875,-0.07143402099609375,-0.01696920394897461,-0.11051160097122192
1761131699283952000,4.1269521484375,-0.04643821716308594,-0.034096479415893555,-0.15359637141227722
1761131699293952000,4.136951904296875,0.0023021697998046875,-0.05727648735046387,-0.15056589245796204
1761131699303952100,4.1469521484375,0.010315895080566406,-0.07055163383483887,-0.24721688032150269
1761131699313952000,4.156951904296875,-0.007878303527832031,-0.0745314359664917,-0.371093213558197
1761131699323952000,4.1669521484375,-0.04982185363769531,-0.06934690475463867,-0.3228161931037903
1761131699333952000,4.176951904296875,-0.1419382095336914,-0.10021162033081055,-0.28257426619529724
1761131699343952100,4.1869521484375,-0.17903423309326172,-0.1594175100326538,-0.2441798746585846
1761131699353953000,4.196953125,-0.13259410858154297,-0.15012907981872559,-0.15240216255187988
1761131699363953000,4.206952880859375,-0.13197040557861328,-0.13674437999725342,-0.09857037663459778
1761131699373953000,4.216953125,-0.1842184066772461,-0.13929295539855957,-0.08608382940292358
1761131699383953000,4.226952880859375,-0.18403911590576172,-0.13852941989898682,-0.07955843210220337
1761131699393953000,4.236953125,-0.22482967376708984,-0.09606730937957764,-0.11975473165512085
1761131699403953000,4.246952880859375,-0.26340675354003906,-0.09606480598449707,-0.09630483388900757
1761131699413953000,4.256953125,-0.29959678649902344,-0.1248013973236084,-0.0706663727760315
1761131699423953000,4.266952880859375,-0.31177425384521484,-0.1104668378829956,-0.0654192566871643
1761131699433953000,4.276953125,-0.2593955993652344,-0.028319358825683594,-0.006224691867828369
1761131699443953000,4.286952880859375,-0.2957010269165039,-0.09131002426147461,-0.007751524448394775
1761131699453952000,4.296951904296875,-0.2291698455810547,-0.08468866348266602,0.10889947414398193
1761131699463952100,4.3069521484375,-0.21085834503173828,-0.021762728691101074,-0.015424549579620361
1761131699473952000,4.316951904296875,-0.14253520965576172,-0.014957070350646973,-0.07508516311645508
1761131699483952000,4.3269521484375,-0.06022071838378906,-0.016121506690979004,-0.049476444721221924
1761131699493952000,4.336951904296875,-0.062198638916015625,-0.005650162696838379,-0.046903133392333984
1761131699503952100,4.3469521484375,0.06504631042480469,-0.021279335021972656,-0.00895392894744873
1761131699513952000,4.356951904296875,0.11330032348632812,-0.022646069526672363,0.002434074878692627
1761131699523952000,4.3669521484375,0.11140155792236328,0.0018700361251831055,-0.036098599433898926
1761131699533952000,4.376951904296875,0.1312274932861328,0.023285984992980957,-0.07898932695388794
1761131699543952100,4.3869521484375,0.1177682876586914,0.03645884990692139,-0.0785207748413086
1761131699553953000,4.396953125,0.06388664245605469,0.0076732635498046875,-0.08245813846588135
1761131699563953000,4.406952880859375,0.03888893127441406,0.023710012435913086,-0.10286706686019897
1761131699573953000,4.416953125,0.025870323181152344,0.0444333553314209,-0.0972481369972229
1761131699583953000,4.426952880859375,0.036712646484375,0.031920790672302246,-0.11606073379516602
1761131699593953000,4.436953125,0.07370376586914062,0.029598474502563477,-0.12655973434448242
1761131699603953000,4.446952880859375,0.08662128448486328,0.0395970344543457,-0.09748655557632446
1761131699613953000,4.456953125,0.10194873809814453,0.07808399200439453,-0.08578509092330933
1761131699623953000,4.466952880859375,0.10066413879394531,0.08473920822143555,-0.0859750509262085
1761131699633952800,4.476952880859375,0.03737640380859375,0.05921781063079834,-0.037574946880340576
1761131699643953000,4.486952880859375,0.04371356964111328,0.05208742618560791,-0.06504589319229126
1761131699653952000,4.496951904296875,0.045342445373535156,0.0447390079498291,-0.09192919731140137
1761131699663952100,4.5069521484375,-0.000911712646484375,0.05893850326538086,-0.0949053168296814
1761131699673952000,4.516951904296875,-0.0184478759765625,0.07300794124603271,-0.03868305683135986
1761131699683952000,4.5269521484375,-0.07669925689697266,0.03425037860870361,-0.07656258344650269
1761131699693952000,4.536951904296875,-0.0774393081665039,0.05525469779968262,-0.08281689882278442
1761131699703952100,4.5469521484375,0.01998138427734375,0.06679022312164307,-0.191724956035614
1761131699713952000,4.556951904296875,0.12213706970214844,0.07172346115112305,-0.10108309984207153
1761131699723952000,4.5669521484375,0.12132072448730469,0.07665646076202393,-0.09942436218261719
1761131699733952000,4.576951904296875,0.11570072174072266,0.03562760353088379,-0.013274669647216797
1761131699743952100,4.5869521484375,0.028800010681152344,0.0440974235534668,-0.02088087797164917
1761131699753953000,4.596953125,-0.0459442138671875,0.044426798820495605,-0.002048790454864502
1761131699763953000,4.606952880859375,-0.08719635009765625,0.044797658920288086,-0.00509113073348999
1761131699773953000,4.616953125,-0.02805042266845703,0.053082942962646484,-0.056394100189208984
1761131699783953000,4.626952880859375,0.016635894775390625,0.01880621910095215,-0.045450806617736816
1761131699793953000,4.636953125,0.032543182373046875,0.008698701858520508,0.020455896854400635
1761131699803953000,4.646952880859375,0.07234477996826172,-0.013225436210632324,-0.016977310180664062
1761131699813953000,4.656953125,0.11447620391845703,0.0009351968765258789,-0.01905590295791626
1761131699823953000,4.666952880859375,0.10631179809570312,-0.02807164192199707,0.007046163082122803
1761131699833953000,4.676953125,0.0957632064819336,-0.03811144828796387,0.027912020683288574
1761131699843953000,4.686952880859375,0.08278751373291016,-0.016994118690490723,0.002776801586151123
1761131699853952000,4.696951904296875,0.10809612274169922,-0.024535059928894043,-0.012969553470611572
1761131699863952100,4.7069521484375,0.14055919647216797,-0.003290414810180664,0.037913739681243896
1761131699873952000,4.716951904296875,0.11562824249267578,-0.01365971565246582,0.050080180168151855
1761131699883952000,4.7269521484375,0.10279178619384766,-0.036626577377319336,0.05039381980895996
1761131699893952000,4.736951904296875,0.05891990661621094,-0.03126800060272217,0.07488435506820679
1761131699903952100,4.7469521484375,0.036655426025390625,-0.04044783115386963,0.0615268349647522
1761131699913952000,4.756951904296875,0.04321765899658203,-0.026015639305114746,0.005674839019775391
1761131699923952000,4.7669521484375,0.08327674865722656,-0.054523587226867676,-0.021358132362365723
1761131699933952000,4.776951904296875,0.1304769515991211,-0.037320852279663086,-0.031722843647003174
1761131699943952100,4.7869521484375,0.1393604278564453,0.008751153945922852,-0.07294225692749023
1761131699953953000,4.796953125,0.13898563385009766,0.010393857955932617,-0.07444506883621216
1761131699963953000,4.806952880859375,-0.0382232666015625,-0.023087263107299805,-0.09894603490829468
1761131699973953000,4.816953125,-0.12194442749023438,-0.011659383773803711,-0.12806516885757446
1761131699983953000,4.826952880859375,-0.15537357330322266,-0.03881514072418213,-0.07877039909362793
1761131699993953000,4.836953125,-0.12682342529296875,-0.062398672103881836,-0.059344351291656494
1761131700003953000,4.846952880859375,-0.0388641357421875,-0.03606915473937988,-0.053415894508361816
1761131700013953300,4.856953369140625,0.06791496276855469,-0.0056601762771606445,-0.04823124408721924
1761131700023953400,4.866953369140625,0.11713409423828125,0.00844883918762207,-0.02905893325805664
1761131700033953300,4.876953369140625,0.11622428894042969,-0.002035856246948242,-0.009323954582214355
1761131700043953200,4.886953125,0.13713932037353516,-0.0018526315689086914,-0.0007513165473937988
1761131700053952500,4.896952392578125,0.10567569732666016,0.023318767547607422,0.03763571381568909
1761131700063952400,4.906952392578125,0.15109634399414062,0.04753100872039795,0.9925044775009155
1761131700073952500,4.916952392578125,0.15102767944335938,0.04742729663848877,0.9908784031867981
1761131700083952400,4.926952392578125,0.074310302734375,-0.04644882678985596,-0.7892476320266724
1761131700093952500,4.936952392578125,0.4738807678222656,-0.10319757461547852,0.0006199479103088379
1761131700103952400,4.946952392578125,0.5405645370483398,0.025220751762390137,0.13303720951080322
1761131700113952500,4.956952392578125,0.4638662338256836,0.07802867889404297,-0.07642781734466553
1761131700123952400,4.966952392578125,0.5023565292358398,0.009455204010009766,0.015293776988983154
1761131700133952500,4.976952392578125,0.5506391525268555,-0.005523085594177246,0.08461031317710876
1761131700143952400,4.986952392578125,0.4893331527709961,-0.040259718894958496,0.0632748007774353
1761131700153953300,4.996953369140625,0.3329505920410156,-0.023368477821350098,0.05543205142021179
1761131700163953200,5.006953125,0.22734832763671875,-0.016051888465881348,-0.008592814207077026
1761131700173953300,5.016953369140625,0.11241340637207031,0.01411592960357666,0.009428799152374268
1761131700183953400,5.026953369140625,0.0168914794921875,0.007222652435302734,0.011326491832733154
1761131700193953300,5.036953369140625,-0.009066581726074219,-0.009545326232910156,-0.004854083061218262
1761131700203953400,5.046953369140625,0.11347103118896484,-0.07156538963317871,-0.038716256618499756
1761131700213953300,5.056953369140625,0.26223278045654297,-0.07518208026885986,-0.04789060354232788
1761131700223953400,5.066953369140625,0.2647256851196289,-0.08740198612213135,-0.043873727321624756
1761131700233953300,5.076953369140625,0.21697139739990234,-0.14813470840454102,0.032407522201538086
1761131700243953400,5.086953369140625,0.004283905029296875,-0.18920481204986572,0.13296735286712646
1761131700253952500,5.096952392578125,-0.2608528137207031,-0.19325625896453857,0.14406806230545044
1761131700263952400,5.106952392578125,-0.4278078079223633,-0.15886473655700684,0.13636821508407593
1761131700273952500,5.116952392578125,-0.5398187637329102,-0.15952730178833008,0.12657997012138367
1761131700283952400,5.126952392578125,-0.6303625106811523,-0.18589532375335693,0.10280737280845642
1761131700293952500,5.136952392578125,-0.6398344039916992,-0.20814132690429688,0.05969014763832092
1761131700303952400,5.146952392578125,-0.6355247497558594,-0.15566611289978027,0.035250306129455566
1761131700313952300,5.1569521484375,-0.7322711944580078,-0.1176002025604248,0.022051990032196045
1761131700323952000,5.1669521484375,-0.8580121994018555,-0.08078455924987793,0.046386390924453735
1761131700333952300,5.1769521484375,-1.0653009414672852,-0.004941821098327637,0.013177633285522461
1761131700343952100,5.1869521484375,-1.1627197265625,-0.004251003265380859,0.002065420150756836
1761131700353953000,5.196953125,-1.0214614868164062,-0.016353130340576172,-0.02956855297088623
1761131700363953000,5.206952880859375,-0.6898136138916016,-0.01037454605102539,-0.12425732612609863
1761131700373953000,5.216953125,-0.3569469451904297,0.016381382942199707,-0.1690714955329895
1761131700383953200,5.226953125,-0.17804431915283203,0.04725229740142822,-0.1863991618156433
1761131700393953000,5.236953125,-0.14787578582763672,0.09152472019195557,-0.15905678272247314
1761131700403953000,5.246952880859375,-0.12241363525390625,0.13032245635986328,-0.12852579355239868
1761131700413953000,5.256953125,0.006110191345214844,0.038851380348205566,-0.2532764673233032
1761131700423953000,5.266952880859375,0.07243537902832031,0.2751896381378174,-0.1317119002342224
1761131700433953000,5.276953125,0.19380855560302734,0.33442580699920654,-0.12806254625320435
1761131700443953000,5.286952880859375,0.3486194610595703,0.35367071628570557,-0.13835203647613525
1761131700453952300,5.2969521484375,0.5751209259033203,0.3282790184020996,-0.146389901638031
1761131700463952100,5.3069521484375,0.732243537902832,0.30046260356903076,-0.16855168342590332
1761131700473952300,5.3169521484375,0.8274307250976562,0.33799099922180176,-0.12895500659942627
1761131700483952000,5.3269521484375,0.9399318695068359,0.37218940258026123,-0.05482298135757446
1761131700493952300,5.3369521484375,1.0387468338012695,0.39775383472442627,0.0020360350608825684
1761131700503952100,5.3469521484375,1.025712013244629,0.35472631454467773,0.0055506229400634766
1761131700513952300,5.3569521484375,0.9607677459716797,0.31437182426452637,-0.02059084177017212
1761131700523952000,5.3669521484375,0.8701972961425781,0.26738762855529785,-0.014161407947540283
1761131700533952300,5.3769521484375,0.6894636154174805,0.21103012561798096,-0.02233031392097473
1761131700543952100,5.3869521484375,0.394775390625,0.16161656379699707,0.025444895029067993
1761131700553953000,5.396953125,0.08669757843017578,0.1073528528213501,0.00510367751121521
1761131700563953000,5.406952880859375,-0.22772693634033203,0.07810723781585693,0.056392818689346313
1761131700573953000,5.416953125,-0.41718482971191406,0.03261852264404297,0.10415071249008179
1761131700583953200,5.426953125,-0.5181131362915039,-0.02869737148284912,0.10520598292350769
1761131700593953000,5.436953125,-0.49254798889160156,-0.027338266372680664,0.09127184748649597
1761131700603953200,5.446953125,-0.4509286880493164,-0.06267309188842773,0.05641111731529236
1761131700613953000,5.456953125,-0.3813467025756836,-0.11084103584289551,0.018650025129318237
1761131700623953200,5.466953125,-0.36281490325927734,-0.14819931983947754,-0.003791630268096924
1761131700633953000,5.476953125,-0.3448143005371094,-0.17359983921051025,0.044229358434677124
1761131700643953200,5.486953125,-0.2648439407348633,-0.22896945476531982,0.03136354684829712
1761131700653952300,5.4969521484375,-0.1876363754272461,-0.20591318607330322,0.006301254034042358
1761131700663952100,5.5069521484375,-0.17761802673339844,-0.19162297248840332,0.010130643844604492
1761131700673952300,5.5169521484375,-0.19161701202392578,-0.12680864334106445,0.06129446625709534
1761131700683952000,5.5269521484375,-0.2463216781616211,-0.15059411525726318,0.08835980296134949
1761131700693952300,5.5369521484375,-0.2891101837158203,-0.1452641487121582,0.08951663970947266
1761131700703952100,5.5469521484375,-0.3392629623413086,-0.1054147481918335,-0.0023339688777923584
1761131700713952300,5.5569521484375,-0.32265281677246094,-0.056920647621154785,0.047391295433044434
1761131700723952000,5.5669521484375,-0.3158855438232422,-0.05482923984527588,0.006723165512084961
1761131700733952300,5.5769521484375,-0.2256641387939453,-0.010502815246582031,-0.02272137999534607
1761131700743952400,5.586952392578125,-0.16684913635253906,0.07835590839385986,-0.044962793588638306
1761131700753953000,5.596953125,-0.10576820373535156,0.11275231838226318,-0.09616008400917053
1761131700763953200,5.606953125,0.019849777221679688,0.09979426860809326,-0.12352302670478821
1761131700773953000,5.616953125,0.11415958404541016,0.10916280746459961,-0.12045055627822876
1761131700783953200,5.626953125,0.19164562225341797,0.10188889503479004,-0.14466968178749084
1761131700793953000,5.636953125,0.30774688720703125,0.028482675552368164,-0.4367954730987549
1761131700803953200,5.646953125,0.16328907012939453,0.08963477611541748,0.018729716539382935
1761131700813953000,5.656953125,0.1294403076171875,0.16653001308441162,-0.21438267827033997
1761131700823953200,5.666953125,0.12226390838623047,0.27991044521331787,-0.32821592688560486
1761131700833953000,5.676953125,0.08623790740966797,0.6687072515487671,-0.6406688690185547
1761131700843953200,5.686953125,-0.4445476531982422,0.8430402278900146,-1.3891760110855103
1761131700853952300,5.6969521484375,-0.06595993041992188,0.560295820236206,-0.855906069278717
1761131700863952100,5.7069521484375,-0.07771873474121094,-0.6936327219009399,-0.9079821705818176
1761131700873952300,5.7169521484375,-0.07689476013183594,-0.6953604221343994,-0.8980188369750977
1761131700883952000,5.7269521484375,0.2595672607421875,0.13047564029693604,0.6321417689323425
1761131700893952300,5.7369521484375,-0.09392929077148438,0.37159836292266846,-0.10530740022659302
1761131700903952100,5.7469521484375,-0.28777599334716797,0.677649736404419,0.30864736437797546
1761131700913952300,5.7569521484375,-0.27007293701171875,-0.2254164218902588,0.7151103615760803
1761131700923952000,5.7669521484375,0.10214614868164062,-0.9673563838005066,1.2383458614349365
1761131700933952300,5.7769521484375,0.3298158645629883,-0.8033541440963745,1.4704991579055786
1761131700943952100,5.7869521484375,0.07083320617675781,-0.38289356231689453,0.8676256537437439
1761131700953953000,5.796953125,-0.0851736068725586,-0.11430227756500244,0.24893835186958313
1761131700963953200,5.806953125,0.13689804077148438,0.08537030220031738,0.08613745868206024
1761131700973953000,5.816953125,0.33032989501953125,0.1015998125076294,0.1982470452785492
1761131700983953200,5.826953125,0.3741645812988281,-0.00008153915405273438,0.18916641175746918
1761131700993953000,5.836953125,0.2662630081176758,-0.12792611122131348,0.14846371114253998
1761131701003953200,5.846953125,0.14256763458251953,-0.14577817916870117,0.15190204977989197
1761131701013953000,5.856953125,-0.033585548400878906,-0.16736841201782227,0.19897258281707764
1761131701023953200,5.866953125,-0.14051342010498047,-0.13059163093566895,0.2684948742389679
1761131701033953000,5.876953125,-0.20476150512695312,-0.16372370719909668,0.1635759323835373
1761131701043953000,5.886952880859375,-0.1520700454711914,-0.12791824340820312,0.039061978459358215
1761131701053952300,5.8969521484375,-0.02551746368408203,-0.056661128997802734,0.02023950219154358
1761131701063952100,5.9069521484375,-0.11224937438964844,-0.04669928550720215,-0.025661438703536987
1761131701073952300,5.9169521484375,-0.2180805206298828,-0.03722846508026123,-0.003689900040626526
1761131701083952000,5.9269521484375,-0.31661415100097656,-0.0595928430557251,0.04136474430561066
1761131701093952300,5.9369521484375,-0.2930450439453125,-0.10571682453155518,0.08770330250263214
1761131701103952100,5.9469521484375,-0.22652149200439453,-0.03602874279022217,0.07055267691612244
1761131701113952300,5.9569521484375,-0.29413604736328125,-0.018749475479125977,0.05285732448101044
1761131701123952000,5.9669521484375,-0.07706260681152344,0.16974318027496338,0.03309620916843414
1761131701133952300,5.9769521484375,-0.3412332534790039,-0.02697932720184326,-0.025871992111206055
1761131701143952100,5.9869521484375,-0.45042991638183594,-0.141035795211792,0.24782763421535492
1761131701153953000,5.996953125,-0.24644184112548828,-0.12327754497528076,0.10793949663639069
1761131701163953000,6.006952880859375,0.054553985595703125,-0.020437002182006836,0.3075094521045685
1761131701173953000,6.016953125,0.2468423843383789,-0.04466521739959717,0.1583710014820099
1761131701183953200,6.026953125,0.1300802230834961,0.01319122314453125,0.09719423949718475
1761131701193953000,6.036953125,0.018311500549316406,0.002444624900817871,0.04919973015785217
1761131701203953200,6.046953125,0.2729768753051758,0.022559165954589844,-0.013163357973098755
1761131701213953000,6.056953125,0.35976409912109375,0.044693827629089355,0.15254472196102142
1761131701223953000,6.066952880859375,0.35787200927734375,0.05461323261260986,0.14990772306919098
1761131701233953000,6.076953125,0.3321676254272461,0.3395240306854248,0.12068633735179901
1761131701243953000,6.086952880859375,0.4026985168457031,0.03603100776672363,0.1846683770418167
1761131701253952300,6.0969521484375,0.35846900939941406,-0.0891944169998169,0.1236199289560318
1761131701263952100,6.1069521484375,0.39094066619873047,-0.03327012062072754,0.14886868000030518
1761131701273952000,6.116951904296875,0.2440814971923828,0.004610300064086914,0.0185127854347229
1761131701283952000,6.1269521484375,0.08320045471191406,0.14112520217895508,0.0005902945995330811
1761131701293952000,6.136951904296875,0.1261911392211914,0.09121870994567871,0.19071373343467712
1761131701303952100,6.1469521484375,0.05682945251464844,0.021155476570129395,0.24177168309688568
1761131701313952000,6.156951904296875,0.03767585754394531,0.0014832019805908203,0.24544738233089447
1761131701323952000,6.1669521484375,0.08763790130615234,-0.10515856742858887,0.39416319131851196
1761131701333952000,6.176951904296875,0.04624462127685547,-0.21242189407348633,0.45182734727859497
1761131701343952100,6.1869521484375,0.11215019226074219,-0.19568073749542236,0.19384217262268066
1761131701353953000,6.196953125,0.10376167297363281,0.027537107467651367,0.029779702425003052
1761131701363953000,6.206952880859375,0.1580648422241211,0.09792280197143555,-0.11657200753688812
1761131701373953000,6.216953125,0.08357524871826172,0.07964158058166504,-0.10745562613010406
1761131701383953000,6.226952880859375,-0.057491302490234375,0.03493332862854004,0.024589091539382935
1761131701393953000,6.236953125,-0.18616294860839844,-0.06932342052459717,0.04420599341392517
1761131701403953000,6.246952880859375,-0.13523387908935547,-0.13051891326904297,-0.009200245141983032
1761131701413953000,6.256953125,0.01815509796142578,-0.004741668701171875,-0.20501169562339783
1761131701423953000,6.266952880859375,0.1568756103515625,-0.028145194053649902,-0.17375361919403076
1761131701443953000,6.286952880859375,0.42731666564941406,0.11028289794921875,-0.32889771461486816
1761131701453952000,6.296951904296875,0.4588813781738281,0.14778578281402588,-0.33337193727493286
1761131701463952100,6.3069521484375,0.4598541259765625,0.14145874977111816,-0.3420707881450653
1761131701473952000,6.316951904296875,0.23146724700927734,0.08445024490356445,-0.08213889598846436
1761131701483952000,6.3269521484375,0.1418771743774414,-0.14713382720947266,0.16970685124397278
1761131701493952000,6.336951904296875,0.04991626739501953,-0.30692601203918457,0.36327630281448364
1761131701503952100,6.3469521484375,0.37005615234375,-0.5255012512207031,0.26917409896850586
1761131701513952000,6.356951904296875,0.1852245330810547,-0.22282791137695312,0.4955003559589386
1761131701523952000,6.3669521484375,-0.12296867370605469,0.05687999725341797,0.2752857506275177
1761131701533952000,6.376951904296875,-0.47574329376220703,0.2290499210357666,0.10042969882488251
1761131701543952100,6.3869521484375,-0.6320438385009766,0.18290448188781738,0.04992039129137993
1761131701553953000,6.396953125,-0.4971790313720703,0.09173703193664551,0.0763891264796257
1761131701563953000,6.406952880859375,-0.3253450393676758,0.005324959754943848,0.14305254817008972
1761131701573953000,6.416953125,-0.21231555938720703,-0.030959010124206543,0.2020130455493927
1761131701583953000,6.426952880859375,-0.21216392517089844,-0.01990532875061035,0.19679291546344757
1761131701593953000,6.436953125,-0.18333148956298828,0.06085944175720215,0.1803380399942398
1761131701603953000,6.446952880859375,-0.10182571411132812,0.06984496116638184,0.1557474136352539
1761131701613953000,6.456953125,0.0012073516845703125,0.06937909126281738,0.09657443314790726
1761131701623953000,6.466952880859375,0.030023574829101562,0.04497802257537842,0.07653886824846268
1761131701633953000,6.476953125,0.011054039001464844,0.01767110824584961,0.13045775890350342
1761131701643953000,6.486952880859375,0.0016603469848632812,-0.014430403709411621,0.14284664392471313
1761131701653952300,6.4969521484375,0.03055286407470703,-0.02727031707763672,0.17179298400878906
1761131701663952100,6.5069521484375,0.05705070495605469,-0.020937561988830566,0.17312803864479065
1761131701673952300,6.5169521484375,0.045371055603027344,-0.02721536159515381,0.15901194512844086
1761131701683952000,6.5269521484375,0.0027971267700195312,-0.0059206485748291016,0.11978952586650848
1761131701693952300,6.5369521484375,-0.06353569030761719,0.014464974403381348,0.055236972868442535
1761131701703952100,6.5469521484375,-0.1130208969116211,0.008092999458312988,0.058501601219177246
1761131701713952300,6.5569521484375,-0.1051483154296875,0.002268671989440918,-0.0165591798722744
1761131701723952000,6.5669521484375,-0.10470104217529297,-0.009462237358093262,-0.013977289199829102
1761131701733952300,6.5769521484375,-0.0853719711303711,-0.017394423484802246,0.04636410251259804
1761131701743952100,6.5869521484375,-0.1356067657470703,-0.05816781520843506,0.11120753735303879
1761131701753953000,6.596953125,-0.16915416717529297,-0.050693511962890625,0.14678877592086792
1761131701763953000,6.606952880859375,-0.17406845092773438,-0.05230987071990967,0.11019186675548553
1761131701773953000,6.616953125,-0.24139118194580078,-0.007604241371154785,0.07145702838897705
1761131701783953000,6.626952880859375,-0.30640697479248047,0.008832097053527832,0.04487651586532593
1761131701793953000,6.636953125,-0.41941356658935547,0.033038973808288574,0.047687891870737076
1761131701803953000,6.646952880859375,-0.3339214324951172,-0.02063465118408203,-0.1316525638103485
1761131701813953000,6.656953125,0.09325790405273438,-0.12097442150115967,-0.32607364654541016
1761131701823953000,6.666952880859375,-0.0852823257446289,-0.00603330135345459,-0.11220723390579224
1761131701833953000,6.676953125,-0.44011688232421875,-0.027436256408691406,-0.07398195564746857
1761131701843953000,6.686952880859375,-0.55078125,-0.03670299053192139,-0.026763945817947388
1761131701853952300,6.6969521484375,-0.4109067916870117,-0.09881234169006348,0.06726116687059402
1761131701863952100,6.7069521484375,-0.01599407196044922,-0.12821555137634277,0.08655660599470139
1761131701873952000,6.716951904296875,0.1629199981689453,-0.1282135248184204,0.09413155913352966
1761131701883952000,6.7269521484375,0.1577777862548828,-0.07450175285339355,0.07029314339160919
1761131701893952000,6.736951904296875,0.17214298248291016,-0.05136120319366455,0.04442698508501053
1761131701903952100,6.7469521484375,0.17944908142089844,-0.028878450393676758,0.026412174105644226
1761131701913952000,6.756951904296875,0.24422264099121094,0.0150831937789917,0.006423458456993103
1761131701923952000,6.7669521484375,0.3449544906616211,-0.013144731521606445,-0.0016539990901947021
1761131701933952000,6.776951904296875,0.3596944808959961,-0.011348605155944824,0.07529062032699585
1761131701943952100,6.7869521484375,0.36515140533447266,-0.037473440170288086,0.10169713199138641
1761131701953953000,6.796953125,0.36620426177978516,0.010982513427734375,0.09987898916006088
1761131701963953000,6.806952880859375,0.3557605743408203,0.02343142032623291,0.09212803095579147
1761131701973953000,6.816953125,0.35301685333251953,0.01638805866241455,0.02593947947025299
1761131701983953000,6.826952880859375,0.2861471176147461,0.056882381439208984,0.006531700491905212
1761131701993953000,6.836953125,0.17666339874267578,0.04207181930541992,0.025755226612091064
1761131702003953000,6.846952880859375,0.11050701141357422,0.09059929847717285,0.023046493530273438
1761131702013953000,6.856953125,0.08514022827148438,0.10031509399414062,-0.016071289777755737
1761131702023953000,6.866952880859375,0.08609676361083984,0.09568417072296143,-0.010379210114479065
1761131702033953000,6.876953125,0.07744503021240234,0.14383816719055176,-0.04851081967353821
1761131702043953000,6.886952880859375,0.10686397552490234,0.13327109813690186,-0.05953596532344818
1761131702053952000,6.896951904296875,0.07873821258544922,0.11583900451660156,-0.047827884554862976
1761131702063952100,6.9069521484375,0.05062675476074219,0.062261104583740234,-0.06130777299404144
1761131702073952000,6.916951904296875,0.053580284118652344,0.03048872947692871,-0.02033652365207672
1761131702083952000,6.9269521484375,0.05417156219482422,-0.0013979673385620117,-0.017215192317962646
1761131702093952000,6.936951904296875,0.06933975219726562,-0.02951180934906006,-0.034627094864845276
1761131702103952100,6.9469521484375,-0.00142669677734375,-0.022957801818847656,-0.04608932137489319
1761131702113952000,6.956951904296875,-0.06719207763671875,0.09743976593017578,-0.196041077375412
1761131702123952000,6.9669521484375,-0.0659027099609375,0.007026314735412598,-0.004084542393684387
1761131702133952000,6.976951904296875,-0.12467002868652344,-0.07524216175079346,0.11013168096542358
1761131702143952100,6.9869521484375,-0.2049264907836914,-0.08124732971191406,0.14736253023147583
1761131702153953000,6.996953125,-0.2876167297363281,0.10202300548553467,0.19811737537384033
1761131702163953000,7.006952880859375,-0.28207874298095703,-0.021771907806396484,0.08740545809268951
1761131702173953000,7.016953125,-0.2627830505371094,-0.017844200134277344,0.12494293600320816
1761131702183953000,7.026952880859375,-0.2436971664428711,-0.017460942268371582,0.10598039627075195
1761131702193953000,7.036953125,-0.1409759521484375,-0.06419157981872559,0.04558311402797699
1761131702203953000,7.046952880859375,-0.0768423080444336,0.0343172550201416,0.11751030385494232
1761131702213953000,7.056953125,0.04457283020019531,-0.08652651309967041,0.08366777002811432
1761131702223953000,7.066952880859375,0.04623222351074219,-0.10657727718353271,0.11436496675014496
1761131702233953000,7.076953125,0.04089927673339844,-0.04854583740234375,0.11941441148519516
1761131702243953000,7.086952880859375,0.02843189239501953,-0.01245129108428955,0.12580837309360504
1761131702253918700,7.096918701171875,0.011113166809082031,-0.007139682769775391,0.13463732600212097
1761131702263885300,7.10688525390625,-0.04209327697753906,0.007664203643798828,0.11986065655946732
1761131702273852200,7.11685205078125,-0.03542137145996094,0.017602086067199707,0.09579057991504669
1761131702283818800,7.12681884765625,0.009523391723632812,-0.027316808700561523,0.08149445056915283
1761131702293785300,7.136785400390625,0.06869125366210938,-0.04026758670806885,0.0509110689163208
1761131702303752000,7.146751953125,0.10385799407958984,0.004591226577758789,0.03006240725517273
1761131702313718800,7.15671875,0.15573978424072266,0.004231572151184082,0.03086473047733307
1761131702323685400,7.166685302734375,0.20039939880371094,0.042427897453308105,0.03179049491882324
1761131702333652000,7.17665185546875,0.19486141204833984,0.06824064254760742,0.047243326902389526
1761131702343618800,7.186618896484375,0.13203811645507812,0.0355830192565918,0.045546457171440125
1761131702353586200,7.196586181640625,0.07899665832519531,0.08559715747833252,0.10370875895023346
1761131702363553000,7.206552978515625,0.1002950668334961,0.051198482513427734,0.025732383131980896
1761131702373519600,7.21651953125,0.09763908386230469,0.038428425788879395,-0.023473933339118958
1761131702383486200,7.226486328125,0.1476755142211914,0.10455453395843506,-0.04640065133571625
1761131702393453000,7.236453125,0.20240116119384766,0.11358034610748291,-0.05628572404384613
1761131702403419600,7.246419677734375,0.1709585189819336,0.10077989101409912,-0.007417067885398865
1761131702413386500,7.256386474609375,0.1707916259765625,0.10140883922576904,-0.009535953402519226
1761131702423353000,7.26635302734375,0.10378360748291016,0.060248374938964844,0.03854861855506897
1761131702433320000,7.27631982421875,0.0656585693359375,0.06139504909515381,-0.0038748979568481445
1761131702443286500,7.28628662109375,0.027719497680664062,0.08082246780395508,-0.06195257604122162
1761131702453252400,7.29625244140625,0.0211334228515625,0.06085371971130371,-0.09484845399856567
1761131702463219000,7.306218994140625,0.03132152557373047,0.07927978038787842,-0.11691641807556152
1761131702473185500,7.316185546875,0.0463409423828125,0.0927053689956665,-0.07900936901569366
1761131702483152400,7.32615234375,-0.02242279052734375,0.05334067344665527,-0.07981294393539429
1761131702493119000,7.336118896484375,-0.10792255401611328,0.07351243495941162,-0.05090522766113281
1761131702503085600,7.34608544921875,-0.11936569213867188,0.04174232482910156,-0.030488118529319763
1761131702513052200,7.35605224609375,-0.10705280303955078,0.03251945972442627,-0.02215549349784851
1761131702523019000,7.36601904296875,-0.023040771484375,0.0408245325088501,-0.030082285404205322
1761131702532985600,7.375985595703125,-0.023080825805664062,0.0409468412399292,-0.030827239155769348
1761131702542952200,7.3859521484375,0.06290435791015625,0.013225317001342773,-0.012517347931861877
1761131702552953000,7.395953125,0.06032562255859375,0.004595637321472168,0.01818770170211792
1761131702562953200,7.405953125,0.007704734802246094,0.00916588306427002,0.09048429131507874
1761131702572953000,7.415953125,-0.0399169921875,0.005550384521484375,0.08724799752235413
1761131702582953200,7.425953125,-0.09453678131103516,-0.01799321174621582,0.01869066059589386
1761131702592953000,7.435953125,-0.10590171813964844,-0.03741025924682617,0.04493008553981781
1761131702602953200,7.445953125,-0.15793228149414062,-0.0545499324798584,0.09553295373916626
1761131702612953000,7.455953125,-0.10225677490234375,-0.09540033340454102,0.0649544894695282
1761131702622953200,7.465953125,-0.049004554748535156,-0.08322608470916748,0.08826027810573578
1761131702632953000,7.475953125,-0.01012420654296875,-0.08769023418426514,0.06643454730510712
1761131702642953200,7.485953125,0.0025014877319335938,-0.08298349380493164,0.015920490026474
1761131702652952300,7.495952392578125,0.01517486572265625,-0.09530484676361084,-0.0013647079467773438
1761131702662952200,7.5059521484375,0.023056983947753906,-0.09569144248962402,-0.019083619117736816
1761131702672952300,7.515952392578125,0.02605152130126953,-0.0334395170211792,-0.042675793170928955
1761131702682952200,7.5259521484375,0.0027074813842773438,-0.04550302028656006,-0.021530956029891968
1761131702692952300,7.535952392578125,-0.03020000457763672,-0.028962135314941406,-0.015159815549850464
1761131702702952200,7.5459521484375,0.0063381195068359375,-0.041213274002075195,-0.03269490599632263
1761131702712952000,7.5559521484375,0.05000019073486328,-0.012482166290283203,-0.04572802782058716
1761131702722952200,7.5659521484375,0.021897315979003906,-0.0031011104583740234,-0.010183483362197876
1761131702732952000,7.5759521484375,-0.027650833129882812,0.008120894432067871,0.02757403254508972
1761131702742952200,7.5859521484375,-0.06998157501220703,0.05032682418823242,0.058361589908599854
1761131702752953000,7.595953125,-0.09077262878417969,0.0734870433807373,0.06068858504295349
1761131702762953000,7.605952880859375,-0.04710960388183594,0.07361006736755371,0.07193255424499512
1761131702772953000,7.615953125,0.015473365783691406,0.06765925884246826,0.0728338360786438
1761131702782953000,7.625952880859375,0.1232156753540039,0.07055938243865967,0.061280667781829834
1761131702792953000,7.635953125,0.1902313232421875,0.05192112922668457,0.039473116397857666
1761131702802953000,7.645952880859375,0.22872161865234375,0.08967137336730957,0.032074809074401855
1761131702812953000,7.655953125,0.219696044921875,0.08244872093200684,0.01070171594619751
1761131702822953000,7.665952880859375,0.16315078735351562,0.09500205516815186,0.014039188623428345
1761131702832953000,7.675953125,0.12363815307617188,0.11580097675323486,0.05618160963058472
1761131702842953000,7.685952880859375,0.07226848602294922,0.10970544815063477,0.004987239837646484
1761131702852952000,7.6959521484375,0.054413795471191406,0.09421181678771973,-0.019202709197998047
1761131702862952200,7.7059521484375,-0.0137939453125,0.07682371139526367,0.05276259779930115
1761131702872952000,7.7159521484375,-0.0007238388061523438,0.08418822288513184,-0.006262838840484619
1761131702882952200,7.7259521484375,0.11986255645751953,0.11412501335144043,-0.07807672023773193
1761131702892952000,7.7359521484375,0.1086893081665039,0.05806541442871094,-0.03609392046928406
1761131702902952200,7.7459521484375,0.042502403259277344,0.022809267044067383,-0.1449241042137146
1761131702912952000,7.7559521484375,0.06487655639648438,0.027983665466308594,-0.11926189064979553
1761131702922952200,7.7659521484375,0.03691387176513672,0.02606379985809326,-0.11384367942810059
1761131702932952000,7.7759521484375,-0.02471637725830078,-0.049605607986450195,-0.052463531494140625
1761131702942952200,7.7859521484375,-0.004885673522949219,-0.03921031951904297,-0.021458029747009277
1761131702952953000,7.795953125,-0.004222869873046875,-0.04294848442077637,-0.023200124502182007
1761131702962953000,7.805952880859375,-0.06572914123535156,0.010542631149291992,-0.08633697032928467
1761131702972953000,7.815953125,-0.10556316375732422,0.03960227966308594,-0.07223513722419739
1761131702982953000,7.825952880859375,-0.12613868713378906,0.017921090126037598,-0.04577299952507019
1761131702992953000,7.835953125,-0.11074447631835938,-0.04466366767883301,0.0025709569454193115
1761131703002953000,7.845952880859375,-0.15521240234375,-0.08074331283569336,0.06350588798522949
1761131703012953000,7.855953125,-0.21874332427978516,-0.11223149299621582,0.08736097812652588
1761131703022953000,7.865952880859375,-0.19381141662597656,-0.14510571956634521,0.06763345003128052
1761131703032953000,7.875953125,-0.13085174560546875,-0.1595064401626587,0.035020798444747925
1761131703042953000,7.885952880859375,-0.14951324462890625,-0.11281776428222656,0.058052122592926025
1761131703052952000,7.8959521484375,-0.10356998443603516,-0.15445339679718018,0.0023057162761688232
1761131703062952200,7.9059521484375,-0.13657569885253906,0.02395021915435791,-0.05556982755661011
1761131703082952200,7.9259521484375,0.058971405029296875,0.3235412836074829,-0.45564308762550354
1761131703092952000,7.9359521484375,0.0785684585571289,0.10391092300415039,-0.2812347114086151
1761131703102952200,7.9459521484375,0.07850837707519531,0.10362231731414795,-0.28394103050231934
1761131703112952000,7.9559521484375,-0.0009870529174804688,-0.06046342849731445,0.03085187077522278
1761131703122952000,7.965951904296875,0.22293853759765625,-0.017930984497070312,0.048296958208084106
1761131703132952000,7.9759521484375,0.3458375930786133,0.010218501091003418,0.022666454315185547
1761131703142952000,7.985951904296875,0.30341053009033203,0.01970231533050537,0.00805133581161499
1761131703152952800,7.995952880859375,0.13187217712402344,0.04711031913757324,0.05850142240524292
