time,seconds_elapsed,z,y,x
1761131695290493200,0.1334931640625,-0.05291620269417763,-0.20242546498775482,-0.44310638308525085
1761131695333513500,0.176513427734375,-0.05291620269417763,-0.20242546498775482,-0.44310638308525085
1761131695343513600,0.186513671875,-0.09262244403362274,0.04314235970377922,-0.23724478483200073
1761131695353513500,0.196513427734375,-0.08529205620288849,-0.000839939690195024,-0.06131559982895851
1761131695363513600,0.206513671875,-0.18364135921001434,-0.03627012297511101,0.08773551881313324
1761131695373513500,0.216513427734375,-0.22029328346252441,-0.2702315151691437,0.19952386617660522
1761131695383513600,0.226513671875,-0.2606103718280792,-0.3410918712615967,0.2703842222690582
1761131695393513500,0.236513427734375,-0.3467423915863037,-0.3288745880126953,0.24900394678115845
1761131695413514000,0.256513916015625,-0.4224896728992462,-0.2842814028263092,0.10117455571889877
1761131695423513900,0.266513916015625,-0.36567920446395874,-0.2183079719543457,0.1152244582772255
1761131695433514000,0.276513916015625,-0.3174208402633667,-0.07903069257736206,0.23434318602085114
1761131695443513900,0.286513916015625,-0.3107013404369354,0.0022143865935504436,0.4090506434440613
1761131695453512200,0.29651220703125,-0.3369685411453247,-0.0668133869767189,0.63507080078125
1761131695463512000,0.306511962890625,-0.4487568736076355,-0.19081902503967285,0.9319512844085693
1761131695473512200,0.31651220703125,-0.6698901057243347,-0.2946661114692688,1.298470377922058
1761131695483512000,0.326511962890625,-0.8311585187911987,-0.4052327275276184,1.642998456954956
1761131695493512200,0.33651220703125,-0.6045275330543518,-0.4308890700340271,1.574581503868103
1761131695503512000,0.346511962890625,-0.4420373737812042,-0.21952970325946808,1.1903473138809204
1761131695513512200,0.35651220703125,-0.41638103127479553,-0.15722143650054932,0.7908414006233215
1761131695523512000,0.366511962890625,-0.48601967096328735,-0.06742425262928009,0.5391649603843689
1761131695533512200,0.37651220703125,-0.4585307240486145,-0.06253732740879059,0.4127158224582672
1761131695543512000,0.386511962890625,-0.43592870235443115,-0.025885414332151413,0.4237114191055298
1761131695553512200,0.39651220703125,-0.40966150164604187,-0.057039543986320496,0.5000695586204529
1761131695563512000,0.406511962890625,-0.23861923813819885,0.1256091594696045,0.5538256764411926
1761131695573512200,0.41651220703125,0.36858081817626953,0.4524220824241638,0.4224896728992462
1761131695583512000,0.426511962890625,0.6886742115020752,0.0071013085544109344,0.22884538769721985
1761131695593512200,0.43651220703125,0.6239224672317505,-0.19509509205818176,0.01748601719737053
1761131695603512000,0.446511962890625,0.4040110111236572,-0.26229026913642883,-0.19142989814281464
1761131695613512200,0.45651220703125,0.21036672592163086,-0.3355940878391266,-0.38201984763145447
1761131695623512000,0.466511962890625,0.13645201921463013,-0.4565454125404358,-0.6037639379501343
1761131695633512200,0.47651220703125,0.14011721312999725,-0.5530621409416199,-0.7974082231521606
1761131695643512000,0.486511962890625,0.1272890418767929,-0.5774967074394226,-0.942183256149292
1761131695653511200,0.49651123046875,0.07414376735687256,-0.5109124183654785,-1.0160980224609375
1761131695663511300,0.50651123046875,0.016111571341753006,-0.40889793634414673,-1.0356457233428955
1761131695673511200,0.51651123046875,0.00022907447419129312,-0.2781727612018585,-1.0234283208847046
1761131695683511300,0.52651123046875,0.008170322515070438,-0.15172365307807922,-1.0026589632034302
1761131695693511200,0.53651123046875,0.024052819237113,0.04314235970377922,-0.9763917326927185
1761131695703511300,0.54651123046875,0.04115704447031021,0.17692184448242188,-0.9415724277496338
1761131695713511200,0.55651123046875,0.06314819306135178,0.353461891412735,-0.9250790476799011
1761131695723511000,0.566510986328125,0.042989641427993774,0.4945717751979828,-0.9605092406272888
1761131695733511200,0.57651123046875,-0.0009926559869199991,0.5434409976005554,-0.9653961658477783
1761131695743511000,0.586510986328125,-0.06146831437945366,0.6381251215934753,-0.9440158605575562
1761131695763512000,0.606511962890625,0.04482223838567734,0.7835110425949097,-0.7430412173271179
1761131695773512000,0.616511962890625,0.08391761034727097,0.7114289402961731,-0.6062073707580566
1761131695783512000,0.626511962890625,0.08636107295751572,0.6020840406417847,-0.4406629204750061
1761131695793512000,0.636511962890625,0.0973566472530365,0.36995527148246765,-0.2335795909166336
1761131695803512000,0.646511962890625,0.09613491594791412,0.20013472437858582,-0.021609358489513397
1761131695813512000,0.656511962890625,0.11385001242160797,0.0749073475599289,0.15309810638427734
1761131695823512000,0.666511962890625,0.10590875893831253,0.0022143865935504436,0.2673299014568329
1761131695833512000,0.676511962890625,0.08575020730495453,-0.02099849283695221,0.3223077654838562
1761131695843512000,0.686511962890625,0.09124799817800522,-0.0014508049935102463,0.29909488558769226
1761131695853511200,0.69651123046875,0.09980010986328125,0.10667234659194946,0.2661081850528717
1761131695863511000,0.706510986328125,0.09430231899023056,0.18791742622852325,0.25511258840560913
1761131695873511200,0.71651123046875,0.09796751290559769,0.2471713423728943,0.28443413972854614
1761131695883511000,0.726510986328125,0.09980010986328125,0.2758820056915283,0.32352951169013977
1761131695893511200,0.73651123046875,0.09430231899023056,0.27466028928756714,0.35590535402297974
1761131695903511000,0.746510986328125,0.08941540122032166,0.2813797891139984,0.382783442735672
1761131695913511200,0.75651123046875,0.11140654981136322,0.2056325078010559,0.37056612968444824
1761131695923511000,0.766510986328125,0.1175151988863945,0.15615242719650269,0.35590535402297974
1761131695933511200,0.77651123046875,0.13339769840240479,0.12255483865737915,0.34002286195755005
1761131695943511000,0.786510986328125,0.16210836172103882,0.10606148093938828,0.31375566124916077
1761131695953512000,0.796511962890625,0.1883755773305893,0.11583532392978668,0.2856558561325073
1761131695963512000,0.806511962890625,0.2036471962928772,0.13904820382595062,0.25389087200164795
1761131695973512000,0.816511962890625,0.21647536754608154,0.1555415689945221,0.22701279819011688
1761131695983512000,0.826511962890625,0.21158844232559204,0.1952477991580963,0.2105194330215454
1761131695993512000,0.836511962890625,0.22502748668193817,0.15615242719650269,0.18852828443050385
1761131696003512000,0.846511962890625,0.2134210467338562,0.13232868909835815,0.17203491926193237
1761131696013512000,0.856511962890625,0.18654297292232513,0.12194397300481796,0.1500437706708908
1761131696023512000,0.866511962890625,0.1676061451435089,0.11155926436185837,0.10361801832914352
1761131696033512000,0.876511962890625,0.15966489911079407,0.09873109310865402,0.0645226389169693
1761131696043512000,0.886511962890625,0.15172365307807922,0.09750936180353165,0.0443640872836113
1761131696053511200,0.89651123046875,0.1480584591627121,0.10056369006633759,0.03153591975569725
1761131696063511000,0.906510986328125,0.14683672785758972,0.11888964474201202,0.021151209250092506
1761131696073511200,0.91651123046875,0.1431715488433838,0.15126550197601318,0.016264287754893303
1761131696083511000,0.926510986328125,0.14072808623313904,0.1799761801958084,0.033368512988090515
1761131696093511200,0.93651123046875,0.11507174372673035,0.23984096944332123,0.038866300135850906
1761131696103511000,0.946510986328125,0.12912164628505707,0.22884538769721985,0.009544769302010536
1761131696113511200,0.95651123046875,0.12179125845432281,0.2416735589504242,0.016264287754893303
1761131696123511000,0.966510986328125,0.10041097551584244,0.24045182764530182,0.04069889709353447
1761131696133511200,0.97651123046875,0.08636107295751572,0.22884538769721985,0.05474879592657089
1761131696143511000,0.986510986328125,0.07841982692480087,0.22945626080036163,0.07918340712785721
1761131696153512000,0.996511962890625,0.09796751290559769,0.18364135921001434,0.09078984707593918
1761131696163512000,1.006511962890625,0.0869719386100769,0.17203491926193237,0.09873109310865402
1761131696173512000,1.016511962890625,0.08513934165239334,0.1702023297548294,0.10239628702402115
1761131696183511800,1.02651171875,0.09124799817800522,0.16653713583946228,0.09506590664386749
1761131696193512000,1.036511962890625,0.0924697294831276,0.15187637507915497,0.09873109310865402
1761131696203511800,1.04651171875,0.082085020840168,0.11950051039457321,0.11033753305673599
1761131696213512000,1.056511962890625,0.07414376735687256,0.10545061528682709,0.11888964474201202
1761131696223511800,1.06651171875,0.072311170399189,0.09140071272850037,0.12744176387786865
1761131696233512000,1.076511962890625,0.05948300287127495,0.09934195876121521,0.1610393524169922
1761131696243511800,1.08651171875,0.04360050708055496,0.10422888398170471,0.18791742622852325
1761131696253511000,1.096510986328125,0.0264962799847126,0.10361801832914352,0.20441077649593353
1761131696263511000,1.106510986328125,0.022220224142074585,0.07735081017017365,0.1958586722612381
1761131696273511000,1.116510986328125,0.017333300784230232,0.03703370690345764,0.18730655312538147
1761131696283511000,1.126510986328125,0.0014508049935102463,-0.0014508049935102463,0.18180876970291138
1761131696293511000,1.136510986328125,-0.0016035212902352214,-0.03199406713247299,0.17447838187217712
1761131696303511000,1.146510986328125,-0.009544769302010536,-0.05032002553343773,0.17386752367019653
1761131696313511000,1.156510986328125,-0.01687515154480934,-0.03871358558535576,0.17814357578754425
1761131696323511000,1.166510986328125,-0.008323038928210735,-0.025885414332151413,0.1811978965997696
1761131696333511000,1.176510986328125,-0.015653422102332115,-0.002672535367310047,0.1653154045343399
1761131696343511000,1.186510986328125,-0.02848159149289131,0.03214678168296814,0.12194397300481796
1761131696353512000,1.196511962890625,-0.0339793786406517,0.033368512988090515,0.0694095641374588
1761131696363511800,1.20651171875,-0.04253149405121803,0.018707748502492905,0.0290924571454525
1761131696373512000,1.216511962890625,-0.05047274008393288,0.0034361169673502445,0.0022143865935504436
1761131696383511800,1.22651171875,-0.051083605736494064,-0.011835514567792416,-0.004505131393671036
1761131696393512000,1.236511962890625,-0.053527068346738815,-0.02038762718439102,-0.0032834007870405912
1761131696403511600,1.246511474609375,-0.05597052723169327,-0.01488984003663063,-0.0032834007870405912
1761131696413511400,1.256511474609375,-0.06391177326440811,-0.0069485921412706375,-0.02099849283695221
1761131696423511600,1.266511474609375,-0.07063129544258118,0.0016035212902352214,-0.05581781268119812
1761131696433511400,1.276511474609375,-0.07124216109514236,0.002825251780450344,-0.08880453556776047
1761131696443511600,1.286511474609375,-0.06269004940986633,-0.0032834007870405912,-0.09796751290559769
1761131696453510700,1.2965107421875,-0.047418415546417236,-0.015500705689191818,-0.08575020730495453
1761131696463510800,1.3065107421875,-0.024205535650253296,-0.016111571341753006,-0.06131559982895851
1761131696473510700,1.3165107421875,-0.010766499675810337,-0.002672535367310047,-0.045433104038238525
1761131696483510800,1.3265107421875,-0.005268712528049946,0.010155634954571724,-0.036880988627672195
1761131696493510700,1.3365107421875,-0.0034361169673502445,0.02054034359753132,-0.04115704447031021
1761131696503510800,1.3465107421875,-0.010155634954571724,0.013209961354732513,-0.06864598393440247
1761131696513510400,1.356510498046875,-0.018096882849931717,-0.010002918541431427,-0.10529789328575134
1761131696523510300,1.36651025390625,-0.025427265092730522,-0.03627012297511101,-0.1419498175382614
1761131696533510400,1.376510498046875,-0.02848159149289131,-0.052152618765830994,-0.1676061451435089
1761131696543510300,1.38651025390625,-0.03275764733552933,-0.05581781268119812,-0.18043431639671326
1761131696553511200,1.39651123046875,-0.030314188450574875,-0.04909829422831535,-0.17921258509159088
1761131696563511300,1.40651123046875,-0.015042556449770927,-0.04054617881774902,-0.16210836172103882
1761131696573511200,1.41651123046875,0.0032834007870405912,-0.03871358558535576,-0.13400855660438538
1761131696583511300,1.42651123046875,0.016722436994314194,-0.045433104038238525,-0.10957395285367966
1761131696593511200,1.43651123046875,0.021609358489513397,-0.054596081376075745,-0.09308059513568878
1761131696603511300,1.44651123046875,0.024663684889674187,-0.06864598393440247,-0.08025242388248444
1761131696613511200,1.45651123046875,0.025274548679590225,-0.08880453556776047,-0.07292203605175018
1761131696623511800,1.46651171875,0.02099849283695221,-0.12423472106456757,-0.07170030474662781
1761131696633512000,1.476511962890625,0.016111571341753006,-0.15599970519542694,-0.07353290170431137
1761131696643511800,1.48651171875,0.006337726954370737,-0.16577355563640594,-0.06375905871391296
1761131696653511200,1.49651123046875,0.0032834007870405912,-0.1724930703639984,-0.03627012297511101
1761131696663511000,1.506510986328125,0.0020616701804101467,-0.1737148016691208,0.0009926559869199991
1761131696673511200,1.51651123046875,0.0020616701804101467,-0.16088663041591644,0.03764457255601883
1761131696683511000,1.526510986328125,0.008781188167631626,-0.13584116101264954,0.05841398984193802
1761131696693511200,1.53651123046875,0.02038762718439102,-0.09063713252544403,0.05474879592657089
1761131696703511300,1.54651123046875,0.028328875079751015,-0.07047858089208603,0.03459024429321289
1761131696713511400,1.556511474609375,0.03443752974271774,-0.057650405913591385,0.010766499675810337
1761131696723511300,1.56651123046875,0.03749185428023338,-0.05948300287127495,-0.0069485921412706375
1761131696733952300,1.5769521484375,0.03627012297511101,-0.06803511828184128,-0.022220224142074585
1761131696743952400,1.586952392578125,0.03749185428023338,-0.07841982692480087,-0.03443752974271774
1761131696753953300,1.596953369140625,0.039935316890478134,-0.08025242388248444,-0.030161472037434578
1761131696763953200,1.606953125,0.03199406713247299,-0.07108944654464722,-0.019776761531829834
1761131696773953300,1.616953369140625,0.02344195358455181,-0.0619264654815197,-0.022220224142074585
1761131696783953200,1.626953125,0.014278975315392017,-0.05276348441839218,-0.03627012297511101
1761131696793953300,1.636953369140625,0.007559457328170538,-0.04909829422831535,-0.05398521572351456
1761131696803953200,1.646953125,0.005726861767470837,-0.048487428575754166,-0.060093868523836136
1761131696813953500,1.65695361328125,0.0069485921412706375,-0.04970915988087654,-0.05398521572351456
1761131696823953700,1.66695361328125,0.016722436994314194,-0.04482223838567734,-0.04054617881774902
1761131696833953500,1.67695361328125,0.03260493278503418,-0.024052819237113,-0.02344195358455181
1761131696843953700,1.68695361328125,0.04237877577543259,-0.007559457328170538,-0.011835514567792416
1761131696853952800,1.696952880859375,0.04115704447031021,-0.0014508049935102463,-0.01366810966283083
1761131696863952600,1.70695263671875,0.03443752974271774,-0.004505131393671036,-0.02099849283695221
1761131696873952800,1.716952880859375,0.030772335827350616,-0.02099849283695221,-0.03260493278503418
1761131696883952600,1.72695263671875,0.02955060638487339,-0.03199406713247299,-0.05337435007095337
1761131696893952800,1.736952880859375,0.02344195358455181,-0.01794416643679142,-0.0668133869767189
1761131696903952600,1.74695263671875,0.025885414332151413,-0.0020616701804101467,-0.06620252132415771
1761131696913952800,1.756952880859375,0.03199406713247299,0.004046982154250145,-0.060093868523836136
1761131696923952000,1.7669521484375,0.02955060638487339,0.01748601719737053,-0.04726569727063179
1761131696933952000,1.776951904296875,0.02955060638487339,0.024816401302814484,-0.03565925732254982
1761131696943952100,1.7869521484375,0.02710714563727379,0.030314188450574875,-0.024663684889674187
1761131696953953000,1.796953125,0.022220224142074585,0.04375322163105011,-0.022220224142074585
1761131696963953000,1.806952880859375,0.017333300784230232,0.05169447138905525,-0.02955060638487339
1761131696973953000,1.816953125,0.011224648915231228,0.04986187443137169,-0.04482223838567734
1761131696983953000,1.826952880859375,0.000839939690195024,0.051083605736494064,-0.04604396969079971
1761131696993953000,1.836953125,-0.011377365328371525,0.04314235970377922,-0.04054617881774902
1761131697003953000,1.846952880859375,-0.016264287754893303,0.030925052240490913,-0.03260493278503418
1761131697013953000,1.856953125,-0.016264287754893303,0.029703322798013687,-0.031383201479911804
1761131697023953000,1.866952880859375,-0.015042556449770927,0.03459024429321289,-0.033826664090156555
1761131697033953000,1.876953125,-0.009544769302010536,0.04008803144097328,-0.03504839166998863
1761131697043953000,1.886952880859375,-0.004046982154250145,0.05169447138905525,-0.02710714563727379
1761131697053952000,1.896951904296875,0.00022907447419129312,0.051083605736494064,-0.010002918541431427
1761131697063952100,1.9069521484375,-0.0016035212902352214,0.048029281198978424,0.004657847341150045
1761131697073952000,1.916951904296875,-0.0022143865935504436,0.04864014685153961,0.007712173741310835
1761131697083952000,1.9269521484375,-0.004046982154250145,0.05047274008393288,0.008933904580771923
1761131697093952000,1.936951904296875,-0.006490443367511034,0.05230533704161644,0.015653422102332115
1761131697103952100,1.9469521484375,-0.009544769302010536,0.04314235970377922,0.035811975598335266
1761131697113952000,1.956951904296875,-0.0071013085544109344,0.023594669997692108,0.06085744872689247
1761131697123952000,1.9669521484375,0.002672535367310047,0.002825251780450344,0.09873109310865402
1761131697133952000,1.976951904296875,0.01061378326267004,-0.010002918541431427,0.14332425594329834
1761131697143952100,1.9869521484375,0.011224648915231228,-0.0069485921412706375,0.17631098628044128
1761131697153953000,1.996953125,0.016111571341753006,0.0009926559869199991,0.20807597041130066
1761131697163953000,2.006952880859375,0.01794416643679142,-0.0014508049935102463,0.22212587296962738
1761131697173953000,2.016953125,0.012446379289031029,-0.004505131393671036,0.220904141664505
1761131697183953000,2.026952880859375,0.008170322515070438,-0.012446379289031029,0.20257818698883057
1761131697193953000,2.036953125,-0.002825251780450344,-0.012446379289031029,0.17753271758556366
1761131697203953000,2.046952880859375,-0.011988230049610138,-0.0014508049935102463,0.1549306958913803
1761131697213953000,2.056953125,-0.022372938692569733,0.009544769302010536,0.12866349518299103
1761131697223953000,2.066952880859375,-0.02848159149289131,0.018707748502492905,0.10606148093938828
1761131697233953000,2.076953125,-0.03153591975569725,0.023594669997692108,0.09017898142337799
1761131697243953000,2.086952880859375,-0.03520110994577408,0.019318614155054092,0.08223773539066315
1761131697253952000,2.096951904296875,-0.04008803144097328,0.004657847341150045,0.07673994451761246
1761131697263952100,2.1069521484375,-0.04680754989385605,-0.0069485921412706375,0.06391177326440811
1761131697273952000,2.116951904296875,-0.06269004940986633,-0.007559457328170538,0.04130976274609566
1761131697283952000,2.1269521484375,-0.07612907886505127,-0.01061378326267004,0.015653422102332115
1761131697293952000,2.136951904296875,-0.09262244403362274,-0.017333300784230232,-0.0020616701804101467
1761131697303952100,2.1469521484375,-0.10728321224451065,-0.030161472037434578,-0.01794416643679142
1761131697313952000,2.156951904296875,-0.11217013001441956,-0.04054617881774902,-0.024052819237113
1761131697323952000,2.1669521484375,-0.11644618958234787,-0.03810271993279457,-0.024663684889674187
1761131697333952000,2.176951904296875,-0.11705705523490906,-0.02099849283695221,-0.025274548679590225
1761131697343952100,2.1869521484375,-0.11644618958234787,-0.0038942659739404917,-0.019165897741913795
1761131697353953000,2.196953125,-0.10789407044649124,0.00038179077091626823,-0.008781188167631626
1761131697363953000,2.206952880859375,-0.09934195876121521,-0.0014508049935102463,-0.0032834007870405912
1761131697373953000,2.216953125,-0.09873109310865402,-0.005726861767470837,-0.0014508049935102463
1761131697383953000,2.226952880859375,-0.09323330968618393,-0.01366810966283083,-0.004505131393671036
1761131697393953000,2.236953125,-0.08345946669578552,-0.027718011289834976,-0.008170322515070438
1761131697403953000,2.246952880859375,-0.08040513843297958,-0.024052819237113,-0.006337726954370737
1761131697413953000,2.256953125,-0.07918340712785721,-0.022220224142074585,-0.000839939690195024
1761131697423953000,2.266952880859375,-0.08101600408554077,-0.025274548679590225,-0.0020616701804101467
1761131697433953000,2.276953125,-0.08834638446569443,-0.028328875079751015,-0.005115996580570936
1761131697443953000,2.286952880859375,-0.08773551881313324,-0.03199406713247299,-0.005115996580570936
1761131697453952000,2.296951904296875,-0.08712465316057205,-0.03565925732254982,-0.005726861767470837
1761131697463952100,2.3069521484375,-0.08590292185544968,-0.030772335827350616,0.0016035212902352214
1761131697473952000,2.316951904296875,-0.07612907886505127,-0.031383201479911804,0.009544769302010536
1761131697483952000,2.3269521484375,-0.06696610152721405,-0.03443752974271774,0.006490443367511034
1761131697493952000,2.336951904296875,-0.06513350456953049,-0.03260493278503418,0.010155634954571724
1761131697503952100,2.3469521484375,-0.06146831437945366,-0.03443752974271774,0.01687515154480934
1761131697513952000,2.356951904296875,-0.05535966157913208,-0.03565925732254982,0.02298380434513092
1761131697523952000,2.3669521484375,-0.053527068346738815,-0.030772335827350616,0.027870727702975273
1761131697533952000,2.376951904296875,-0.05047274008393288,-0.030161472037434578,0.03153591975569725
1761131697543952100,2.3869521484375,-0.04314235970377922,-0.031383201479911804,0.025427265092730522
1761131697553953000,2.396953125,-0.039477165788412094,-0.033826664090156555,0.011377365328371525
1761131697563953000,2.406952880859375,-0.0339793786406517,-0.03504839166998863,0.0016035212902352214
1761131697573953000,2.416953125,-0.0290924571454525,-0.03199406713247299,-0.00022907447419129312
1761131697583953000,2.426952880859375,-0.027870727702975273,-0.03504839166998863,-0.0032834007870405912
1761131697593953000,2.436953125,-0.025427265092730522,-0.03443752974271774,-0.008170322515070438
1761131697603953000,2.446952880859375,-0.02054034359753132,-0.03443752974271774,-0.0038942659739404917
1761131697613953000,2.456953125,-0.013209961354732513,-0.03627012297511101,0.007712173741310835
1761131697623953000,2.466952880859375,-0.00038179077091626823,-0.01488984003663063,0.024816401302814484
1761131697633953000,2.476953125,0.008781188167631626,0.0009926559869199991,0.03703370690345764
1761131697643953000,2.486952880859375,0.012446379289031029,0.014431691728532314,0.04558581858873367
1761131697653952300,2.4969521484375,0.014278975315392017,0.014431691728532314,0.04558581858873367
1761131697663952100,2.5069521484375,0.01366810966283083,0.007712173741310835,0.0290924571454525
1761131697673952300,2.5169521484375,0.012446379289031029,-0.005115996580570936,0.012599095702171326
1761131697683952000,2.5269521484375,0.013057244941592216,-0.019776761531829834,0.0016035212902352214
1761131697693952300,2.5369521484375,0.012446379289031029,-0.024052819237113,-0.00939205288887024
1761131697703952100,2.5469521484375,0.01794416643679142,-0.019776761531829834,-0.0069485921412706375
1761131697713952300,2.5569521484375,0.025885414332151413,-0.007559457328170538,0.0071013085544109344
1761131697723952000,2.5669521484375,0.03199406713247299,0.0016035212902352214,0.018707748502492905
1761131697733952300,2.5769521484375,0.033826664090156555,0.012599095702171326,0.027870727702975273
1761131697743952100,2.5869521484375,0.04360050708055496,0.01992947794497013,0.039477165788412094
1761131697753953000,2.596953125,0.0466548316180706,0.023594669997692108,0.03825543448328972
1761131697763953200,2.606953125,0.045433104038238525,0.029703322798013687,0.024816401302814484
1761131697773953000,2.616953125,0.04054617881774902,0.03459024429321289,0.014431691728532314
1761131697783953200,2.626953125,0.04054617881774902,0.027259862050414085,0.0016035212902352214
1761131697793953000,2.636953125,0.04054617881774902,0.010766499675810337,-0.008781188167631626
1761131697803953200,2.646953125,0.042989641427993774,-0.0020616701804101467,-0.006337726954370737
1761131697813953000,2.656953125,0.051541756838560104,-0.008170322515070438,-0.000839939690195024
1761131697823953200,2.666953125,0.054596081376075745,-0.00022907447419129312,-0.005115996580570936
1761131697833953000,2.676953125,0.05093089118599892,0.011988230049610138,-0.006337726954370737
1761131697843953200,2.686953125,0.045433104038238525,0.01748601719737053,-0.005726861767470837
1761131697853952300,2.6969521484375,0.045433104038238525,0.01748601719737053,-0.011224648915231228
1761131697863952400,2.706952392578125,0.04604396969079971,0.016264287754893303,-0.01366810966283083
1761131697873952300,2.7169521484375,0.048487428575754166,0.018096882849931717,-0.005115996580570936
1761131697883952400,2.726952392578125,0.05093089118599892,0.022372938692569733,-0.00022907447419129312
1761131697893952300,2.7369521484375,0.05093089118599892,0.027870727702975273,-0.0032834007870405912
1761131697903952400,2.746952392578125,0.05276348441839218,0.04130976274609566,-0.0038942659739404917
1761131697913952300,2.7569521484375,0.060704734176397324,0.04008803144097328,-0.007559457328170538
1761131697923952400,2.766952392578125,0.06864598393440247,0.030314188450574875,-0.011224648915231228
1761131697933952300,2.7769521484375,0.07170030474662781,0.018707748502492905,-0.018555032089352608
1761131697943952400,2.786952392578125,0.07536549866199493,0.006490443367511034,-0.021609358489513397
1761131697953953000,2.796953125,0.072311170399189,-0.0014508049935102463,-0.019776761531829834
1761131697963953000,2.806952880859375,0.06436992436647415,-0.004505131393671036,-0.022220224142074585
1761131697973953000,2.816953125,0.057650405913591385,-0.0038942659739404917,-0.030772335827350616
1761131697983953000,2.826952880859375,0.05337435007095337,-0.005726861767470837,-0.03749185428023338
1761131697993953000,2.836953125,0.04909829422831535,-0.01366810966283083,-0.04054617881774902
1761131698003953000,2.846952880859375,0.05337435007095337,-0.024052819237113,-0.04054617881774902
1761131698013953000,2.856953125,0.0619264654815197,-0.039324451237916946,-0.039324451237916946
1761131698023953000,2.866952880859375,0.07047858089208603,-0.04482223838567734,-0.04421137273311615
1761131698033953000,2.876953125,0.07414376735687256,-0.045433104038238525,-0.057039543986320496
1761131698043953000,2.886952880859375,0.07964155822992325,-0.04421137273311615,-0.07475463300943375
1761131698053952000,2.896951904296875,0.07903069257736206,-0.03810271993279457,-0.09980010986328125
1761131698063952100,2.9069521484375,0.0771980956196785,-0.024663684889674187,-0.1278999149799347
1761131698073952000,2.916951904296875,0.07353290170431137,-0.011835514567792416,-0.15477798879146576
1761131698083952000,2.9269521484375,0.06253732740879059,0.006490443367511034,-0.18959729373455048
1761131698093952000,2.936951904296875,0.05337435007095337,0.011377365328371525,-0.21097758412361145
1761131698103952100,2.9469521484375,0.03810271993279457,0.01687515154480934,-0.2293035387992859
1761131698113952000,2.956951904296875,0.02344195358455181,0.019318614155054092,-0.23785565793514252
1761131698123952000,2.9669521484375,0.005726861767470837,0.023594669997692108,-0.23663392663002014
1761131698133952000,2.976951904296875,-0.008933904580771923,0.033368512988090515,-0.22686007618904114
1761131698143952100,2.9869521484375,-0.022372938692569733,0.047418415546417236,-0.2079232633113861
1761131698153952800,2.996952880859375,-0.03153591975569725,0.06207918003201485,-0.18409951031208038
1761131698163953000,3.006952880859375,-0.033368512988090515,0.08284860104322433,-0.1584431678056717
1761131698173952800,3.016952880859375,-0.03520110994577408,0.09934195876121521,-0.1382846236228943
1761131698183953000,3.026952880859375,-0.036422841250896454,0.11155926436185837,-0.12545645236968994
1761131698193952800,3.036952880859375,-0.041920628398656845,0.11094839870929718,-0.11873693019151688
1761131698203953000,3.046952880859375,-0.051083605736494064,0.10056369006633759,-0.11140654981136322
1761131698213952800,3.056952880859375,-0.05719225853681564,0.08223773539066315,-0.102243572473526
1761131698223953000,3.066952880859375,-0.06391177326440811,0.07124216109514236,-0.09491318464279175
1761131698233952800,3.076952880859375,-0.07002042979001999,0.07002042979001999,-0.09002626687288284
1761131698243953000,3.086952880859375,-0.07002042979001999,0.07612907886505127,-0.08330674469470978
1761131698253952000,3.096951904296875,-0.06879869848489761,0.08284860104322433,-0.07170030474662781
1761131698263952100,3.1069521484375,-0.06513350456953049,0.08895725011825562,-0.05398521572351456
1761131698273952000,3.116951904296875,-0.06330090761184692,0.09323330968618393,-0.03627012297511101
1761131698283952000,3.1269521484375,-0.06757696717977524,0.09506590664386749,-0.027718011289834976
1761131698293952000,3.136951904296875,-0.06879869848489761,0.09323330968618393,-0.02344195358455181
1761131698303952100,3.1469521484375,-0.06330090761184692,0.09628763794898987,-0.024052819237113
1761131698313952000,3.156951904296875,-0.05902485549449921,0.09506590664386749,-0.03871358558535576
1761131698323952000,3.1669521484375,-0.0492510087788105,0.08529205620288849,-0.04909829422831535
1761131698333952000,3.176951904296875,-0.036422841250896454,0.0742964819073677,-0.04360050708055496
1761131698343952100,3.1869521484375,-0.01992947794497013,0.06269004940986633,-0.028328875079751015
1761131698353953000,3.196953125,-0.005879578180611134,0.05535966157913208,-0.0069485921412706375
1761131698363953000,3.206952880859375,0.000839939690195024,0.0541379339993,0.011988230049610138
1761131698373953000,3.216953125,0.005726861767470837,0.05474879592657089,0.03459024429321289
1761131698383953000,3.226952880859375,0.011224648915231228,0.05230533704161644,0.060246583074331284
1761131698393953000,3.236953125,0.01488984003663063,0.03764457255601883,0.0742964819073677
1761131698403953000,3.246952880859375,0.017333300784230232,0.018096882849931717,0.07551821321249008
1761131698413953000,3.256953125,0.016722436994314194,0.002825251780450344,0.05841398984193802
1761131698423953000,3.266952880859375,0.015500705689191818,0.0034361169673502445,0.03703370690345764
1761131698433953000,3.276953125,0.025885414332151413,-0.006337726954370737,0.022372938692569733
1761131698443953000,3.286952880859375,0.02710714563727379,-0.0020616701804101467,0.00038179077091626823
1761131698453952300,3.2969521484375,0.01366810966283083,0.014431691728532314,-0.011224648915231228
1761131698463952100,3.3069521484375,0.018555032089352608,0.021762074902653694,-0.008781188167631626
1761131698473952300,3.3169521484375,0.028328875079751015,0.030925052240490913,0.008323038928210735
1761131698483952000,3.3269521484375,0.024663684889674187,0.004046982154250145,0.02054034359753132
1761131698503952100,3.3469521484375,0.008781188167631626,0.02298380434513092,0.0016035212902352214
1761131698513952300,3.3569521484375,-0.0797942727804184,0.010766499675810337,-0.017333300784230232
1761131698523952000,3.3669521484375,-0.010766499675810337,0.05535966157913208,-0.04726569727063179
1761131698533952300,3.3769521484375,0.028328875079751015,0.021151209250092506,-0.0918588638305664
1761131698543952100,3.3869521484375,-0.0034361169673502445,0.03459024429321289,-0.08147415518760681
1761131698553953000,3.396953125,0.002672535367310047,0.036422841250896454,-0.06803511828184128
1761131698563953200,3.406953125,0.016722436994314194,0.041920628398656845,-0.04054617881774902
1761131698573953000,3.416953125,0.019776761531829834,0.05902485549449921,-0.014278975315392017
1761131698583953200,3.426953125,0.027718011289834976,0.07002042979001999,-0.008170322515070438
1761131698593953000,3.436953125,0.033826664090156555,0.07307475805282593,-0.01794416643679142
1761131698603953200,3.446953125,0.03321579843759537,0.06818783283233643,-0.03443752974271774
1761131698613953000,3.456953125,0.031383201479911804,0.05474879592657089,-0.05276348441839218
1761131698623953200,3.466953125,0.02955060638487339,0.03520110994577408,-0.06742425262928009
1761131698633953000,3.476953125,0.028328875079751015,0.01748601719737053,-0.06559165567159653
1761131698643953200,3.486953125,0.03810271993279457,0.010155634954571724,-0.04482223838567734
1761131698653952300,3.4969521484375,0.04421137273311615,-0.000839939690195024,-0.02038762718439102
1761131698663952100,3.5069521484375,0.04604396969079971,0.004657847341150045,-0.00022907447419129312
1761131698673952300,3.5169521484375,0.04482223838567734,-0.005726861767470837,0.010766499675810337
1761131698683952000,3.5269521484375,0.04115704447031021,-0.019776761531829834,0.015653422102332115
1761131698693952300,3.5369521484375,0.03443752974271774,-0.03321579843759537,0.018096882849931717
1761131698703952100,3.5469521484375,0.030772335827350616,-0.03749185428023338,0.027870727702975273
1761131698713952300,3.5569521484375,0.03443752974271774,-0.04054617881774902,0.04008803144097328
1761131698723952000,3.5669521484375,0.03810271993279457,-0.04421137273311615,0.05597052723169327
1761131698733952300,3.5769521484375,0.04360050708055496,-0.048487428575754166,0.06635523587465286
1761131698743952100,3.5869521484375,0.04970915988087654,-0.048487428575754166,0.060246583074331284
1761131698753953000,3.596953125,0.05398521572351456,-0.039935316890478134,0.05047274008393288
1761131698763953000,3.606952880859375,0.060093868523836136,-0.04054617881774902,0.044974952936172485
1761131698773953000,3.616953125,0.06498079001903534,-0.04360050708055496,0.04375322163105011
1761131698783953000,3.626952880859375,0.07414376735687256,-0.051541756838560104,0.053527068346738815
1761131698793953000,3.636953125,0.07292203605175018,-0.045433104038238525,0.05535966157913208
1761131698803953000,3.646952880859375,0.07353290170431137,-0.03260493278503418,0.05230533704161644
1761131698813953000,3.656953125,0.07353290170431137,-0.031383201479911804,0.04619668424129486
1761131698823953000,3.666952880859375,0.06925684958696365,-0.04115704447031021,0.036422841250896454
1761131698833953000,3.676953125,0.06620252132415771,-0.051541756838560104,0.03764457255601883
1761131698843953000,3.686952880859375,0.06375905871391296,-0.05520694702863693,0.04253149405121803
1761131698853952000,3.696951904296875,0.06375905871391296,-0.0466548316180706,0.04986187443137169
1761131698863952100,3.7069521484375,0.06498079001903534,-0.030161472037434578,0.053527068346738815
1761131698873952000,3.716951904296875,0.06620252132415771,-0.01488984003663063,0.04986187443137169
1761131698883952000,3.7269521484375,0.0668133869767189,-0.008170322515070438,0.04008803144097328
1761131698893952000,3.736951904296875,0.06986771523952484,-0.01061378326267004,0.0339793786406517
1761131698903952100,3.7469521484375,0.0668133869767189,-0.02099849283695221,0.030314188450574875
1761131698913952000,3.756951904296875,0.06375905871391296,-0.031383201479911804,0.023594669997692108
1761131698923952000,3.7669521484375,0.057039543986320496,-0.03504839166998863,0.02054034359753132
1761131698933952000,3.776951904296875,0.04970915988087654,-0.03871358558535576,0.018707748502492905
1761131698943952100,3.7869521484375,0.045433104038238525,-0.03199406713247299,0.018096882849931717
1761131698953953000,3.796953125,0.04237877577543259,-0.01366810966283083,0.022372938692569733
1761131698963953000,3.806952880859375,0.039935316890478134,0.010766499675810337,0.03153591975569725
1761131698973953000,3.816953125,0.03627012297511101,0.0290924571454525,0.03703370690345764
1761131698983953000,3.826952880859375,0.031383201479911804,0.04069889709353447,0.038866300135850906
1761131698993953000,3.836953125,0.02710714563727379,0.04253149405121803,0.03764457255601883
1761131699003953000,3.846952880859375,0.028939740732312202,0.03703370690345764,0.02848159149289131
1761131699013953000,3.856953125,0.03627012297511101,0.02054034359753132,0.0022143865935504436
1761131699023953000,3.866952880859375,0.03627012297511101,0.007712173741310835,-0.01366810966283083
1761131699033953000,3.876953125,0.033826664090156555,-0.002672535367310047,-0.030772335827350616
1761131699043953000,3.886952880859375,0.03504839166998863,-0.0038942659739404917,-0.042989641427993774
1761131699053952000,3.896951904296875,0.03443752974271774,0.005268712528049946,-0.05520694702863693
1761131699063952100,3.9069521484375,0.031383201479911804,0.010155634954571724,-0.060704734176397324
1761131699073952000,3.916951904296875,0.0264962799847126,0.009544769302010536,-0.052152618765830994
1761131699083952000,3.9269521484375,0.022220224142074585,0.005879578180611134,-0.04360050708055496
1761131699093952000,3.936951904296875,0.015500705689191818,0.0009926559869199991,-0.03321579843759537
1761131699103952100,3.9469521484375,0.012446379289031029,-0.014278975315392017,-0.022220224142074585
1761131699113952000,3.956951904296875,0.006337726954370737,-0.02099849283695221,-0.016111571341753006
1761131699123952000,3.9669521484375,0.00022907447419129312,-0.01794416643679142,-0.010002918541431427
1761131699133952000,3.976951904296875,-0.0071013085544109344,-0.014278975315392017,-0.005726861767470837
1761131699143952100,3.9869521484375,-0.015042556449770927,-0.00939205288887024,-0.004505131393671036
1761131699153953000,3.996953125,-0.022372938692569733,-0.0069485921412706375,-0.0020616701804101467
1761131699163953000,4.006952880859375,-0.029703322798013687,-0.005115996580570936,0.0034361169673502445
1761131699173953000,4.016953125,-0.03764457255601883,-0.0032834007870405912,0.013209961354732513
1761131699183953000,4.026952880859375,-0.04375322163105011,-0.000839939690195024,0.021151209250092506
1761131699193953000,4.036953125,-0.047418415546417236,-0.002672535367310047,0.023594669997692108
1761131699203953000,4.046952880859375,-0.048029281198978424,-0.008170322515070438,0.024205535650253296
1761131699213953000,4.056953125,-0.04864014685153961,-0.008781188167631626,0.036422841250896454
1761131699223953000,4.066952880859375,-0.04864014685153961,-0.010002918541431427,0.051083605736494064
1761131699233953000,4.076953125,-0.04619668424129486,-0.008170322515070438,0.06330090761184692
1761131699243953000,4.086952880859375,-0.04130976274609566,-0.006337726954370737,0.0742964819073677
1761131699253952000,4.096951904296875,-0.047418415546417236,-0.006337726954370737,0.07124216109514236
1761131699263952100,4.1069521484375,-0.05535966157913208,-0.005115996580570936,0.06818783283233643
1761131699273952000,4.116951904296875,-0.06574437022209167,-0.006337726954370737,0.05841398984193802
1761131699283952000,4.1269521484375,-0.07551821321249008,-0.0069485921412706375,0.04680754989385605
1761131699293952000,4.136951904296875,-0.07918340712785721,-0.00022907447419129312,0.04375322163105011
1761131699303952100,4.1469521484375,-0.08407033234834671,0.011377365328371525,0.04864014685153961
1761131699313952000,4.156951904296875,-0.08040513843297958,0.025427265092730522,0.05719225853681564
1761131699323952000,4.1669521484375,-0.07551821321249008,0.03214678168296814,0.06207918003201485
1761131699333952000,4.176951904296875,-0.06757696717977524,0.030925052240490913,0.06085744872689247
1761131699343952100,4.1869521484375,-0.0645226389169693,0.0339793786406517,0.04986187443137169
1761131699353953000,4.196953125,-0.06391177326440811,0.04008803144097328,0.033368512988090515
1761131699363953000,4.206952880859375,-0.07063129544258118,0.03703370690345764,0.024816401302814484
1761131699373953000,4.216953125,-0.07735081017017365,0.027870727702975273,0.014431691728532314
1761131699383953000,4.226952880859375,-0.08773551881313324,0.015653422102332115,0.0016035212902352214
1761131699393953000,4.236953125,-0.08834638446569443,0.006490443367511034,-0.0069485921412706375
1761131699403953000,4.246952880859375,-0.08590292185544968,0.0071013085544109344,-0.00939205288887024
1761131699413953000,4.256953125,-0.08101600408554077,0.02298380434513092,-0.01061378326267004
1761131699423953000,4.266952880859375,-0.07735081017017365,0.04008803144097328,-0.02099849283695221
1761131699433953000,4.276953125,-0.07735081017017365,0.06085744872689247,-0.033826664090156555
1761131699443953000,4.286952880859375,-0.06879869848489761,0.0492510087788105,-0.03749185428023338
1761131699453952000,4.296951904296875,-0.06207918003201485,0.03764457255601883,-0.052152618765830994
1761131699463952100,4.3069521484375,-0.07551821321249008,0.035811975598335266,-0.06620252132415771
1761131699473952000,4.316951904296875,-0.0749073475599289,0.02603813074529171,-0.08330674469470978
1761131699483952000,4.3269521484375,-0.07368562370538712,0.010766499675810337,-0.10529789328575134
1761131699493952000,4.336951904296875,-0.07002042979001999,0.005268712528049946,-0.10835222154855728
1761131699503952100,4.3469521484375,-0.0645226389169693,0.004657847341150045,-0.1077413558959961
1761131699513952000,4.356951904296875,-0.0645226389169693,0.008933904580771923,-0.10285443812608719
1761131699523952000,4.3669521484375,-0.06513350456953049,0.013209961354732513,-0.09552405029535294
1761131699533952000,4.376951904296875,-0.06269004940986633,0.016264287754893303,-0.08513934165239334
1761131699543952100,4.3869521484375,-0.05780312418937683,0.02054034359753132,-0.07292203605175018
1761131699553953000,4.396953125,-0.05474879592657089,0.023594669997692108,-0.06620252132415771
1761131699563953000,4.406952880859375,-0.04986187443137169,0.02054034359753132,-0.06620252132415771
1761131699573953000,4.416953125,-0.04864014685153961,0.014431691728532314,-0.07047858089208603
1761131699583953000,4.426952880859375,-0.04619668424129486,0.00038179077091626823,-0.07780896127223969
1761131699593953000,4.436953125,-0.04375322163105011,-0.013057244941592216,-0.08269587904214859
1761131699603953000,4.446952880859375,-0.04314235970377922,-0.02038762718439102,-0.08086328953504562
1761131699613953000,4.456953125,-0.041920628398656845,-0.019776761531829834,-0.07475463300943375
1761131699623953000,4.466952880859375,-0.039477165788412094,-0.011835514567792416,-0.06559165567159653
1761131699633952800,4.476952880859375,-0.03825543448328972,-0.002672535367310047,-0.057650405913591385
1761131699643953000,4.486952880859375,-0.039477165788412094,0.0034361169673502445,-0.05520694702863693
1761131699653952000,4.496951904296875,-0.036422841250896454,0.0034361169673502445,-0.05520694702863693
1761131699663952100,4.5069521484375,-0.03214678168296814,-0.0038942659739404917,-0.05520694702863693
1761131699673952000,4.516951904296875,-0.02848159149289131,-0.010002918541431427,-0.054596081376075745
1761131699683952000,4.5269521484375,-0.029703322798013687,-0.005726861767470837,-0.05398521572351456
1761131699693952000,4.536951904296875,-0.02603813074529171,-0.002672535367310047,-0.05642867833375931
1761131699703952100,4.5469521484375,-0.023594669997692108,0.0016035212902352214,-0.06436992436647415
1761131699713952000,4.556951904296875,-0.015042556449770927,-0.00022907447419129312,-0.06436992436647415
1761131699723952000,4.5669521484375,-0.0034361169673502445,-0.011835514567792416,-0.05581781268119812
1761131699733952000,4.576951904296875,-0.011988230049610138,-0.01488984003663063,-0.045433104038238525
1761131699743952100,4.5869521484375,-0.008933904580771923,-0.011835514567792416,-0.03504839166998863
1761131699753953000,4.596953125,-0.005879578180611134,-0.01366810966283083,-0.03565925732254982
1761131699763953000,4.606952880859375,-0.008323038928210735,-0.017333300784230232,-0.04360050708055496
1761131699773953000,4.616953125,-0.010155634954571724,-0.018555032089352608,-0.04970915988087654
1761131699783953000,4.626952880859375,-0.008933904580771923,-0.019165897741913795,-0.051541756838560104
1761131699793953000,4.636953125,-0.008933904580771923,-0.021609358489513397,-0.051541756838560104
1761131699803953000,4.646952880859375,-0.008323038928210735,-0.0264962799847126,-0.051541756838560104
1761131699813953000,4.656953125,-0.0034361169673502445,-0.030772335827350616,-0.05032002553343773
1761131699823953000,4.666952880859375,0.000839939690195024,-0.033826664090156555,-0.04726569727063179
1761131699833953000,4.676953125,0.004505131393671036,-0.03749185428023338,-0.0466548316180706
1761131699843953000,4.686952880859375,0.004505131393671036,-0.039324451237916946,-0.04726569727063179
1761131699853952000,4.696951904296875,0.005115996580570936,-0.04360050708055496,-0.04726569727063179
1761131699863952100,4.7069521484375,0.007559457328170538,-0.0466548316180706,-0.04237877577543259
1761131699873952000,4.716951904296875,0.010002918541431427,-0.04482223838567734,-0.03565925732254982
1761131699883952000,4.7269521484375,0.00939205288887024,-0.04237877577543259,-0.031383201479911804
1761131699893952000,4.736951904296875,0.010002918541431427,-0.03749185428023338,-0.02955060638487339
1761131699903952100,4.7469521484375,0.006337726954370737,-0.031383201479911804,-0.025885414332151413
1761131699913952000,4.756951904296875,0.002672535367310047,-0.031383201479911804,-0.02710714563727379
1761131699923952000,4.7669521484375,0.002672535367310047,-0.03260493278503418,-0.028939740732312202
1761131699933952000,4.776951904296875,0.005726861767470837,-0.02955060638487339,-0.030161472037434578
1761131699943952100,4.7869521484375,0.01061378326267004,-0.01488984003663063,-0.016722436994314194
1761131699953953000,4.796953125,0.016111571341753006,-0.004505131393671036,-0.00022907447419129312
1761131699963953000,4.806952880859375,0.019776761531829834,-0.004505131393671036,0.006490443367511034
1761131699973953000,4.816953125,0.02038762718439102,-0.01061378326267004,0.008323038928210735
1761131699983953000,4.826952880859375,0.02344195358455181,-0.02344195358455181,-0.0038942659739404917
1761131699993953000,4.836953125,0.02038762718439102,-0.04054617881774902,-0.024663684889674187
1761131700003953000,4.846952880859375,0.01488984003663063,-0.04970915988087654,-0.0417679101228714
1761131700013953300,4.856953369140625,0.012446379289031029,-0.054596081376075745,-0.0466548316180706
1761131700023953400,4.866953369140625,0.01366810966283083,-0.054596081376075745,-0.039935316890478134
1761131700033953300,4.876953369140625,0.013057244941592216,-0.04360050708055496,-0.0264962799847126
1761131700043953200,4.886953125,0.014278975315392017,-0.025274548679590225,-0.013057244941592216
1761131700053952500,4.896952392578125,0.014278975315392017,-0.0038942659739404917,-0.0032834007870405912
1761131700063952400,4.906952392578125,0.010002918541431427,0.008323038928210735,0.00038179077091626823
1761131700073952500,4.916952392578125,-0.053527068346738815,-0.0264962799847126,-0.0014508049935102463
1761131700083952400,4.926952392578125,-0.056581392884254456,-0.039324451237916946,-0.0069485921412706375
1761131700093952500,4.936952392578125,0.028939740732312202,-0.013057244941592216,-0.017333300784230232
1761131700103952400,4.946952392578125,0.021609358489513397,-0.008170322515070438,-0.002672535367310047
1761131700113952500,4.956952392578125,-0.0034361169673502445,-0.01794416643679142,0.016264287754893303
1761131700123952400,4.966952392578125,0.01488984003663063,-0.02344195358455181,0.030925052240490913
1761131700133952500,4.976952392578125,0.02344195358455181,-0.01794416643679142,0.06269004940986633
1761131700143952400,4.986952392578125,0.01794416643679142,-0.0020616701804101467,0.10117455571889877
1761131700153953300,4.996953369140625,0.012446379289031029,0.011377365328371525,0.12866349518299103
1761131700163953200,5.006953125,0.005726861767470837,0.01687515154480934,0.14210252463817596
1761131700173953300,5.016953369140625,0.002672535367310047,0.02298380434513092,0.1549306958913803
1761131700183953400,5.026953369140625,0.002672535367310047,0.03459024429321289,0.15859588980674744
1761131700193953300,5.036953369140625,0.006337726954370737,0.05047274008393288,0.15676330029964447
1761131700203953400,5.046953369140625,0.016722436994314194,0.060246583074331284,0.1500437706708908
1761131700213953300,5.056953369140625,0.025885414332151413,0.0492510087788105,0.14332425594329834
1761131700223953400,5.066953369140625,0.03504839166998863,0.030925052240490913,0.15431983768939972
1761131700233953300,5.076953369140625,0.04115704447031021,0.011988230049610138,0.18180876970291138
1761131700243953400,5.086953369140625,0.04360050708055496,0.008323038928210735,0.20685423910617828
1761131700253952500,5.096952392578125,0.039935316890478134,0.01687515154480934,0.2166280895471573
1761131700263952400,5.106952392578125,0.03260493278503418,0.023594669997692108,0.21357376873493195
1761131700273952500,5.116952392578125,0.019776761531829834,0.024816401302814484,0.19952386617660522
1761131700283952400,5.126952392578125,0.007559457328170538,0.018096882849931717,0.17447838187217712
1761131700293952500,5.136952392578125,-0.004657847341150045,0.0071013085544109344,0.13843733072280884
1761131700303952400,5.146952392578125,-0.012599095702171326,-0.006337726954370737,0.10545061528682709
1761131700313952300,5.1569521484375,-0.01687515154480934,-0.019165897741913795,0.08407033234834671
1761131700323952000,5.1669521484375,-0.019318614155054092,-0.022831087931990623,0.06818783283233643
1761131700333952300,5.1769521484375,-0.022372938692569733,-0.019776761531829834,0.04619668424129486
1761131700343952100,5.1869521484375,-0.023594669997692108,-0.010002918541431427,0.002825251780450344
1761131700353953000,5.196953125,-0.02603813074529171,0.005879578180611134,-0.06131559982895851
1761131700363953000,5.206952880859375,-0.02848159149289131,0.025427265092730522,-0.12912164628505707
1761131700373953000,5.216953125,-0.024816401302814484,0.036422841250896454,-0.17432567477226257
1761131700383953200,5.226953125,-0.01687515154480934,0.030925052240490913,-0.18715384602546692
1761131700393953000,5.236953125,-0.008933904580771923,0.015042556449770927,-0.18165604770183563
1761131700403953000,5.246952880859375,0.000839939690195024,-0.005115996580570936,-0.1731039434671402
1761131700413953000,5.256953125,0.008781188167631626,-0.008170322515070438,-0.1724930703639984
1761131700423953000,5.266952880859375,0.02038762718439102,-0.01366810966283083,-0.17676913738250732
1761131700433953000,5.276953125,0.008781188167631626,-0.013057244941592216,-0.1877647042274475
1761131700443953000,5.286952880859375,0.002672535367310047,-0.017333300784230232,-0.20120373368263245
1761131700453952300,5.2969521484375,0.005115996580570936,-0.015500705689191818,-0.20486892759799957
1761131700463952100,5.3069521484375,0.01366810966283083,-0.01794416643679142,-0.18471038341522217
1761131700473952300,5.3169521484375,0.025885414332151413,-0.028328875079751015,-0.1480584591627121
1761131700483952000,5.3269521484375,0.03627012297511101,-0.02955060638487339,-0.10590875893831253
1761131700493952300,5.3369521484375,0.04054617881774902,-0.033826664090156555,-0.0619264654815197
1761131700503952100,5.3469521484375,0.039935316890478134,-0.04237877577543259,-0.012446379289031029
1761131700513952300,5.3569521484375,0.04237877577543259,-0.05093089118599892,0.033368512988090515
1761131700523952000,5.3669521484375,0.04787656292319298,-0.052152618765830994,0.08223773539066315
1761131700533952300,5.3769521484375,0.04970915988087654,-0.04237877577543259,0.1353830099105835
1761131700543952100,5.3869521484375,0.05398521572351456,-0.027718011289834976,0.1860848218202591
1761131700553953000,5.396953125,0.05520694702863693,-0.004505131393671036,0.22518019378185272
1761131700563953000,5.406952880859375,0.05581781268119812,0.008933904580771923,0.24472789466381073
1761131700573953000,5.416953125,0.057039543986320496,0.021762074902653694,0.2355649173259735
1761131700583953200,5.426953125,0.051541756838560104,0.039477165788412094,0.20685423910617828
1761131700593953000,5.436953125,0.04237877577543259,0.0443640872836113,0.1659262776374817
1761131700603953200,5.446953125,0.033826664090156555,0.03764457255601883,0.1256091594696045
1761131700613953000,5.456953125,0.02710714563727379,0.021151209250092506,0.08834638446569443
1761131700623953200,5.466953125,0.022220224142074585,0.005879578180611134,0.06391177326440811
1761131700633953000,5.476953125,0.022831087931990623,-0.004505131393671036,0.05230533704161644
1761131700643953200,5.486953125,0.022220224142074585,-0.0069485921412706375,0.0339793786406517
1761131700653952300,5.4969521484375,0.022831087931990623,-0.005115996580570936,0.02603813074529171
1761131700663952100,5.5069521484375,0.024663684889674187,-0.01061378326267004,0.024205535650253296
1761131700673952300,5.5169521484375,0.025274548679590225,-0.011835514567792416,0.024205535650253296
1761131700683952000,5.5269521484375,0.024052819237113,-0.007559457328170538,0.02054034359753132
1761131700693952300,5.5369521484375,0.019165897741913795,-0.004505131393671036,0.010155634954571724
1761131700703952100,5.5469521484375,0.010002918541431427,-0.0032834007870405912,-0.005115996580570936
1761131700713952300,5.5569521484375,0.006337726954370737,0.0022143865935504436,-0.02099849283695221
1761131700723952000,5.5669521484375,0.008170322515070438,-0.005726861767470837,-0.03749185428023338
1761131700733952300,5.5769521484375,0.00939205288887024,-0.005115996580570936,-0.05276348441839218
1761131700743952400,5.586952392578125,0.0069485921412706375,-0.008170322515070438,-0.05948300287127495
1761131700753953000,5.596953125,0.0069485921412706375,-0.00939205288887024,-0.06498079001903534
1761131700763953200,5.606953125,0.008781188167631626,-0.016722436994314194,-0.07353290170431137
1761131700773953000,5.616953125,0.011224648915231228,-0.0264962799847126,-0.07536549866199493
1761131700783953200,5.626953125,0.01061378326267004,-0.03199406713247299,-0.0668133869767189
1761131700793953000,5.636953125,0.014278975315392017,-0.0417679101228714,-0.04909829422831535
1761131700803953200,5.646953125,0.030772335827350616,-0.072311170399189,-0.01366810966283083
1761131700813953000,5.656953125,-0.008323038928210735,-0.09308059513568878,0.002825251780450344
1761131700823953200,5.666953125,-0.018707748502492905,-0.1382846236228943,-0.00939205288887024
1761131700833953000,5.676953125,-0.02054034359753132,-0.17982345819473267,-0.019776761531829834
1761131700843953200,5.686953125,-0.038866300135850906,-0.1578323096036911,-0.01061378326267004
1761131700853952300,5.6969521484375,0.1376737505197525,-0.1382846236228943,-0.04237877577543259
1761131700863952100,5.7069521484375,0.264122873544693,-0.132786825299263,-0.07292203605175018
1761131700873952300,5.7169521484375,0.30199649930000305,-0.2855031490325928,-0.07475463300943375
1761131700883952000,5.7269521484375,0.19692768156528473,-0.3343723714351654,-0.05642867833375931
1761131700893952300,5.7369521484375,0.21525363624095917,-0.3307071626186371,-0.06559165567159653
1761131700903952100,5.7469521484375,0.354530930519104,-0.2280818074941635,-0.054596081376075745
1761131700913952300,5.7569521484375,0.43272167444229126,-0.12973250448703766,-0.05276348441839218
1761131700923952000,5.7669521484375,0.38263070583343506,-0.22136229276657104,-0.07536549866199493
1761131700933952300,5.7769521484375,0.20609065890312195,-0.30138564109802246,-0.08452847599983215
1761131700943952100,5.7869521484375,0.01061378326267004,-0.27084237337112427,-0.08819366991519928
1761131700953953000,5.796953125,-0.0742964819073677,-0.18165604770183563,-0.11873693019151688
1761131700963953200,5.806953125,-0.05719225853681564,-0.0918588638305664,-0.13461942970752716
1761131700973953000,5.816953125,-0.025427265092730522,-0.005115996580570936,-0.08269587904214859
1761131700983953200,5.826953125,-0.024816401302814484,0.06269004940986633,-0.010002918541431427
1761131700993953000,5.836953125,-0.03520110994577408,0.07002042979001999,0.04253149405121803
1761131701003953200,5.846953125,-0.04069889709353447,0.0492510087788105,0.05780312418937683
1761131701013953000,5.856953125,-0.0443640872836113,0.033368512988090515,0.04986187443137169
1761131701023953200,5.866953125,-0.041920628398656845,0.014431691728532314,0.030314188450574875
1761131701033953000,5.876953125,-0.03520110994577408,0.010155634954571724,0.010766499675810337
1761131701043953000,5.886952880859375,-0.019318614155054092,0.012599095702171326,-0.011224648915231228
1761131701053952300,5.8969521484375,0.000839939690195024,0.005268712528049946,-0.02344195358455181
1761131701063952100,5.9069521484375,0.019165897741913795,-0.01061378326267004,-0.02038762718439102
1761131701073952300,5.9169521484375,0.039935316890478134,-0.01794416643679142,-0.01488984003663063
1761131701083952000,5.9269521484375,0.048487428575754166,-0.0038942659739404917,-0.01794416643679142
1761131701093952300,5.9369521484375,0.04482223838567734,0.0071013085544109344,-0.02710714563727379
1761131701103952100,5.9469521484375,0.03199406713247299,-0.0014508049935102463,-0.030161472037434578
1761131701113952300,5.9569521484375,0.016722436994314194,-0.0014508049935102463,-0.042989641427993774
1761131701123952000,5.9669521484375,0.01366810966283083,0.013209961354732513,-0.04604396969079971
1761131701133952300,5.9769521484375,0.010002918541431427,0.08529205620288849,0.04008803144097328
1761131701143952100,5.9869521484375,0.004505131393671036,0.09201157838106155,0.014431691728532314
1761131701153953000,5.996953125,-0.0022143865935504436,0.08590292185544968,-0.048487428575754166
1761131701163953000,6.006952880859375,-0.007712173741310835,0.04619668424129486,-0.09613491594791412
1761131701173953000,6.016953125,-0.02054034359753132,0.013209961354732513,-0.10285443812608719
1761131701183953200,6.026953125,-0.018096882849931717,-0.024052819237113,-0.0869719386100769
1761131701193953000,6.036953125,-0.011988230049610138,0.0009926559869199991,-0.08452847599983215
1761131701203953200,6.046953125,-0.02054034359753132,0.029703322798013687,-0.10529789328575134
1761131701213953000,6.056953125,-0.010155634954571724,-0.010002918541431427,-0.10590875893831253
1761131701223953000,6.066952880859375,-0.0009926559869199991,-0.005726861767470837,-0.10529789328575134
1761131701233953000,6.076953125,0.05398521572351456,0.05597052723169327,-0.0973566472530365
1761131701243953000,6.086952880859375,0.07964155822992325,0.033368512988090515,-0.08086328953504562
1761131701253952300,6.0969521484375,0.08269587904214859,0.010155634954571724,-0.0668133869767189
1761131701263952100,6.1069521484375,0.06864598393440247,0.008933904580771923,-0.05093089118599892
1761131701273952000,6.116951904296875,0.051541756838560104,0.002825251780450344,-0.028939740732312202
1761131701283952000,6.1269521484375,0.04787656292319298,-0.0014508049935102463,-0.008781188167631626
1761131701293952000,6.136951904296875,0.0668133869767189,0.0034361169673502445,-0.00022907447419129312
1761131701303952100,6.1469521484375,0.07536549866199493,-0.00939205288887024,-0.0020616701804101467
1761131701313952000,6.156951904296875,0.05948300287127495,-0.017333300784230232,-0.018555032089352608
1761131701323952000,6.1669521484375,0.028328875079751015,-0.03504839166998863,-0.03321579843759537
1761131701333952000,6.176951904296875,-0.024816401302814484,-0.07170030474662781,-0.04421137273311615
1761131701343952100,6.1869521484375,-0.060246583074331284,-0.07597636431455612,-0.042989641427993774
1761131701353953000,6.196953125,-0.07246389240026474,-0.05887213721871376,-0.0264962799847126
1761131701363953000,6.206952880859375,-0.05841398984193802,-0.05032002553343773,-0.005726861767470837
1761131701373953000,6.216953125,-0.026648996397852898,-0.04482223838567734,0.01748601719737053
1761131701383953000,6.226952880859375,-0.002825251780450344,-0.016111571341753006,0.03825543448328972
1761131701393953000,6.236953125,0.0038942659739404917,-0.002672535367310047,0.039477165788412094
1761131701403953000,6.246952880859375,0.006337726954370737,-0.015500705689191818,0.013209961354732513
1761131701413953000,6.256953125,0.01061378326267004,-0.021609358489513397,-0.005115996580570936
1761131701423953000,6.266952880859375,0.033826664090156555,-0.031383201479911804,-0.002672535367310047
1761131701443953000,6.286952880859375,0.06375905871391296,-0.07841982692480087,0.035811975598335266
1761131701453952000,6.296951904296875,0.08452847599983215,-0.10651962459087372,0.06757696717977524
1761131701463952100,6.3069521484375,0.11690433323383331,-0.14378240704536438,0.08773551881313324
1761131701473952000,6.316951904296875,0.1676061451435089,-0.16455182433128357,0.08651378750801086
1761131701483952000,6.3269521484375,0.17432567477226257,-0.1529453843832016,0.09506590664386749
1761131701493952000,6.336951904296875,0.1578323096036911,-0.11690433323383331,0.11644618958234787
1761131701503952100,6.3469521484375,0.12179125845432281,-0.07292203605175018,0.14943291246891022
1761131701513952000,6.356951904296875,0.08147415518760681,-0.10041097551584244,0.22884538769721985
1761131701523952000,6.3669521484375,0.02038762718439102,-0.10651962459087372,0.2709950804710388
1761131701533952000,6.376951904296875,-0.0009926559869199991,-0.11629346758127213,0.25511258840560913
1761131701543952100,6.3869521484375,0.021609358489513397,-0.08880453556776047,0.18486309051513672
1761131701553953000,6.396953125,0.05398521572351456,-0.06498079001903534,0.1048397496342659
1761131701563953000,6.406952880859375,0.07597636431455612,-0.04054617881774902,0.030314188450574875
1761131701573953000,6.416953125,0.060093868523836136,-0.03627012297511101,0.011377365328371525
1761131701583953000,6.426952880859375,0.0417679101228714,-0.028939740732312202,0.008323038928210735
1761131701593953000,6.436953125,0.02955060638487339,-0.01366810966283083,0.005879578180611134
1761131701603953000,6.446952880859375,0.028328875079751015,0.0022143865935504436,0.002825251780450344
1761131701613953000,6.456953125,0.031383201479911804,0.011377365328371525,0.0016035212902352214
1761131701623953000,6.466952880859375,0.036880988627672195,0.008933904580771923,0.006490443367511034
1761131701633953000,6.476953125,0.039324451237916946,0.0016035212902352214,0.0071013085544109344
1761131701643953000,6.486952880859375,0.03810271993279457,0.0009926559869199991,0.006490443367511034
1761131701653952300,6.4969521484375,0.03199406713247299,0.014431691728532314,0.007712173741310835
1761131701663952100,6.5069521484375,0.02099849283695221,0.029703322798013687,0.015653422102332115
1761131701673952300,6.5169521484375,0.01061378326267004,0.04375322163105011,0.0290924571454525
1761131701683952000,6.5269521484375,-0.00038179077091626823,0.05230533704161644,0.039477165788412094
1761131701693952300,6.5369521484375,-0.008323038928210735,0.05535966157913208,0.04314235970377922
1761131701703952100,6.5469521484375,-0.015042556449770927,0.05841398984193802,0.03703370690345764
1761131701713952300,6.5569521484375,-0.016264287754893303,0.06330090761184692,0.02298380434513092
1761131701723952000,6.5669521484375,-0.013209961354732513,0.06330090761184692,0.008323038928210735
1761131701733952300,6.5769521484375,-0.011377365328371525,0.060246583074331284,0.0009926559869199991
1761131701743952100,6.5869521484375,-0.006490443367511034,0.05780312418937683,-0.0020616701804101467
1761131701753953000,6.596953125,-0.008323038928210735,0.05719225853681564,-0.0069485921412706375
1761131701763953000,6.606952880859375,-0.015653422102332115,0.059635721147060394,-0.015500705689191818
1761131701773953000,6.616953125,-0.02298380434513092,0.05902485549449921,-0.021609358489513397
1761131701783953000,6.626952880859375,-0.026648996397852898,0.06330090761184692,-0.02955060638487339
1761131701793953000,6.636953125,-0.03214678168296814,0.05902485549449921,-0.04360050708055496
1761131701803953000,6.646952880859375,-0.029703322798013687,0.07063129544258118,-0.08086328953504562
1761131701813953000,6.656953125,-0.012599095702171326,0.030925052240490913,-0.07536549866199493
1761131701823953000,6.666952880859375,-0.0009926559869199991,-0.0014508049935102463,-0.02710714563727379
1761131701833953000,6.676953125,-0.005268712528049946,-0.008781188167631626,-0.02955060638487339
1761131701843953000,6.686952880859375,0.002672535367310047,0.030925052240490913,-0.07841982692480087
1761131701853952300,6.6969521484375,0.010002918541431427,0.10300715267658234,-0.14500413835048676
1761131701863952100,6.7069521484375,0.01366810966283083,0.13232868909835815,-0.17615826427936554
1761131701873952000,6.716951904296875,0.005115996580570936,0.1298852264881134,-0.16149750351905823
1761131701883952000,6.7269521484375,-0.0034361169673502445,0.10911580175161362,-0.1419498175382614
1761131701893952000,6.736951904296875,-0.0034361169673502445,0.09262244403362274,-0.13523028790950775
1761131701903952100,6.7469521484375,0.0038942659739404917,0.07368562370538712,-0.13461942970752716
1761131701913952000,6.756951904296875,0.0032834007870405912,0.047418415546417236,-0.13156510889530182
1761131701923952000,6.7669521484375,-0.002825251780450344,0.03275764733552933,-0.11934779584407806
1761131701933952000,6.776951904296875,-0.008323038928210735,0.029703322798013687,-0.102243572473526
1761131701943952100,6.7869521484375,-0.02054034359753132,0.0339793786406517,-0.08025242388248444
1761131701953953000,6.796953125,-0.030925052240490913,0.04680754989385605,-0.05398521572351456
1761131701963953000,6.806952880859375,-0.03459024429321289,0.06207918003201485,-0.025274548679590225
1761131701973953000,6.816953125,-0.0339793786406517,0.0749073475599289,0.004046982154250145
1761131701983953000,6.826952880859375,-0.024205535650253296,0.07918340712785721,0.030925052240490913
1761131701993953000,6.836953125,-0.013209961354732513,0.07673994451761246,0.0443640872836113
1761131702003953000,6.846952880859375,-0.005879578180611134,0.07246389240026474,0.04864014685153961
1761131702013953000,6.856953125,0.004505131393671036,0.06574437022209167,0.047418415546417236
1761131702023953000,6.866952880859375,0.014278975315392017,0.05841398984193802,0.044974952936172485
1761131702033953000,6.876953125,0.02710714563727379,0.04253149405121803,0.03214678168296814
1761131702043953000,6.886952880859375,0.031383201479911804,0.029703322798013687,0.02848159149289131
1761131702053952000,6.896951904296875,0.03199406713247299,0.016264287754893303,0.030314188450574875
1761131702063952100,6.9069521484375,0.03810271993279457,0.010155634954571724,0.027870727702975273
1761131702073952000,6.916951904296875,0.04421137273311615,0.015653422102332115,0.029703322798013687
1761131702083952000,6.9269521484375,0.04909829422831535,0.027259862050414085,0.04130976274609566
1761131702093952000,6.936951904296875,0.05520694702863693,0.04008803144097328,0.05474879592657089
1761131702103952100,6.9469521484375,0.06314819306135178,0.04558581858873367,0.06574437022209167
1761131702113952000,6.956951904296875,0.0771980956196785,0.041920628398656845,0.06635523587465286
1761131702123952000,6.9669521484375,0.1077413558959961,0.036422841250896454,0.05597052723169327
1761131702133952000,6.976951904296875,0.10590875893831253,0.033368512988090515,0.059635721147060394
1761131702143952100,6.9869521484375,0.0918588638305664,0.02298380434513092,0.059635721147060394
1761131702153953000,6.996953125,0.08636107295751572,0.013209961354732513,0.04008803144097328
1761131702163953000,7.006952880859375,0.08025242388248444,0.010766499675810337,0.006490443367511034
1761131702173953000,7.016953125,0.08086328953504562,0.022372938692569733,-0.0069485921412706375
1761131702183953000,7.026952880859375,0.06742425262928009,0.013209961354732513,-0.01488984003663063
1761131702193953000,7.036953125,0.05581781268119812,0.01687515154480934,-0.030772335827350616
1761131702203953000,7.046952880859375,0.05948300287127495,0.015042556449770927,-0.04115704447031021
1761131702213953000,7.056953125,0.054596081376075745,0.013209961354732513,-0.04237877577543259
1761131702223953000,7.066952880859375,0.04970915988087654,0.021151209250092506,-0.030772335827350616
1761131702233953000,7.076953125,0.0417679101228714,0.010155634954571724,-0.025885414332151413
1761131702243953000,7.086952880859375,0.03321579843759537,0.010766499675810337,-0.02955060638487339
1761131702253918700,7.096918701171875,0.030772335827350616,0.015653422102332115,-0.028939740732312202
1761131702263885300,7.10688525390625,0.025885414332151413,0.018707748502492905,-0.028939740732312202
1761131702273852200,7.11685205078125,0.02344195358455181,0.01992947794497013,-0.03199406713247299
1761131702283818800,7.12681884765625,0.02038762718439102,0.023594669997692108,-0.04054617881774902
1761131702303752000,7.146751953125,0.019776761531829834,0.022372938692569733,-0.0466548316180706
1761131702313718800,7.15671875,0.01794416643679142,0.021762074902653694,-0.04909829422831535
1761131702323685400,7.166685302734375,0.01794416643679142,0.021762074902653694,-0.045433104038238525
1761131702333652000,7.17665185546875,0.018555032089352608,0.01748601719737053,-0.03565925732254982
1761131702343618800,7.186618896484375,0.01794416643679142,0.01687515154480934,-0.024052819237113
1761131702353586200,7.196586181640625,0.016722436994314194,0.021762074902653694,-0.019165897741913795
1761131702363553000,7.206552978515625,0.010002918541431427,0.01992947794497013,-0.019776761531829834
1761131702373519600,7.21651953125,0.00939205288887024,0.01687515154480934,-0.01794416643679142
1761131702383486200,7.226486328125,0.010002918541431427,0.0016035212902352214,-0.022220224142074585
1761131702393453000,7.236453125,0.016722436994314194,-0.010002918541431427,-0.019776761531829834
1761131702403419600,7.246419677734375,0.02344195358455181,-0.016722436994314194,-0.01061378326267004
1761131702413386500,7.256386474609375,0.028328875079751015,-0.016111571341753006,0.0009926559869199991
1761131702423353000,7.26635302734375,0.024663684889674187,-0.011835514567792416,0.009544769302010536
1761131702433320000,7.27631982421875,0.018555032089352608,-0.0020616701804101467,0.018707748502492905
1761131702443286500,7.28628662109375,0.017333300784230232,0.010155634954571724,0.030314188450574875
1761131702453252400,7.29625244140625,0.022220224142074585,0.02298380434513092,0.0290924571454525
1761131702463219000,7.306218994140625,0.025274548679590225,0.023594669997692108,0.030925052240490913
1761131702473185500,7.316185546875,0.028328875079751015,0.019318614155054092,0.03153591975569725
1761131702483152400,7.32615234375,0.03199406713247299,0.004657847341150045,0.03459024429321289
1761131702493119000,7.336118896484375,0.03443752974271774,-0.00939205288887024,0.02603813074529171
1761131702503085600,7.34608544921875,0.03443752974271774,-0.01061378326267004,0.015653422102332115
1761131702513052200,7.35605224609375,0.03443752974271774,-0.005115996580570936,0.007712173741310835
1761131702523019000,7.36601904296875,0.030772335827350616,-0.005726861767470837,-0.006337726954370737
1761131702532985600,7.375985595703125,0.0264962799847126,-0.007559457328170538,-0.015500705689191818
1761131702542952200,7.3859521484375,0.025274548679590225,-0.002672535367310047,-0.01366810966283083
1761131702552953000,7.395953125,0.017333300784230232,0.006490443367511034,-0.00022907447419129312
1761131702562953200,7.405953125,0.006337726954370737,0.01687515154480934,0.011377365328371525
1761131702572953000,7.415953125,-0.005879578180611134,0.033368512988090515,0.01992947794497013
1761131702582953200,7.425953125,-0.010766499675810337,0.047418415546417236,0.027259862050414085
1761131702592953000,7.435953125,-0.008933904580771923,0.05230533704161644,0.02848159149289131
1761131702602953200,7.445953125,-0.010766499675810337,0.05597052723169327,0.026648996397852898
1761131702612953000,7.455953125,-0.013820826075971127,0.0694095641374588,0.024205535650253296
1761131702622953200,7.465953125,-0.013209961354732513,0.07551821321249008,0.024205535650253296
1761131702632953000,7.475953125,-0.013820826075971127,0.07796167582273483,0.030314188450574875
1761131702642953200,7.485953125,-0.01687515154480934,0.0742964819073677,0.03459024429321289
1761131702652952300,7.495952392578125,-0.01748601719737053,0.0694095641374588,0.036422841250896454
1761131702662952200,7.5059521484375,-0.021762074902653694,0.056581392884254456,0.0339793786406517
1761131702672952300,7.515952392578125,-0.021762074902653694,0.04680754989385605,0.0339793786406517
1761131702682952200,7.5259521484375,-0.019318614155054092,0.041920628398656845,0.03459024429321289
1761131702692952300,7.535952392578125,-0.01748601719737053,0.041920628398656845,0.03459024429321289
1761131702702952200,7.5459521484375,-0.013820826075971127,0.038866300135850906,0.030925052240490913
1761131702712952000,7.5559521484375,-0.010766499675810337,0.04558581858873367,0.03214678168296814
1761131702722952200,7.5659521484375,-0.0071013085544109344,0.0443640872836113,0.03703370690345764
1761131702732952000,7.5759521484375,-0.0034361169673502445,0.047418415546417236,0.03764457255601883
1761131702742952200,7.5859521484375,-0.005879578180611134,0.05047274008393288,0.03520110994577408
1761131702752953000,7.595953125,-0.009544769302010536,0.04314235970377922,0.024816401302814484
1761131702762953000,7.605952880859375,-0.018096882849931717,0.03459024429321289,0.012599095702171326
1761131702772953000,7.615953125,-0.0290924571454525,0.02848159149289131,-0.005115996580570936
1761131702782953000,7.625952880859375,-0.036422841250896454,0.021151209250092506,-0.005726861767470837
1761131702792953000,7.635953125,-0.0443640872836113,0.01992947794497013,0.005879578180611134
1761131702802953000,7.645952880859375,-0.051083605736494064,0.022372938692569733,0.025427265092730522
1761131702812953000,7.655953125,-0.05719225853681564,0.02848159149289131,0.0443640872836113
1761131702822953000,7.665952880859375,-0.06330090761184692,0.03214678168296814,0.05841398984193802
1761131702832953000,7.675953125,-0.07368562370538712,0.03153591975569725,0.06391177326440811
1761131702842953000,7.685952880859375,-0.0846811980009079,0.035811975598335266,0.06207918003201485
1761131702852952000,7.6959521484375,-0.0944550409913063,0.03703370690345764,0.05719225853681564
1761131702862952200,7.7059521484375,-0.0999528244137764,0.0443640872836113,0.04864014685153961
1761131702872952000,7.7159521484375,-0.10361801832914352,0.03459024429321289,0.03764457255601883
1761131702882952200,7.7259521484375,-0.09934195876121521,0.021762074902653694,0.035811975598335266
1761131702892952000,7.7359521484375,-0.09201157838106155,-0.002672535367310047,0.0443640872836113
1761131702902952200,7.7459521484375,-0.09140071272850037,-0.024663684889674187,0.048029281198978424
1761131702912952000,7.7559521484375,-0.08773551881313324,-0.03627012297511101,0.047418415546417236
1761131702922952200,7.7659521484375,-0.07796167582273483,-0.051541756838560104,0.041920628398656845
1761131702932952000,7.7759521484375,-0.07246389240026474,-0.042989641427993774,0.04375322163105011
1761131702942952200,7.7859521484375,-0.07002042979001999,-0.03443752974271774,0.041920628398656845
1761131702952953000,7.795953125,-0.06513350456953049,-0.024052819237113,0.0443640872836113
1761131702962953000,7.805952880859375,-0.05780312418937683,-0.017333300784230232,0.0492510087788105
1761131702972953000,7.815953125,-0.04130976274609566,-0.01061378326267004,0.05291620269417763
1761131702982953000,7.825952880859375,-0.022372938692569733,-0.0032834007870405912,0.0541379339993
1761131702992953000,7.835953125,-0.005268712528049946,0.007712173741310835,0.05230533704161644
1761131703002953000,7.845952880859375,0.00939205288887024,0.024816401302814484,0.0541379339993
1761131703012953000,7.855953125,0.006337726954370737,0.044974952936172485,0.0443640872836113
1761131703022953000,7.865952880859375,-0.008323038928210735,0.05841398984193802,0.02848159149289131
1761131703032953000,7.875953125,-0.022372938692569733,0.06269004940986633,0.018707748502492905
1761131703042953000,7.885952880859375,-0.03520110994577408,0.06391177326440811,0.01748601719737053
1761131703052952000,7.8959521484375,-0.04008803144097328,0.06635523587465286,0.022372938692569733
1761131703062952200,7.9059521484375,-0.05169447138905525,0.1146135926246643,0.11278099566698074
1761131703082952200,7.9259521484375,0.01366810966283083,0.0022143865935504436,0.011377365328371525
1761131703092952000,7.9359521484375,0.027718011289834976,-0.05642867833375931,-0.008170322515070438
1761131703102952200,7.9459521484375,0.01366810966283083,-0.08636107295751572,-0.01794416643679142
1761131703112952000,7.9559521484375,-0.015653422102332115,-0.09002626687288284,-0.0466548316180706
1761131703122952000,7.965951904296875,-0.035811975598335266,-0.08758280426263809,-0.06925684958696365
1761131703132952000,7.9759521484375,-0.059635721147060394,-0.09857837855815887,-0.072311170399189
1761131703142952000,7.985951904296875,-0.07307475805282593,-0.11995866149663925,-0.05887213721871376
1761131703152952800,7.995952880859375,-0.05597052723169327,-0.11873693019151688,-0.028328875079751015
