time,seconds_elapsed,z,y,x
1761131531102541300,0.115541259765625,0.15905404090881348,0.05474879592657089,0.5318345427513123
1761131531132549400,0.14554931640625,0.15905404090881348,0.05474879592657089,0.5318345427513123
1761131531142549200,0.15554931640625,0.15905404090881348,0.05474879592657089,0.5318345427513123
1761131531152549400,0.16554931640625,0.5072472095489502,-0.47426050901412964,0.5006804466247559
1761131531162549200,0.17554931640625,0.5048037767410278,-0.49808424711227417,0.5238932967185974
1761131531172549400,0.18554931640625,0.5084689855575562,-0.5005277395248413,0.5544365644454956
1761131531182549500,0.195549560546875,0.5231297016143799,-0.5029711723327637,0.5745950937271118
1761131531192549400,0.20554931640625,0.554894745349884,-0.5396230816841125,0.5709299445152283
1761131531202549500,0.215549560546875,0.619646430015564,-0.5762749910354614,0.5348888635635376
1761131531212549400,0.22554931640625,0.7173848748207092,-0.5365687608718872,0.48174360394477844
1761131531222549500,0.235549560546875,0.8377253413200378,-0.4455498456954956,0.4139375686645508
1761131531232549400,0.24554931640625,0.9586766362190247,-0.40278926491737366,0.3223077654838562
1761131531242549500,0.255549560546875,1.0771845579147339,-0.40217840671539307,0.22823452949523926
1761131531252549400,0.26554931640625,1.2048553228378296,-0.40706533193588257,0.15309810638427734
1761131531262547700,0.275547607421875,1.3557389974594116,-0.40828704833984375,0.11644618958234787
1761131531272547800,0.2855478515625,1.5127314329147339,-0.4260021448135376,0.11827878654003143
1761131531282547700,0.295547607421875,1.6520086526870728,-0.5322927236557007,0.15309810638427734
1761131531292547800,0.3055478515625,1.7552449703216553,-0.6556875109672546,0.2355649173259735
1761131531302547700,0.315547607421875,1.835268259048462,-0.62880939245224,0.38644862174987793
1761131531312547800,0.3255478515625,1.8847483396530151,-0.3997349441051483,0.596586287021637
1761131531322547700,0.335547607421875,1.913459062576294,-0.057039543986320496,0.8421540856361389
1761131531332547800,0.3455478515625,1.9427804946899414,0.46708282828330994,1.2178362607955933
1761131531342547700,0.355547607421875,1.9721020460128784,0.748691737651825,1.4212543964385986
1761131531352547800,0.3655478515625,2.016695261001587,0.9527207016944885,1.549536108970642
1761131531362548000,0.3755478515625,2.0796144008636475,1.0693960189819336,1.5904639959335327
1761131531372547800,0.3855478515625,2.1516964435577393,1.0773372650146484,1.5342644453048706
1761131531382548000,0.3955478515625,2.235384941101074,0.9918161034584045,1.3919328451156616
1761131531392547800,0.4055478515625,2.3276257514953613,0.8629235029220581,1.1921799182891846
1761131531402548000,0.4155478515625,2.4094815254211426,0.7169266939163208,0.9698249101638794
1761131531412547800,0.4255478515625,2.458350896835327,0.5397757887840271,0.7535786628723145
1761131531422548000,0.4355478515625,2.46079421043396,0.35957056283950806,0.5697082281112671
1761131531432547800,0.4455478515625,2.408259868621826,0.23434318602085114,0.4285983145236969
1761131531442548000,0.4555478515625,2.3062453269958496,0.2013564556837082,0.32902729511260986
1761131531452547800,0.4655478515625,2.1859049797058105,0.2960405647754669,0.2624429762363434
1761131531462547000,0.475546875,2.075949192047119,0.4854087829589844,0.22456933557987213
1761131531472547000,0.485547119140625,2.005699634552002,0.7242571115493774,0.2154063582420349
1761131531482547000,0.495546875,1.9867628812789917,1.0003682374954224,0.24289529025554657
1761131531492547000,0.505547119140625,2.008143186569214,1.2734249830245972,0.3009274899959564
1761131531502547000,0.515546875,2.055790662765503,1.4750105142593384,0.37545305490493774
1761131531512547000,0.525547119140625,2.1272618770599365,1.6362788677215576,0.4689154326915741
1761131531522547000,0.535546875,2.1999547481536865,1.7389042377471924,0.5635995268821716
1761131531532547000,0.545547119140625,2.268371820449829,1.776777982711792,0.6478989720344543
1761131531542547000,0.555546875,2.327014684677124,1.7566193342208862,0.7040985822677612
1761131531552547000,0.565547119140625,2.3874905109405518,1.6955327987670898,0.7364743947982788
1761131531562547700,0.575547607421875,2.458350896835327,1.622228980064392,0.7505242824554443
1761131531572547800,0.5855478515625,2.5713608264923096,1.5287666320800781,0.7529677748680115
1761131531582547700,0.595547607421875,2.6348907947540283,1.479286551475525,0.7450265288352966
1761131531592547800,0.6055478515625,2.684370994567871,1.4346933364868164,0.7340309619903564
1761131531602548000,0.6155478515625,2.723466396331787,1.407204508781433,0.7212027907371521
1761131531612547800,0.6255478515625,2.754009485244751,1.4279738664627075,0.7065420150756836
1761131531622548500,0.635548583984375,2.776000738143921,1.4872277975082397,0.6955464482307434
1761131531632548600,0.645548583984375,2.7973809242248535,1.5654186010360718,0.6821073889732361
1761131531642548500,0.655548583984375,2.8187613487243652,1.680261254310608,0.6686683893203735
1761131531652548400,0.66554833984375,2.8383090496063232,1.8305341005325317,0.6454554796218872
1761131531662547700,0.675547607421875,2.8499155044555664,1.9875264167785645,0.6045275330543518
1761131531672547600,0.685547607421875,2.851137161254883,2.153681755065918,0.5440518856048584
1761131531682547700,0.695547607421875,2.8468611240386963,2.3222806453704834,0.4676937162876129
1761131531692547600,0.705547607421875,2.8419742584228516,2.446286201477051,0.3791182339191437
1761131531702547700,0.715547607421875,2.8529698848724365,2.5092053413391113,0.29481884837150574
1761131531712547600,0.725547607421875,2.876793622970581,2.522644281387329,0.22273674607276917
1761131531722547700,0.735547607421875,2.9055042266845703,2.533029079437256,0.16409367322921753
1761131531732547600,0.745547607421875,2.9226083755493164,2.561128854751587,0.09689849615097046
1761131531742547700,0.755547607421875,2.9122238159179688,2.5324182510375977,0.0016035212902352214
1761131531752547600,0.765547607421875,2.8810696601867676,2.3509912490844727,-0.1126282811164856
1761131531762548500,0.775548583984375,2.8578567504882812,2.080988883972168,-0.21586450934410095
1761131531772548600,0.785548583984375,2.8664088249206543,1.8097646236419678,-0.2745075821876526
1761131531782548500,0.795548583984375,2.9110019207000732,1.5806901454925537,-0.2690097689628601
1761131531792548600,0.805548583984375,2.982473134994507,1.3571134805679321,-0.19998200237751007
1761131531802548500,0.815548583984375,3.0539443492889404,1.1060478687286377,-0.004505131393671036
1761131531812548600,0.825548583984375,3.0478358268737793,0.9954812526702881,0.16165021061897278
1761131531822548500,0.835548583984375,2.999577522277832,0.8788059949874878,0.32475122809410095
1761131531832548600,0.845548583984375,2.929327964782715,0.7401396036148071,0.4689154326915741
1761131531842548500,0.855548583984375,2.854191541671753,0.5678756237030029,0.586201548576355
1761131531852548600,0.865548583984375,2.790661573410034,0.4176027476787567,0.6772204637527466
1761131531862547700,0.875547607421875,2.7387380599975586,0.33941200375556946,0.7340309619903564
1761131531872547800,0.8855478515625,2.712470769882202,0.34002286195755005,0.7651850581169128
1761131531882547700,0.895547607421875,2.7100272178649902,0.4542546570301056,0.7786241173744202
1761131531892547800,0.9055478515625,2.7143032550811768,0.7071529030799866,0.7829001545906067
1761131531902547700,0.915547607421875,2.7112491130828857,1.0779480934143066,0.7731263041496277
1761131531912547800,0.9255478515625,2.6904795169830322,1.4719561338424683,0.7370852828025818
1761131531922547200,0.935547119140625,2.65627121925354,1.822592854499817,0.6753878593444824
1761131531932547000,0.945547119140625,2.6104562282562256,2.089540958404541,0.5880341529846191
1761131531942547200,0.955547119140625,2.559143543243408,2.212324857711792,0.4744132161140442
1761131531952547000,0.965547119140625,2.5017223358154297,2.134744882583618,0.32475122809410095
1761131531962548000,0.9755478515625,2.4589617252349854,1.9258290529251099,0.1653154045343399
1761131531972547800,0.9855478515625,2.432694435119629,1.6552157402038574,0.011377365328371525
1761131531982548000,0.9955478515625,2.413757562637329,1.3381767272949219,-0.13950635492801666
1761131531992547800,1.0055478515625,2.3978750705718994,1.0211375951766968,-0.2751184403896332
1761131532002548000,1.0155478515625,2.390544891357422,0.7566329836845398,-0.39362630248069763
1761131532012547800,1.0255478515625,2.416201114654541,0.5941427946090698,-0.47853657603263855
1761131532022548000,1.0355478515625,2.466292142868042,0.5330562591552734,-0.5188536643981934
1761131532032547800,1.0455478515625,2.5542566776275635,0.5709299445152283,-0.5017494559288025
1761131532042548000,1.0555478515625,2.614732265472412,0.5819255113601685,-0.4510476291179657
1761131532052547800,1.0655478515625,2.672764539718628,0.5703190565109253,-0.3704134225845337
1761131532062547000,1.075546875,2.7136924266815186,0.5672647356987,-0.25251641869544983
1761131532072547000,1.085547119140625,2.7161359786987305,0.5929210782051086,-0.11446087807416916
1761131532082547000,1.095546875,2.670320987701416,0.6686683893203735,0.03520110994577408
1761131532092547000,1.105547119140625,2.5713608264923096,0.7902305722236633,0.1811978965997696
1761131532102547000,1.115546875,2.435137987136841,0.938670814037323,0.3107013404369354
1761131532112547000,1.125547119140625,2.273869514465332,1.0516809225082397,0.4127158224582672
1761131532122547000,1.135546875,2.115044593811035,1.1243737936019897,0.47624582052230835
1761131532132547000,1.145547119140625,1.9769890308380127,1.1659126281738281,0.5049564838409424
1761131532142547000,1.155546875,1.8621463775634766,1.1811842918395996,0.49212831258773804
1761131532152547000,1.165547119140625,1.7656296491622925,1.183627724647522,0.4243222773075104
1761131532162547700,1.175547607421875,1.686217188835144,1.1909581422805786,0.31375566124916077
1761131532172547800,1.1855478515625,1.6123024225234985,1.233718752861023,0.1653154045343399
1761131532182548000,1.1955478515625,1.5469398498535156,1.2929726839065552,-0.005115996580570936
1761131532192547800,1.2055478515625,1.4895185232162476,1.3503940105438232,-0.18043431639671326
1761131532202548000,1.2155478515625,1.4455362558364868,1.4078153371810913,-0.3459787964820862
1761131532212547800,1.2255478515625,1.4143821001052856,1.4835625886917114,-0.49441906809806824
1761131532222548200,1.23554833984375,1.3765084743499756,1.6057356595993042,-0.6257550716400146
1761131532232548000,1.245548095703125,1.3215305805206299,1.7492890357971191,-0.7540367841720581
1761131532242548200,1.25554833984375,1.2506701946258545,1.8757381439208984,-0.8908706307411194
1761131532252548000,1.265548095703125,1.1602622270584106,1.9007835388183594,-1.0179306268692017
1761131532262547500,1.27554736328125,1.0686323642730713,1.7218000888824463,-1.1089495420455933
1761131532272547300,1.28554736328125,1.0069350004196167,1.2105058431625366,-1.1456013917922974
1761131532282547500,1.29554736328125,1.036867380142212,0.9753227233886719,-1.0869582891464233
1761131532292547300,1.30554736328125,1.0826822519302368,0.889801561832428,-0.980667769908905
1761131532302547500,1.31554736328125,1.0906234979629517,0.9148470759391785,-0.8536078333854675
1761131532312547000,1.325547119140625,1.0411434173583984,0.956996738910675,-0.7381542921066284
1761131532322547000,1.335546875,0.9556223154067993,0.9631054401397705,-0.6501896977424622
1761131532332547000,1.345547119140625,0.8719337582588196,0.8800277709960938,-0.5817728042602539
1761131532342547000,1.355546875,0.8187885284423828,0.7297548651695251,-0.5194645524024963
1761131532352547000,1.365547119140625,0.8041277527809143,0.5703190565109253,-0.4614323377609253
1761131532362548000,1.3755478515625,0.8218428492546082,0.46158504486083984,-0.4162282943725586
1761131532372547800,1.3855478515625,0.8407796621322632,0.4237114191055298,-0.39179369807243347
1761131532382548000,1.3955478515625,0.8542186617851257,0.401720255613327,-0.39179369807243347
1761131532392547800,1.4055478515625,0.8749880790710449,0.3620140254497528,-0.3905719518661499
1761131532402548000,1.4155478515625,0.9055313467979431,0.321086049079895,-0.36674821376800537
1761131532412547800,1.4255478515625,0.923246443271637,0.26427558064460754,-0.3197115957736969
1761131532422548000,1.4355478515625,0.8969792723655701,0.2410627007484436,-0.2433534413576126
1761131532432547800,1.4455478515625,0.8218428492546082,0.26427558064460754,-0.13156510889530182
1761131532442548000,1.4555478515625,0.6984480619430542,0.28993192315101624,-0.022831087931990623
1761131532452547800,1.4655478515625,0.5310709476470947,0.27893635630607605,0.03764457255601883
1761131532462547000,1.475546875,0.3441462218761444,0.20441077649593353,0.025427265092730522
1761131532472547000,1.485547119140625,0.17921258509159088,0.08101600408554077,-0.0466548316180706
1761131532482547000,1.495546875,0.06375905871391296,-0.031383201479911804,-0.15416711568832397
1761131532492547000,1.505547119140625,-0.0009926559869199991,-0.010002918541431427,-0.30260735750198364
1761131532502547000,1.515546875,0.016722436994314194,0.15737415850162506,-0.35269832611083984
1761131532512547000,1.525547119140625,0.05826127156615257,0.40049853920936584,-0.353920042514801
1761131532522546700,1.535546630859375,0.122402124106884,0.643622875213623,-0.3148246705532074
1761131532532546300,1.54554638671875,0.2079232633113861,0.8232172727584839,-0.24029912054538727
1761131532545780000,1.558780029296875,0.30688342452049255,0.8763625621795654,-0.15905404090881348
1761131532555779800,1.56877978515625,0.4266130030155182,0.7847327589988708,-0.07903069257736206
1761131532565780700,1.57878076171875,0.5512295365333557,0.5581017732620239,-0.014278975315392017
1761131532575780600,1.588780517578125,0.6795112490653992,0.23251058161258698,0.02848159149289131
1761131532585780700,1.59878076171875,0.8029059767723083,-0.12912164628505707,0.04619668424129486
1761131532595780600,1.608780517578125,0.9250790476799011,-0.45959973335266113,0.048029281198978424
1761131532605780700,1.61878076171875,1.0380891561508179,-0.6789003610610962,0.039477165788412094
1761131532615781000,1.628781005859375,1.1278862953186035,-0.7479281425476074,0.03520110994577408
1761131532625781000,1.638781005859375,1.1828641891479492,-0.6947828531265259,0.04375322163105011
1761131532635781000,1.648781005859375,1.19202721118927,-0.5811619162559509,0.06085744872689247
1761131532645781000,1.658781005859375,1.1645382642745972,-0.4559345543384552,0.09323330968618393
1761131532655781000,1.668781005859375,1.1120038032531738,-0.3355940878391266,0.13721559941768646
1761131532665780200,1.6787802734375,1.028926134109497,-0.22502748668193817,0.18425223231315613
1761131532675780000,1.688780029296875,0.9275225400924683,-0.13461942970752716,0.22273674607276917
1761131532685780200,1.6987802734375,0.801073431968689,-0.028328875079751015,0.25816693902015686
1761131532695780000,1.708780029296875,0.6410267353057861,0.0645226389169693,0.2911536395549774
1761131532705780200,1.7187802734375,0.46937358379364014,0.11950051039457321,0.30459266901016235
1761131532715780000,1.728780029296875,0.3184898793697357,0.1500437706708908,0.3070361316204071
1761131532725780200,1.7387802734375,0.20914499461650848,0.13660474121570587,0.2929862439632416
1761131532735780000,1.748780029296875,0.11812606453895569,0.06085744872689247,0.21174116432666779
1761131532745780200,1.7587802734375,0.10041097551584244,-0.05398521572351456,0.12316570430994034
1761131532755780000,1.768780029296875,0.10041097551584244,-0.14928019046783447,0.022372938692569733
1761131532765781000,1.778781005859375,0.08636107295751572,-0.2293035387992859,-0.09063713252544403
1761131532775781000,1.788781005859375,0.04787656292319298,-0.32276591658592224,-0.2079232633113861
1761131532785781000,1.798781005859375,0.006337726954370737,-0.4009566605091095,-0.30566170811653137
1761131532795781000,1.808781005859375,-0.026648996397852898,-0.4143957197666168,-0.36369389295578003
1761131532805781000,1.818781005859375,-0.04130976274609566,-0.30260735750198364,-0.36369389295578003
1761131532815781000,1.828781005859375,-0.05474879592657089,-0.13950635492801666,-0.3203224539756775
1761131532855781400,1.868781494140625,-0.1549306958913803,0.4127158224582672,0.14332425594329834
1761131532865780700,1.87878076171875,-0.1757001131772995,0.39988765120506287,0.25328001379966736
1761131532875780600,1.888780517578125,-0.18730655312538147,0.38461601734161377,0.3412446081638336
1761131532885780700,1.89878076171875,-0.2013564556837082,0.3876703679561615,0.3986659348011017
1761131532895780600,1.908780517578125,-0.2264019250869751,0.4072180390357971,0.4127158224582672
1761131532905780700,1.91878076171875,-0.25816693902015686,0.4420373737812042,0.3882812261581421
1761131532915780600,1.928780517578125,-0.27466028928756714,0.5055673718452454,0.3326924741268158
1761131532925780500,1.938780517578125,-0.27343854308128357,0.6307947039604187,0.26855164766311646
1761131532935780600,1.948780517578125,-0.2618321180343628,0.7297548651695251,0.19219347834587097
1761131532945780500,1.958780517578125,-0.2471713423728943,0.7321983575820923,0.09750936180353165
1761131532955780600,1.968780517578125,-0.21723894774913788,0.6314055919647217,-0.004505131393671036
1761131532965781500,1.978781494140625,-0.1555415689945221,0.35407277941703796,-0.17066048085689545
1761131532975781400,1.988781494140625,-0.10850493609905243,0.06391177326440811,-0.29161179065704346
1761131532985781500,1.998781494140625,-0.05597052723169327,-0.2286926805973053,-0.39851322770118713
1761131532995781600,2.00878173828125,-0.00038179077091626823,-0.38385245203971863,-0.4614323377609253
1761131533005781500,2.018781494140625,0.04482223838567734,-0.37713292241096497,-0.47853657603263855
1761131533015781600,2.02878173828125,0.07597636431455612,-0.24518603086471558,-0.44921502470970154
1761131533025781500,2.038781494140625,0.1071304902434349,-0.06253732740879059,-0.3807981312274933
1761131533035781600,2.04878173828125,0.14439326524734497,0.12622003257274628,-0.2781727612018585
1761131533045781500,2.058781494140625,0.1724930703639984,0.25816693902015686,-0.17066048085689545
1761131533055781600,2.06878173828125,0.17921258509159088,0.2709950804710388,-0.08086328953504562
1761131533065780700,2.07878076171875,0.18532124161720276,0.17875444889068604,0.0009926559869199991
1761131533075780600,2.088780517578125,0.2030363380908966,0.04619668424129486,0.07551821321249008
1761131533085780700,2.09878076171875,0.22563834488391876,-0.09980010986328125,0.15309810638427734
1761131533095780600,2.108780517578125,0.2500729560852051,-0.20731239020824432,0.2410627007484436
1761131533105780700,2.11878076171875,0.26717719435691833,-0.22747094929218292,0.3363576829433441
1761131533115780600,2.128780517578125,0.2726749777793884,-0.14561499655246735,0.43104177713394165
1761131533125780700,2.13878076171875,0.2702315151691437,0.01687515154480934,0.5220606923103333
1761131533135780600,2.148780517578125,0.2745075821876526,0.2160172164440155,0.6069709658622742
1761131533145780700,2.15878076171875,0.2842814028263092,0.4139375686645508,0.6869943141937256
1761131533155780600,2.168780517578125,0.292833536863327,0.577038586139679,0.7602981328964233
1761131533165781500,2.178781494140625,0.29649871587753296,0.6967681646347046,0.8189412355422974
1761131533175781400,2.188781494140625,0.3001639246940613,0.758465588092804,0.8726973533630371
1761131533185781500,2.198781494140625,0.3148246705532074,0.7566329836845398,0.9240100383758545
1761131533195781400,2.208781494140625,0.3594178259372711,0.6558402180671692,0.986929178237915
1761131533205781500,2.218781494140625,0.39790233969688416,0.5519931316375732,1.0107529163360596
1761131533215781400,2.228781494140625,0.4302782118320465,0.40966150164604187,1.0101420879364014
1761131533225781500,2.238781494140625,0.4418846368789673,0.23189972341060638,0.9820422530174255
1761131533235781400,2.248781494140625,0.43455424904823303,0.06146831437945366,0.939281702041626
1761131533245781500,2.258781494140625,0.4217261075973511,-0.060093868523836136,0.8879690170288086
1761131533255781400,2.268781494140625,0.4095087945461273,-0.16516269743442535,0.8262715935707092
1761131533265780700,2.27878076171875,0.3911828398704529,-0.27695104479789734,0.748691737651825
1761131533275780600,2.288780517578125,0.3801872432231903,-0.36247217655181885,0.673555314540863
1761131533285780500,2.298780517578125,0.3814089894294739,-0.3948480188846588,0.6008623242378235
1761131533295780600,2.308780517578125,0.3893502354621887,-0.46815183758735657,0.5165629386901855
1761131533305780500,2.318780517578125,0.4192826449871063,-0.6214790344238281,0.4334852397441864
1761131533315780600,2.328780517578125,0.477314829826355,-0.800462543964386,0.36567920446395874
1761131533325780500,2.338780517578125,0.5469534397125244,-0.9733374118804932,0.33513593673706055
1761131533335780600,2.348780517578125,0.5988770127296448,-1.0967321395874023,0.34552064538002014
1761131533345780500,2.358780517578125,0.6172029972076416,-1.1498774290084839,0.3888920843601227
1761131533355780600,2.368780517578125,0.5933791995048523,-1.1468231678009033,0.4432590901851654
1761131533365781500,2.378781494140625,0.5200753808021545,-1.0948995351791382,0.49701523780822754
1761131533375781400,2.388781494140625,0.4150065779685974,-1.0026589632034302,0.5324454307556152
1761131533385781500,2.398781494140625,0.29710957407951355,-0.903698742389679,0.5373323559761047
1761131533395781400,2.408781494140625,0.18532124161720276,-0.7925212979316711,0.5061782002449036
1761131533405781500,2.418781494140625,0.09674578160047531,-0.6691265106201172,0.4389830231666565
1761131533415781400,2.428781494140625,0.028939740732312202,-0.5561164617538452,0.3369685411453247
1761131533425781500,2.438781494140625,-0.05535966157913208,-0.38385245203971863,0.13843733072280884
1761131533435781400,2.448781494140625,-0.12194397300481796,-0.24152085185050964,-0.010002918541431427
1761131533445781500,2.458781494140625,-0.19769126176834106,-0.12179125845432281,-0.17432567477226257
1761131533455781400,2.468781494140625,-0.27893635630607605,-0.09124799817800522,-0.35758525133132935
1761131533465780700,2.47878076171875,-0.34063372015953064,-0.14683672785758972,-0.535347044467926
1761131533475780600,2.488780517578125,-0.36995527148246765,-0.2629011273384094,-0.6984480619430542
1761131533485780700,2.49878076171875,-0.36506834626197815,-0.34353533387184143,-0.819399356842041
1761131533495780600,2.508780517578125,-0.33941200375556946,-0.3691916763782501,-0.9006444215774536
1761131533505780700,2.51878076171875,-0.31864258646965027,-0.3801872432231903,-0.9592875242233276
1761131533515780600,2.528780517578125,-0.321086049079895,-0.3557526469230652,-1.0130436420440674
1761131533525780700,2.53878076171875,-0.34429892897605896,-0.28122708201408386,-1.068021535873413
1761131533535780600,2.548780517578125,-0.36506834626197815,-0.16149750351905823,-1.116890788078308
1761131533545780700,2.55878076171875,-0.36140313744544983,-0.072311170399189,-1.1376601457595825
1761131533555780600,2.568780517578125,-0.3565162420272827,-0.09918924421072006,-1.1358275413513184
1761131533565781500,2.578781494140625,-0.37117698788642883,-0.2341904640197754,-1.1095603704452515
1761131533575781400,2.588781494140625,-0.3980550765991211,-0.3807981312274933,-1.048473834991455
1761131533585781500,2.598781494140625,-0.42065706849098206,-0.42233696579933167,-0.9470701813697815
1761131533595781400,2.608781494140625,-0.4328743815422058,-0.34353533387184143,-0.8132907152175903
1761131533605781500,2.618781494140625,-0.43531784415245056,-0.18898643553256989,-0.6611852645874023
1761131533615781600,2.62878173828125,-0.41515928506851196,0.004657847341150045,-0.4876995384693146
1761131533625781500,2.638781494140625,-0.36629006266593933,0.1964695304632187,-0.29772046208381653
1761131533635781600,2.64878173828125,-0.3131448030471802,0.3418554663658142,-0.11140654981136322
1761131533645781500,2.658781494140625,-0.27404943108558655,0.3870594799518585,0.05047274008393288
1761131533655781400,2.668781494140625,-0.27893635630607605,0.27832546830177307,0.18975001573562622
1761131533665780700,2.67878076171875,-0.31864258646965027,0.11888964474201202,0.19402606785297394
1761131533675780600,2.688780517578125,-0.3717878460884094,-0.06925684958696365,0.12438743561506271
1761131533685780700,2.69878076171875,-0.40966150164604187,-0.24029912054538727,-0.006337726954370737
1761131533695780600,2.708780517578125,-0.41515928506851196,-0.3893502354621887,-0.1737148016691208
1761131533705780700,2.71878076171875,-0.39500072598457336,-0.5072472095489502,-0.32826370000839233
1761131533715780600,2.728780517578125,-0.3516293168067932,-0.5212971568107605,-0.4266130030155182
1761131533725780500,2.738780517578125,-0.29420796036720276,-0.4015675485134125,-0.45349109172821045
1761131533735780600,2.748780517578125,-0.24839307367801666,-0.22075143456459045,-0.41256311535835266
1761131533745780700,2.75878076171875,-0.22884538769721985,-0.03565925732254982,-0.3148246705532074
1761131533755780600,2.768780517578125,-0.23189972341060638,0.11583532392978668,-0.18043431639671326
1761131533765781500,2.778781494140625,-0.24350616335868835,0.23861923813819885,-0.03871358558535576
1761131533775781400,2.788781494140625,-0.2618321180343628,0.3070361316204071,0.09140071272850037
1761131533785781500,2.798781494140625,-0.2856558561325073,0.30947959423065186,0.19708040356636047
1761131533795781400,2.808781494140625,-0.31009048223495483,0.25999951362609863,0.28382325172424316
1761131533805781500,2.818781494140625,-0.3223077654838562,0.18975001573562622,0.36567920446395874
1761131533815781400,2.828781494140625,-0.32963815331459045,0.0999528244137764,0.4432590901851654
1761131533825781500,2.838781494140625,-0.33513593673706055,0.026648996397852898,0.5141194462776184
1761131533835781400,2.848781494140625,-0.3516293168067932,0.012599095702171326,0.566653847694397
1761131533845781500,2.858781494140625,-0.3772856593132019,0.04680754989385605,0.5923101902008057
1761131533855781400,2.868781494140625,-0.41577014327049255,0.10667234659194946,0.577038586139679
1761131533865780700,2.87878076171875,-0.4646393656730652,0.16226108372211456,0.5190063714981079
1761131533875780600,2.888780517578125,-0.5245041847229004,0.20013472437858582,0.4218788146972656
1761131533885780700,2.89878076171875,-0.6326273083686829,0.15248723328113556,0.21784982085227966
1761131533895780600,2.908780517578125,-0.6955464482307434,0.05902485549449921,0.06269004940986633
1761131533905780700,2.91878076171875,-0.7358635663986206,-0.017333300784230232,-0.08086328953504562
1761131533915780600,2.928780517578125,-0.7529677748680115,-0.03199406713247299,-0.2030363380908966
1761131533925780700,2.93878076171875,-0.747469961643219,0.011377365328371525,-0.3001639246940613
1761131533935780600,2.948780517578125,-0.7230353951454163,0.09873109310865402,-0.36735907196998596
1761131533945780700,2.95878076171875,-0.6784422397613525,0.22029328346252441,-0.3911828398704529
1761131533955780600,2.968780517578125,-0.6143013834953308,0.3681226670742035,-0.3600287139415741
1761131533965781500,2.978781494140625,-0.5379431843757629,0.5196172595024109,-0.2940552532672882
1761131533975781400,2.988781494140625,-0.4585307240486145,0.5923101902008057,-0.20609065890312195
1761131533985781500,2.998781494140625,-0.36629006266593933,0.586812436580658,-0.10590875893831253
1761131533995781600,3.00878173828125,-0.2667190432548523,0.521449863910675,-0.013057244941592216
1761131534005781500,3.018781494140625,-0.17447838187217712,0.4279874563217163,0.06207918003201485
1761131534015781600,3.02878173828125,-0.09689849615097046,0.2807689309120178,0.09934195876121521
1761131534025780700,3.03878076171875,-0.04375322163105011,0.08712465316057205,0.08345946669578552
1761131534035780600,3.048780517578125,0.006337726954370737,-0.045433104038238525,0.04069889709353447
1761131534045780700,3.05878076171875,0.05520694702863693,-0.05276348441839218,-0.02099849283695221
1761131534055780600,3.068780517578125,0.08636107295751572,-0.0038942659739404917,-0.09980010986328125
1761131534065779700,3.07877978515625,0.09369145333766937,0.01748601719737053,-0.21952970325946808
1761131534075779800,3.08877978515625,0.08575020730495453,-0.05093089118599892,-0.38690677285194397
1761131534085779700,3.09877978515625,0.08147415518760681,-0.14133894443511963,-0.5817728042602539
1761131534095779800,3.10877978515625,0.082085020840168,-0.22197316586971283,-0.7784714102745056
1761131534105779700,3.11877978515625,0.08575020730495453,-0.38385245203971863,-0.9580658078193665
1761131534115779800,3.12877978515625,0.09980010986328125,-0.657520055770874,-1.0863474607467651
1761131534125779700,3.13877978515625,0.18226692080497742,-0.8474991917610168,-1.0393108129501343
1761131534135779800,3.14877978515625,0.26106852293014526,-0.5768858790397644,-0.8145124316215515
1761131534145779700,3.15877978515625,0.31604641675949097,-0.07414376735687256,-0.47975829243659973
1761131534155779800,3.16877978515625,0.3288745880126953,0.4188244938850403,-0.11385001242160797
1761131534165780500,3.178780517578125,0.3081051707267761,0.7364743947982788,0.2056325078010559
1761131534175780600,3.188780517578125,0.27572929859161377,0.8500953316688538,0.4377613067626953
1761131534185780500,3.198780517578125,0.25190556049346924,0.8336020112037659,0.557490885257721
1761131534195780600,3.208780517578125,0.23174700140953064,0.7303657531738281,0.5642104148864746
1761131534205780500,3.218780517578125,0.192651629447937,0.5807037949562073,0.45547640323638916
1761131534215780600,3.228780517578125,0.13950635492801666,0.3589596748352051,0.2612212598323822
1761131534225780500,3.238780517578125,0.11323914676904678,0.06696610152721405,0.03520110994577408
1761131534235780600,3.248780517578125,0.15599970519542694,-0.20975585281848907,-0.15905404090881348
1761131534245780500,3.258780517578125,0.2598468065261841,-0.38263070583343506,-0.2677880525588989
1761131534255780600,3.268780517578125,0.3606395721435547,-0.444938987493515,-0.2781727612018585
1761131534265779700,3.27877978515625,0.4473824203014374,-0.38873937726020813,-0.19570595026016235
1761131534275779800,3.28877978515625,0.5212971568107605,-0.20609065890312195,-0.024663684889674187
1761131534285779700,3.29877978515625,0.5585598945617676,0.08162686973810196,0.19891299307346344
1761131534295779800,3.30877978515625,0.5408447980880737,0.36079227924346924,0.4328743815422058
1761131534305779700,3.31877978515625,0.47487136721611023,0.531223714351654,0.6417902708053589
1761131534315779800,3.32877978515625,0.3911828398704529,0.5776494741439819,0.8073347806930542
1761131534325780500,3.338780517578125,0.3203224539756775,0.5391649603843689,0.919734001159668
1761131534335780600,3.348780517578125,0.2677880525588989,0.46586111187934875,0.9795987606048584
1761131534345780500,3.358780517578125,0.23052527010440826,0.3424663245677948,0.9741010069847107
1761131534355780600,3.368780517578125,0.20670153200626373,0.1298852264881134,0.8714756369590759
1761131534365781500,3.378781494140625,0.21769709885120392,0.023594669997692108,0.7657959461212158
1761131534375781400,3.388781494140625,0.2439643144607544,-0.04787656292319298,0.6393468379974365
1761131534385781500,3.398781494140625,0.2690097689628601,-0.08513934165239334,0.5086216926574707
1761131534395781400,3.408781494140625,0.28122708201408386,-0.09063713252544403,0.3772856593132019
1761131534405781500,3.418781494140625,0.27634015679359436,-0.08575020730495453,0.2557234764099121
1761131534415781400,3.428781494140625,0.2592359483242035,-0.08269587904214859,0.16165021061897278
1761131534425781500,3.438781494140625,0.23235787451267242,-0.07658722996711731,0.10117455571889877
1761131534435781400,3.448781494140625,0.19570595026016235,-0.07536549866199493,0.07307475805282593
1761131534445781500,3.458781494140625,0.1474476009607315,-0.09002626687288284,0.07185302674770355
1761131534455781400,3.468781494140625,0.10529789328575134,-0.11873693019151688,0.09323330968618393
1761131534465780700,3.47878076171875,0.07414376735687256,-0.142560675740242,0.12377656996250153
1761131534475780600,3.488780517578125,0.05948300287127495,-0.152334526181221,0.15737415850162506
1761131534485780500,3.498780517578125,0.05520694702863693,-0.14133894443511963,0.19219347834587097
1761131534495780600,3.508780517578125,0.060704734176397324,-0.13095423579216003,0.22395847737789154
1761131534505780500,3.518780517578125,0.07658722996711731,-0.1321759670972824,0.25328001379966736
1761131534515780600,3.528780517578125,0.102243572473526,-0.11018481850624084,0.2880993187427521
1761131534525780500,3.538780517578125,0.11995866149663925,-0.08758280426263809,0.31925344467163086
1761131534535780600,3.548780517578125,0.12118039280176163,-0.082085020840168,0.3357468247413635
1761131534545780500,3.558780517578125,0.10896308720111847,-0.08452847599983215,0.34063372015953064
1761131534555780600,3.568780517578125,0.08086328953504562,-0.09674578160047531,0.31925344467163086
1761131534565781500,3.578781494140625,0.04115704447031021,-0.14928019046783447,0.2606103718280792
1761131534575781400,3.588781494140625,-0.006490443367511034,-0.25251641869544983,0.1549306958913803
1761131534585781500,3.598781494140625,-0.07735081017017365,-0.44249552488327026,-0.07353290170431137
1761131534595781400,3.608781494140625,-0.11217013001441956,-0.5463426113128662,-0.264122873544693
1761131534605781500,3.618781494140625,-0.12133310735225677,-0.5579490661621094,-0.4614323377609253
1761131534615781400,3.628781494140625,-0.11827878654003143,-0.5109124183654785,-0.648967981338501
1761131534625781500,3.638781494140625,-0.10850493609905243,-0.4760931134223938,-0.8181776404380798
1761131534635781400,3.648781494140625,-0.09506590664386749,-0.4473824203014374,-0.942794144153595
1761131534645781500,3.658781494140625,-0.08590292185544968,-0.38385245203971863,-1.0032697916030884
1761131534655781400,3.668781494140625,-0.09689849615097046,-0.26717719435691833,-0.9989937543869019
1761131534665780500,3.678780517578125,-0.15309810638427734,-0.1578323096036911,-0.9605092406272888
1761131534675780600,3.688780517578125,-0.25999951362609863,-0.14622586965560913,-0.9226356148719788
1761131534685780500,3.698780517578125,-0.3931681513786316,-0.21586450934410095,-0.8914814591407776
1761131534695780600,3.708780517578125,-0.5000695586204529,-0.2598468065261841,-0.8377253413200378
1761131534705780500,3.718780517578125,-0.5458844304084778,-0.21219931542873383,-0.7302130460739136
1761131534715780600,3.728780517578125,-0.5361106395721436,-0.060704734176397324,-0.5622251033782959
1761131534725780500,3.738780517578125,-0.4896848499774933,0.15431983768939972,-0.3557526469230652
1761131534735780600,3.748780517578125,-0.4182136058807373,0.3223077654838562,-0.13034337759017944
1761131534745780500,3.758780517578125,-0.3333033621311188,0.3766747713088989,0.09384417533874512
1761131534755780600,3.768780517578125,-0.25022566318511963,0.3467423915863037,0.29909488558769226
1761131534765781500,3.778781494140625,-0.1915826052427292,0.23312145471572876,0.45608726143836975
1761131534775781400,3.788781494140625,-0.18180876970291138,0.051083605736494064,0.5403866767883301
1761131534785781500,3.798781494140625,-0.2215150147676468,-0.1431715488433838,0.5605452060699463
1761131534795781400,3.808781494140625,-0.3174208402633667,-0.3197115957736969,0.5061782002449036
1761131534805781500,3.818781494140625,-0.4628067910671234,-0.43944117426872253,0.38033998012542725
1761131534815781400,3.828781494140625,-0.6955464482307434,-0.42416954040527344,0.1097266674041748
1761131534825781500,3.838781494140625,-0.8073347806930542,-0.2946661114692688,-0.07597636431455612
1761131534835781400,3.848781494140625,-0.8519279360771179,-0.06620252132415771,-0.2079232633113861
1761131534845781500,3.858781494140625,-0.8439866900444031,0.21418462693691254,-0.26656633615493774
1761131534855781600,3.86878173828125,-0.8091673851013184,0.46525025367736816,-0.2690097689628601
1761131534865780700,3.87878076171875,-0.7517460584640503,0.6613379716873169,-0.2244166135787964
1761131534875780600,3.888780517578125,-0.6784422397613525,0.7651850581169128,-0.1419498175382614
1761131534885780700,3.89878076171875,-0.5941427946090698,0.7798458337783813,-0.03199406713247299
1761131534895780600,3.908780517578125,-0.511676013469696,0.7230353951454163,0.08407033234834671
1761131534905780700,3.91878076171875,-0.43531784415245056,0.5947536826133728,0.18791742622852325
1761131534915780600,3.928780517578125,-0.3742313086986542,0.4285983145236969,0.2673299014568329
1761131534925780500,3.938780517578125,-0.32536208629608154,0.2569451928138733,0.3168099820613861
1761131534935780600,3.948780517578125,-0.28871017694473267,0.10361801832914352,0.3381902575492859
1761131534945780500,3.958780517578125,-0.25938865542411804,-0.04787656292319298,0.3357468247413635
1761131534955780600,3.968780517578125,-0.24228443205356598,-0.1682170182466507,0.31436651945114136
1761131534965781500,3.978781494140625,-0.23373231291770935,-0.2244166135787964,0.2880993187427521
1761131534975781400,3.988781494140625,-0.2361757755279541,-0.22624921798706055,0.2526691257953644
1761131534985781500,3.998781494140625,-0.25022566318511963,-0.1981494128704071,0.21479548513889313
1761131534995781600,4.00878173828125,-0.2771037518978119,-0.14928019046783447,0.17081318795681
1761131535005781500,4.018781494140625,-0.31864258646965027,-0.11079568415880203,0.1201113760471344
1761131535015781600,4.02878173828125,-0.35407277941703796,-0.12545645236968994,0.06879869848489761
1761131535025781500,4.038781494140625,-0.3681226670742035,-0.19692768156528473,0.02298380434513092
1761131535035781600,4.04878173828125,-0.3479641079902649,-0.273285835981369,-0.00022907447419129312
1761131535045781500,4.058781494140625,-0.27466028928756714,-0.25557073950767517,0.03214678168296814
1761131535055781600,4.06878173828125,-0.22518019378185272,-0.18532124161720276,0.09506590664386749
1761131535065780700,4.07878076171875,-0.18241962790489197,-0.09308059513568878,0.1811978965997696
1761131535075780600,4.088780517578125,-0.1451568603515625,0.0016035212902352214,0.2764928936958313
1761131535085780500,4.098780517578125,-0.10606148093938828,0.08040513843297958,0.3687335252761841
1761131535095780600,4.108780517578125,-0.06513350456953049,0.13904820382595062,0.4481460154056549
1761131535105780700,4.11878076171875,-0.01687515154480934,0.1757001131772995,0.5092325210571289
1761131535115780600,4.128780517578125,0.04054617881774902,0.17386752367019653,0.5532148480415344
1761131535125780500,4.138780517578125,0.10102184116840363,0.10850493609905243,0.5758168697357178
1761131535135780600,4.148780517578125,0.16027577221393585,0.005268712528049946,0.576427698135376
1761131535145780500,4.158780517578125,0.21158844232559204,-0.14866933226585388,0.5477170348167419
1761131535155780600,4.168780517578125,0.24640776216983795,-0.33803755044937134,0.4945717751979828
1761131535165781200,4.17878125,0.2647337317466736,-0.44799330830574036,0.42493313550949097
1761131535175781400,4.188781494140625,0.27206411957740784,-0.39729148149490356,0.3479641079902649
1761131535185781500,4.198781494140625,0.27756190299987793,-0.23480132222175598,0.25328001379966736
1761131535195781400,4.208781494140625,0.27084237337112427,-0.0771980956196785,0.12072224169969559
1761131535205781500,4.218781494140625,0.26656633615493774,0.007712173741310835,-0.045433104038238525
1761131535215781400,4.228781494140625,0.2891683280467987,0.07124216109514236,-0.21769709885120392
1761131535225781200,4.23878125,0.34781140089035034,0.16165021061897278,-0.3704134225845337
1761131535245781200,4.25878125,0.4901430010795593,0.18303050100803375,-0.5842162370681763
1761131535255781400,4.268781494140625,0.5481752157211304,0.047418415546417236,-0.6153703927993774
1761131535265780700,4.27878076171875,0.6123160719871521,0.0034361169673502445,-0.554283857345581
1761131535275780600,4.288780517578125,0.6624069809913635,0.09384417533874512,-0.40706533193588257
1761131535285780700,4.29878076171875,0.7106653451919556,0.41027235984802246,-0.08452847599983215
1761131535295780600,4.308780517578125,0.7265478372573853,0.63507080078125,0.14332425594329834
1761131535305780700,4.31878076171875,0.7247152328491211,0.7694611549377441,0.32047519087791443
1761131535315780600,4.328780517578125,0.7112762331962585,0.8006152510643005,0.4090506434440613
1761131535325780700,4.33878076171875,0.6990588903427124,0.757854700088501,0.40599632263183594
1761131535335780600,4.348780517578125,0.6807329654693604,0.5800929069519043,0.301538348197937
1761131535345780700,4.35878076171875,0.6318637132644653,0.21174116432666779,0.1201113760471344
1761131535355780600,4.368780517578125,0.5891031622886658,-0.2940552532672882,-0.09674578160047531
1761131535365781500,4.378781494140625,0.5958226919174194,-0.697226345539093,-0.29588785767555237
1761131535375781600,4.38878173828125,0.6410267353057861,-0.8499426245689392,-0.41745004057884216
1761131535385781500,4.398781494140625,0.6526331305503845,-0.8328384160995483,-0.487088680267334
1761131535395781600,4.40878173828125,0.6465244889259338,-0.6715700030326843,-0.4767039716243744
1761131535405781500,4.418781494140625,0.6227007508277893,-0.32276591658592224,-0.3655264973640442
1761131535415781600,4.42878173828125,0.5787184834480286,0.11827878654003143,-0.17127133905887604
1761131535425781500,4.438781494140625,0.496862530708313,0.5385540723800659,0.07673994451761246
1761131535435781600,4.44878173828125,0.3911828398704529,0.8690321445465088,0.33941200375556946
1761131535445781500,4.458781494140625,0.29222264885902405,1.07061767578125,0.5929210782051086
1761131535455781600,4.46878173828125,0.223194882273674,1.1518627405166626,0.8268824815750122
1761131535465780700,4.47878076171875,0.17493653297424316,1.1384238004684448,1.0211375951766968
1761131535475780600,4.488780517578125,0.13095423579216003,1.0449613332748413,1.1536953449249268
1761131535485780700,4.49878076171875,0.0869719386100769,0.9117927551269531,1.225777506828308
1761131535495780600,4.508780517578125,0.04787656292319298,0.7706828713417053,1.2459360361099243
1761131535505780700,4.51878076171875,0.0069485921412706375,0.6179665327072144,1.2086732387542725
1761131535515780600,4.528780517578125,-0.03275764733552933,0.35468363761901855,1.0480157136917114
1761131535525780700,4.53878076171875,-0.0339793786406517,0.1811978965997696,0.8788059949874878
1761131535535780600,4.548780517578125,-0.015042556449770927,0.036422841250896454,0.6711118221282959
1761131535545780700,4.55878076171875,0.012446379289031029,-0.06620252132415771,0.43531784415245056
1761131535555780600,4.568780517578125,0.03199406713247299,-0.13645201921463013,0.18364135921001434
1761131535565781500,4.578781494140625,0.03260493278503418,-0.1834886521100998,-0.06742425262928009
1761131535575781400,4.588781494140625,0.01794416643679142,-0.23663392663002014,-0.2989421784877777
1761131535585781500,4.598781494140625,0.000839939690195024,-0.2940552532672882,-0.47975829243659973
1761131535595781400,4.608781494140625,-0.019318614155054092,-0.28244882822036743,-0.5927683711051941
1761131535605781500,4.618781494140625,-0.05047274008393288,-0.21952970325946808,-0.6465244889259338
1761131535615781400,4.628781494140625,-0.08223773539066315,-0.1786017268896103,-0.6556875109672546
1761131535625781500,4.638781494140625,-0.09873109310865402,-0.1688278764486313,-0.619646430015564
1761131535635781400,4.648781494140625,-0.09323330968618393,-0.18715384602546692,-0.5493969321250916
1761131535645781500,4.658781494140625,-0.07368562370538712,-0.24274258315563202,-0.4565454125404358
1761131535655781400,4.668781494140625,-0.047418415546417236,-0.3203224539756775,-0.36858081817626953
1761131535665780500,4.678780517578125,-0.01992947794497013,-0.3991240859031677,-0.29649871587753296
1761131535675780600,4.688780517578125,0.005115996580570936,-0.47364965081214905,-0.2586250603199005
1761131535685780500,4.698780517578125,0.025885414332151413,-0.5292384028434753,-0.2531272768974304
1761131535695780600,4.708780517578125,0.03810271993279457,-0.5713880658149719,-0.2787836194038391
1761131535705780500,4.718780517578125,0.039324451237916946,-0.6159812211990356,-0.3404810130596161
1761131535715780600,4.728780517578125,0.02710714563727379,-0.638583242893219,-0.4363868534564972
1761131535725780500,4.738780517578125,0.008170322515070438,-0.5781075954437256,-0.554894745349884
1761131535735780600,4.748780517578125,-0.004046982154250145,-0.45837801694869995,-0.6837872862815857
1761131535745780500,4.758780517578125,-0.0009926559869199991,-0.292833536863327,-0.8792641758918762
1761131535755780600,4.768780517578125,0.01366810966283083,-0.223194882273674,-0.9892199039459229
1761131535765781200,4.77878125,0.03443752974271774,-0.17982345819473267,-1.0741301774978638
1761131535775781400,4.788781494140625,0.0466548316180706,-0.13645201921463013,-1.1260536909103394
1761131535785781500,4.798781494140625,0.05520694702863693,-0.082085020840168,-1.1376601457595825
1761131535795781400,4.808781494140625,0.06559165567159653,-0.07108944654464722,-1.1065059900283813
1761131535805781500,4.818781494140625,0.09552405029535294,-0.07047858089208603,-1.0185414552688599
1761131535815781400,4.828781494140625,0.17066048085689545,-0.0069485921412706375,-0.8511643409729004
1761131535825781500,4.838781494140625,0.28061622381210327,0.14821118116378784,-0.6025422215461731
1761131535835781400,4.848781494140625,0.39851322770118713,0.3742313086986542,-0.2940552532672882
1761131535845781500,4.858781494140625,0.5078580975532532,0.5752059817314148,0.04680754989385605
1761131535855781400,4.868781494140625,0.5976552963256836,0.6802747845649719,0.3888920843601227
1761131535865780500,4.878780517578125,0.65874183177948,0.6949355602264404,0.7059311270713806
1761131535875780600,4.888780517578125,0.6862307190895081,0.6191883087158203,0.9716575145721436
1761131535885780500,4.898780517578125,0.6721808314323425,0.45669811964035034,1.164080023765564
1761131535895780600,4.908780517578125,0.6080399751663208,0.23923009634017944,1.2795336246490479
1761131535905780500,4.918780517578125,0.496862530708313,0.002825251780450344,1.3058007955551147
1761131535915780600,4.928780517578125,0.344757080078125,-0.20120373368263245,1.2459360361099243
1761131535925780500,4.938780517578125,0.1724930703639984,-0.3392592966556549,1.109713077545166
1761131535935780600,4.948780517578125,-0.007712173741310835,-0.396680623292923,0.9075166583061218
1761131535945780500,4.958780517578125,-0.17386752367019653,-0.36796995997428894,0.6668357849121094
1761131535955780600,4.968780517578125,-0.29359710216522217,-0.2341904640197754,0.4267657399177551
1761131535965781500,4.978781494140625,-0.36140313744544983,-0.0032834007870405912,0.23739750683307648
1761131535975781400,4.988781494140625,-0.4231005311012268,0.4078288972377777,0.06330090761184692
1761131535985781500,4.998781494140625,-0.46036332845687866,0.6430120468139648,0.008323038928210735
1761131535995781400,5.008781494140625,-0.48174360394477844,0.8219955563545227,0.009544769302010536
1761131536005781500,5.018781494140625,-0.48113274574279785,0.93805992603302,0.05535966157913208
1761131536015781400,5.028781494140625,-0.4542546570301056,0.9802096486091614,0.13782647252082825
1761131536025781500,5.038781494140625,-0.4127158224582672,0.9557750225067139,0.23373231291770935
1761131536035781400,5.048781494140625,-0.3742313086986542,0.8745299577713013,0.32414036989212036
1761131536045781500,5.058781494140625,-0.33941200375556946,0.748691737651825,0.39622247219085693
1761131536055781400,5.068781494140625,-0.30947959423065186,0.5923101902008057,0.4395939111709595
1761131536065780500,5.078780517578125,-0.28932106494903564,0.4029420018196106,0.45181119441986084
1761131536075780600,5.088780517578125,-0.2654972970485687,0.17692184448242188,0.4322635233402252
1761131536085780500,5.098780517578125,-0.23373231291770935,-0.03443752974271774,0.3937790095806122
1761131536095780600,5.108780517578125,-0.19952386617660522,-0.18654297292232513,0.33880114555358887
1761131536105780500,5.118780517578125,-0.17692184448242188,-0.283059686422348,0.2624429762363434
1761131536115780600,5.128780517578125,-0.17142406105995178,-0.35208746790885925,0.16836974024772644
1761131536125780500,5.138780517578125,-0.17386752367019653,-0.41806089878082275,0.06085744872689247
1761131536135780600,5.148780517578125,-0.1750892549753189,-0.47853657603263855,-0.0619264654815197
1761131536145780500,5.158780517578125,-0.17325665056705475,-0.5359578728675842,-0.1932624876499176
1761131536155780600,5.168780517578125,-0.16836974024772644,-0.5823836326599121,-0.32154420018196106
1761131536165781500,5.178781494140625,-0.1598176211118698,-0.5915466547012329,-0.42905646562576294
1761131536175781400,5.188781494140625,-0.15431983768939972,-0.5481752157211304,-0.49930599331855774
1761131536185781500,5.198781494140625,-0.1506546437740326,-0.42905646562576294,-0.5261840224266052
1761131536195781400,5.208781494140625,-0.14271339774131775,-0.22747094929218292,-0.5048037767410278
1761131536205781500,5.218781494140625,-0.1201113760471344,0.13904820382595062,-0.39790233969688416
1761131536215781400,5.228781494140625,-0.10545061528682709,0.32902729511260986,-0.29588785767555237
1761131536225781500,5.238781494140625,-0.08773551881313324,0.4121049642562866,-0.19570595026016235
1761131536235781400,5.248781494140625,-0.056581392884254456,0.39561161398887634,-0.11507174372673035
1761131536245781500,5.258781494140625,-0.02054034359753132,0.3119230568408966,-0.060093868523836136
1761131536255781400,5.268781494140625,0.01488984003663063,0.15309810638427734,-0.04237877577543259
1761131536265780500,5.278780517578125,0.05826127156615257,-0.072311170399189,-0.057039543986320496
1761131536275780600,5.288780517578125,0.11446087807416916,-0.29222264885902405,-0.10163270682096481
1761131536285780500,5.298780517578125,0.18654297292232513,-0.40340012311935425,-0.1584431678056717
1761131536295780600,5.308780517578125,0.25679248571395874,-0.32643112540245056,-0.20975585281848907
1761131536305780500,5.318780517578125,0.30199649930000305,-0.10651962459087372,-0.2494620978832245
1761131536315780600,5.328780517578125,0.3191007375717163,0.1201113760471344,-0.2934443950653076
1761131536325780500,5.338780517578125,0.3245985209941864,0.2606103718280792,-0.33742669224739075
1761131536335780600,5.348780517578125,0.3441462218761444,0.3479641079902649,-0.3588069677352905
1761131536345780500,5.358780517578125,0.3746894598007202,0.4084397852420807,-0.354530930519104
1761131536355780600,5.368780517578125,0.39790233969688416,0.3479641079902649,-0.3502548635005951
1761131536365781500,5.378781494140625,0.4266130030155182,0.1152244582772255,-0.3606395721435547
1761131536375781400,5.388781494140625,0.4828126132488251,-0.17432567477226257,-0.35758525133132935
1761131536385781500,5.398781494140625,0.5787184834480286,-0.334983229637146,-0.3001639246940613
1761131536395781400,5.408781494140625,0.657520055770874,-0.3136029541492462,-0.17737999558448792
1761131536405781500,5.418781494140625,0.6984480619430542,-0.09002626687288284,-0.011835514567792416
1761131536415781400,5.428781494140625,0.7131088376045227,0.2807689309120178,0.19402606785297394
1761131536425781500,5.438781494140625,0.6880633234977722,0.644233763217926,0.4041637182235718
1761131536435781400,5.448781494140625,0.6214790344238281,0.8665887117385864,0.6197991371154785
1761131536445781500,5.458781494140625,0.4803691506385803,0.7841218709945679,0.663170576095581
1761131536455781400,5.468781494140625,0.38263070583343506,0.5648213028907776,0.6307947039604187
1761131536465780500,5.478780517578125,0.2738966941833496,0.2673299014568329,0.5263367891311646
1761131536475780600,5.488780517578125,0.16516269743442535,-0.0020616701804101467,0.38950294256210327
1761131536485780500,5.498780517578125,0.07841982692480087,-0.12484558671712875,0.2813797891139984
1761131536495780600,5.508780517578125,0.0069485921412706375,-0.10835222154855728,0.2215150147676468
1761131536505747200,5.518747314453125,-0.06146831437945366,-0.0032834007870405912,0.20685423910617828
1761131536515713800,5.5287138671875,-0.12316570430994034,0.14943291246891022,0.22884538769721985
1761131536525680600,5.5386806640625,-0.17142406105995178,0.33391422033309937,0.29970577359199524
1761131536535647200,5.548647216796875,-0.20807597041130066,0.5232824683189392,0.4133267104625702
1761131536545613800,5.55861376953125,-0.2459496259689331,0.6821073889732361,0.5519931316375732
1761131536555580700,5.56858056640625,-0.30520355701446533,0.7731263041496277,0.6949355602264404
1761131536565548000,5.578548095703125,-0.382783442735672,0.8067238926887512,0.8287150859832764
1761131536575514600,5.5885146484375,-0.46219590306282043,0.7945066094398499,0.9533315896987915
1761131536585481500,5.5984814453125,-0.5336671471595764,0.7297548651695251,1.0663416385650635
1761131536595448000,5.608447998046875,-0.586201548576355,0.6277403831481934,1.1701887845993042
1761131536605414700,5.61841455078125,-0.6259077787399292,0.5330562591552734,1.2654837369918823
1761131536615381500,5.628381591796875,-0.6717227101325989,0.4542546570301056,1.3375657796859741
1761131536625348400,5.638348388671875,-0.7315874695777893,0.3589596748352051,1.3687199354171753
1761131536635315000,5.64831494140625,-0.7993935346603394,0.272827684879303,1.3607786893844604
1761131536645281800,5.65828173828125,-0.8714756369590759,0.190360888838768,1.3070225715637207
1761131536655248400,5.668248291015625,-0.9405034184455872,0.11400272697210312,1.2190579175949097
1761131536665214200,5.678214111328125,-1.003422498703003,0.0339793786406517,1.109713077545166
1761131536675181000,5.68818115234375,-1.0632872581481934,-0.014278975315392017,0.9918161034584045
1761131536685147600,5.698147705078125,-1.135980248451233,-0.07658722996711731,0.8769733905792236
1761131536695114200,5.7081142578125,-1.2251665592193604,-0.20242546498775482,0.767017662525177
1761131536705080800,5.718080810546875,-1.3247376680374146,-0.39729148149490356,0.6491206884384155
1761131536715047700,5.728047607421875,-1.443245530128479,-0.8248971700668335,0.45547640323638916
1761131536725014300,5.73801416015625,-1.4768431186676025,-1.1718685626983643,0.3180317282676697
1761131536734980900,5.74798095703125,-1.478064775466919,-1.5182292461395264,0.1854739636182785
1761131536744947700,5.75794775390625,-1.4621822834014893,-1.8132771253585815,0.0645226389169693
1761131536754914300,5.767914306640625,-1.4511867761611938,-2.0521254539489746,-0.04482223838567734
1761131536764882000,5.7778818359375,-1.462793231010437,-2.2335524559020996,-0.13889548182487488
1761131536774848500,5.7878486328125,-1.4957798719406128,-2.345951557159424,-0.21769709885120392
1761131536784815000,5.797815185546875,-1.5373187065124512,-2.4259748458862305,-0.2726749777793884
1761131536794782000,5.807781982421875,-1.5984052419662476,-2.4180335998535156,-0.29772046208381653
1761131536804781800,5.81778173828125,-1.69858717918396,-2.240272045135498,-0.292833536863327
1761131536814782000,5.827781982421875,-1.8665751218795776,-1.8328248262405396,-0.2598468065261841
1761131536824781800,5.83778173828125,-2.103590726852417,-1.295263409614563,-0.23113614320755005
1761131536834782000,5.847781982421875,-2.3974170684814453,-0.8810967803001404,-0.24579690396785736
1761131536844781800,5.85778173828125,-2.7016279697418213,-0.7937430143356323,-0.3191007375717163
1761131536854782000,5.867781982421875,-2.9343676567077637,-1.0698541402816772,-0.47364965081214905
1761131536864781000,5.877781005859375,-3.0540971755981445,-1.5951982736587524,-0.7216609120368958
1761131536874781000,5.887781005859375,-3.0400471687316895,-2.276923894882202,-1.0429760217666626
1761131536884781000,5.897781005859375,-2.8671724796295166,-2.8279242515563965,-1.3667346239089966
1761131536894781000,5.907781005859375,-2.6154959201812744,-3.061274766921997,-1.6153568029403687
1761131536904781000,5.917781005859375,-2.3583216667175293,-2.986138343811035,-1.7772361040115356
1761131536914781000,5.927781005859375,-2.081599712371826,-2.5939629077911377,-1.8248835802078247
1761131536924780800,5.93778076171875,-1.822592854499817,-1.9837085008621216,-1.7582992315292358
1761131536934780700,5.94778076171875,-1.6588809490203857,-1.4107168912887573,-1.6318501234054565
1761131536944780800,5.95778076171875,-1.6637678146362305,-1.0136544704437256,-1.4999032020568848
1761131536954780700,5.96778076171875,-1.8555794954299927,-0.4815908968448639,-1.2915982007980347
1761131536964781600,5.977781494140625,-2.0455586910247803,-0.17493653297424316,-1.1083385944366455
1761131536974781400,5.987781494140625,-2.242868185043335,0.04680754989385605,-0.8957574963569641
1761131536984781600,5.997781494140625,-2.3986387252807617,0.20502164959907532,-0.6508005857467651
1761131536994781400,6.007781494140625,-2.4811055660247803,0.3161991238594055,-0.38751763105392456
1761131537004781600,6.017781494140625,-2.4841599464416504,0.3687335252761841,-0.12118039280176163
1761131537014781400,6.027781494140625,-2.4316253662109375,0.3522401750087738,0.12744176387786865
1761131537024781600,6.037781494140625,-2.363208532333374,0.2758820056915283,0.3479641079902649
1761131537034781400,6.047781494140625,-2.3082306385040283,0.16348281502723694,0.5342780351638794
1761131537044781600,6.057781494140625,-2.281963586807251,0.03703370690345764,0.6888269186019897
1761131537054781400,6.067781494140625,-2.2776873111724854,-0.07597636431455612,0.815886914730072
1761131537064780500,6.077780517578125,-2.2923481464385986,-0.18409951031208038,0.909960150718689
1761131537074780700,6.08778076171875,-2.3088414669036865,-0.2946661114692688,0.9710466861724854
1761131537084780500,6.097780517578125,-2.3289999961853027,-0.4040110111236572,0.9942595362663269
1761131537094780700,6.10778076171875,-2.3399956226348877,-0.4901430010795593,0.9826530814170837
1761131537104780500,6.117780517578125,-2.343050003051758,-0.5292384028434753,0.9435577392578125
1761131537114780700,6.12778076171875,-2.355267286300659,-0.534736156463623,0.8800277709960938
1761131537124780500,6.137780517578125,-2.388253927230835,-0.5414556860923767,0.7993935346603394
1761131537134780400,6.147780517578125,-2.4340689182281494,-0.5658903121948242,0.7102072238922119
1761131537144780500,6.157780517578125,-2.4933228492736816,-0.5982661247253418,0.6136904954910278
1761131537154780400,6.167780517578125,-2.5599071979522705,-0.658130943775177,0.5043455958366394
1761131537164781300,6.17778125,-2.639319658279419,-0.7277695536613464,0.3815616965293884
1761131537174781400,6.187781494140625,-2.7278950214385986,-0.7796931266784668,0.2410627007484436
1761131537184781300,6.19778125,-2.8647289276123047,-0.8865945339202881,-0.019776761531829834
1761131537194781400,6.207781494140625,-2.9258153438568115,-0.9452376365661621,-0.2134210467338562
1761131537204781300,6.21778125,-2.9447522163391113,-0.9537897109985352,-0.40706533193588257
1761131537214781400,6.227781494140625,-2.9227612018585205,-0.9281333684921265,-0.5842162370681763
1761131537224781600,6.237781494140625,-2.8641180992126465,-0.8908706307411194,-0.7241044044494629
1761131537234781400,6.247781494140625,-2.7633252143859863,-0.7986299395561218,-0.7986299395561218
1761131537244781600,6.257781494140625,-2.625269651412964,-0.6074291467666626,-0.7955756187438965
1761131537254781400,6.267781494140625,-2.447507858276367,-0.3453679382801056,-0.7131088376045227
1761131537264780500,6.277780517578125,-2.2251529693603516,-0.11507174372673035,-0.5732206702232361
1761131537274780700,6.28778076171875,-1.9386571645736694,0.04375322163105011,-0.38690677285194397
1761131537284780500,6.297780517578125,-1.602681279182434,0.14821118116378784,-0.16149750351905823
1761131537294780700,6.30778076171875,-1.2709815502166748,0.1750892549753189,0.09262244403362274
1761131537304780500,6.317780517578125,-0.9942595362663269,0.09262244403362274,0.3418554663658142
1761131537314780700,6.32778076171875,-0.787176251411438,-0.06986771523952484,0.5519931316375732
1761131537324780500,6.337780517578125,-0.6320164799690247,-0.23724478483200073,0.7095963358879089
1761131537334780700,6.34778076171875,-0.5287802219390869,-0.3710242807865143,0.8128325939178467
1761131537344780500,6.357780517578125,-0.47563496232032776,-0.48403435945510864,0.8574257493019104
1761131537354780700,6.36778076171875,-0.47196975350379944,-0.5884923338890076,0.8360454440116882
1761131537364781300,6.37778125,-0.5092325210571289,-0.6569092273712158,0.7535786628723145
1761131537374781400,6.387781494140625,-0.5703190565109253,-0.6856198906898499,0.615523099899292
1761131537384781300,6.39778125,-0.6466771960258484,-0.677067756652832,0.4279874563217163
1761131537394781400,6.407781494140625,-0.7279223203659058,-0.6062073707580566,0.22029328346252441
1761131537404781300,6.41778125,-0.7981718182563782,-0.49319732189178467,0.021151209250092506
1761131537414781400,6.427781494140625,-0.8592583537101746,-0.3508657217025757,-0.20670153200626373
1761131537424780500,6.437780517578125,-0.8507062196731567,-0.32215505838394165,-0.30077478289604187
1761131537434780700,6.44778076171875,-0.806113064289093,-0.32276591658592224,-0.3392592966556549
1761131537444780500,6.457780517578125,-0.7315874695777893,-0.3294854462146759,-0.3184898793697357
1761131537454780700,6.46778076171875,-0.6478989720344543,-0.32154420018196106,-0.2433534413576126
1761131537464779800,6.47777978515625,-0.5715407729148865,-0.2537381649017334,-0.12056952714920044
1761131537474780000,6.48777978515625,-0.5183955430984497,-0.1126282811164856,0.02848159149289131
1761131537484779800,6.49777978515625,-0.4988478422164917,0.041920628398656845,0.17386752367019653
1761131537494779600,6.507779541015625,-0.5110651254653931,0.15431983768939972,0.2832123935222626
1761131537504779800,6.51777978515625,-0.5226715803146362,0.16653713583946228,0.3461315333843231
1761131537514779600,6.527779541015625,-0.5251150131225586,-0.03810271993279457,0.34979671239852905
1761131537524779800,6.53777978515625,-0.5232824683189392,-0.5408447980880737,0.2874884605407715
1761131537534779600,6.547779541015625,-0.5037347674369812,-1.2176835536956787,0.17875444889068604
1761131537544779800,6.55777978515625,-0.4481460154056549,-1.7717382907867432,0.07246389240026474
1761131537554779600,6.567779541015625,-0.4041637182235718,-2.0686187744140625,-0.016111571341753006
1761131537564780500,6.577780517578125,-0.41454842686653137,-2.139479160308838,-0.07047858089208603
1761131537574780400,6.587780517578125,-0.4493677318096161,-1.941558837890625,-0.07353290170431137
1761131537584780500,6.597780517578125,-0.49640437960624695,-1.4815772771835327,-0.017333300784230232
1761131537594780400,6.607780517578125,-0.5581017732620239,-0.8908706307411194,0.07612907886505127
1761131537604780500,6.617780517578125,-0.6399577260017395,-0.32704198360443115,0.1799761801958084
1761131537614780400,6.627780517578125,-0.7419722080230713,0.05535966157913208,0.2661081850528717
1761131537624780500,6.637780517578125,-0.8195520639419556,0.22701279819011688,0.3155882656574249
1761131537634780700,6.64778076171875,-0.870864748954773,0.2166280895471573,0.33391422033309937
1761131537644780500,6.657780517578125,-0.9075166583061218,-0.152334526181221,0.32414036989212036
1761131537654780700,6.66778076171875,-0.8781951665878296,-0.4614323377609253,0.3265838325023651
1761131537664779800,6.67777978515625,-0.8183303475379944,-0.6807329654693604,0.33391422033309937
1761131537674780000,6.68777978515625,-0.7462482452392578,-0.7467064261436462,0.34063372015953064
1761131537684779800,6.69777978515625,-0.6967681646347046,-0.6953937411308289,0.34918585419654846
1761131537694780000,6.70777978515625,-0.6705009937286377,-0.6208681464195251,0.35468363761901855
1761131537704779800,6.71777978515625,-0.6680575013160706,-0.5707772374153137,0.36567920446395874
1761131537714780000,6.72777978515625,-0.6766096353530884,-0.554283857345581,0.3974441885948181
1761131537724780500,6.737780517578125,-0.6888269186019897,-0.5316818356513977,0.45547640323638916
1761131537734780700,6.74778076171875,-0.7065420150756836,-0.5133558511734009,0.5232824683189392
1761131537744780500,6.757780517578125,-0.7401396036148071,-0.506636381149292,0.5794820189476013
1761131537754780700,6.76778076171875,-0.787176251411438,-0.515799343585968,0.606360137462616
1761131537764781600,6.777781494140625,-0.8336020112037659,-0.5377904772758484,0.6033058166503906
1761131537774781400,6.787781494140625,-0.8751408457756042,-0.5616142153739929,0.5733733773231506
1761131537784781600,6.797781494140625,-0.909349262714386,-0.5665011405944824,0.5306128263473511
1761131537794781400,6.807781494140625,-0.9453903436660767,-0.5658903121948242,0.4939609169960022
1761131537804781600,6.817781494140625,-0.9722684025764465,-0.545120894908905,0.48052188754081726
1761131537814781400,6.827781494140625,-0.9881508946418762,-0.4956407845020294,0.49701523780822754
1761131537824781600,6.837781494140625,-0.9948704242706299,-0.42233696579933167,0.5385540723800659
1761131537834781400,6.847781494140625,-0.9948704242706299,-0.3502548635005951,0.5880341529846191
1761131537844781600,6.857781494140625,-0.9936487078666687,-0.32215505838394165,0.6191883087158203
1761131537854781400,6.867781494140625,-0.9985355734825134,-0.3661373555660248,0.615523099899292
1761131537864780800,6.87778076171875,-1.015028953552246,-0.4614323377609253,0.5849798321723938
1761131537874780700,6.88778076171875,-1.0394635200500488,-0.6336963176727295,0.5220606923103333
1761131537884780800,6.89778076171875,-1.0516809225082397,-0.7729735970497131,0.47013717889785767
1761131537894780700,6.90778076171875,-1.0431287288665771,-0.8743772506713867,0.4231005311012268
1761131537904780800,6.91778076171875,-1.0272462368011475,-0.8914814591407776,0.38522690534591675
1761131537914780700,6.92778076171875,-1.0223593711853027,-0.848720908164978,0.34552064538002014
1761131537924780500,6.937780517578125,-1.0266354084014893,-0.82917320728302,0.2929862439632416
1761131537934780700,6.94778076171875,-1.0351874828338623,-0.8407796621322632,0.23495404422283173
1761131537944780500,6.957780517578125,-1.0388526916503906,-0.8615490794181824,0.17264579236507416
1761131537954780700,6.96778076171875,-1.041296124458313,-0.9385181069374084,0.0999528244137764
1761131537964781600,6.977781494140625,-1.021748423576355,-1.0460304021835327,0.03153591975569725
1761131537974781400,6.987781494140625,-0.9686031937599182,-1.1058951616287231,-0.005115996580570936
1761131537984781600,6.997781494140625,-0.8928559422492981,-1.0380891561508179,-0.00022907447419129312
1761131537994781400,7.007781494140625,-0.8128325939178467,-0.8566621541976929,0.03703370690345764
1761131538004781600,7.017781494140625,-0.7541894912719727,-0.619035542011261,0.08162686973810196
1761131538014781400,7.027781494140625,-0.7444156408309937,-0.4412737786769867,0.0944550409913063
1761131538024781600,7.037781494140625,-0.7694611549377441,-0.4052327275276184,0.06635523587465286
1761131538034781400,7.047781494140625,-0.7902305722236633,-0.46387580037117004,-0.00022907447419129312
1761131538044781600,7.057781494140625,-0.815886914730072,-0.5836054086685181,-0.10468703508377075
1761131538054781400,7.067781494140625,-0.8519279360771179,-0.7436521053314209,-0.24152085185050964
1761131538064780500,7.077780517578125,-0.8604800701141357,-0.8303949236869812,-0.3765220642089844
1761131538074780700,7.08778076171875,-0.8000044226646423,-0.7540367841720581,-0.45959973335266113
1761131538084780500,7.097780517578125,-0.7053202986717224,-0.6080399751663208,-0.487088680267334
1761131538094780700,7.10778076171875,-0.6014732122421265,-0.4162282943725586,-0.4614323377609253
1761131538104780500,7.117780517578125,-0.5012912750244141,-0.24274258315563202,-0.3789655268192291
1761131538114780700,7.12778076171875,-0.3259729743003845,-0.060704734176397324,-0.14683672785758972
1761131538124780500,7.137780517578125,-0.1860848218202591,0.11766792088747025,0.07796167582273483
1761131538134780400,7.147780517578125,-0.08345946669578552,0.30337095260620117,0.3180317282676697
1761131538144780500,7.157780517578125,-0.07307475805282593,0.4279874563217163,0.5043455958366394
1761131538154780700,7.16778076171875,-0.14210252463817596,0.4591415822505951,0.6045275330543518
1761131538164781300,7.17778125,-0.24533875286579132,0.40538543462753296,0.6375142335891724
1761131538174781400,7.187781494140625,-0.36629006266593933,0.3131448030471802,0.5996406078338623
1761131538184781300,7.19778125,-0.4835762083530426,0.1958586722612381,0.47563496232032776
1761131538194781400,7.207781494140625,-0.5654321312904358,0.04253149405121803,0.2526691257953644
1761131538204781300,7.21778125,-0.5874232649803162,-0.102243572473526,-0.04604396969079971
1761131538214781400,7.227781494140625,-0.5440518856048584,-0.20914499461650848,-0.3716351389884949
1761131538224781300,7.23778125,-0.4194353520870209,-0.25557073950767517,-0.6642395853996277
1761131538234781400,7.247781494140625,-0.2563343346118927,-0.25618159770965576,-0.8792641758918762
1761131538244781300,7.25778125,-0.10239628702402115,-0.25740334391593933,-1.0234283208847046
1761131538254781400,7.267781494140625,0.016722436994314194,-0.2745075821876526,-1.0881800651550293
1761131538264780500,7.277780517578125,0.09613491594791412,-0.2488512247800827,-1.0478630065917969
1761131538274780400,7.287780517578125,0.12973250448703766,-0.14622586965560913,-0.9067531228065491
1761131538284780500,7.297780517578125,0.11934779584407806,-0.010002918541431427,-0.69661545753479
1761131538294780400,7.307780517578125,0.06742425262928009,0.13416127860546112,-0.4516584873199463
1761131538304780500,7.317780517578125,-0.019318614155054092,0.23189972341060638,-0.20242546498775482
1761131538314780400,7.327780517578125,-0.12072224169969559,0.2471713423728943,0.02054034359753132
1761131538324780500,7.337780517578125,-0.19769126176834106,0.21357376873493195,0.21418462693691254
1761131538334780400,7.347780517578125,-0.23434318602085114,0.14271339774131775,0.3687335252761841
1761131538344780500,7.357780517578125,-0.24472789466381073,0.07735081017017365,0.49762609601020813
1761131538354780400,7.367780517578125,-0.2575560510158539,0.06879869848489761,0.5171737670898438
1761131538364781300,7.37778125,-0.27832546830177307,0.0749073475599289,0.4945717751979828
1761131538374781400,7.387781494140625,-0.3107013404369354,0.05474879592657089,0.4267657399177551
1761131538384781300,7.39778125,-0.33391422033309937,0.012599095702171326,0.32902729511260986
1761131538394781400,7.407781494140625,-0.34918585419654846,-0.02038762718439102,0.2105194330215454
1761131538404781300,7.41778125,-0.36140313744544983,-0.030772335827350616,0.09140071272850037
1761131538414781400,7.427781494140625,-0.3736204504966736,-0.0069485921412706375,-0.011835514567792416
1761131538424781300,7.43778125,-0.3925572633743286,0.0443640872836113,-0.09124799817800522
1761131538434781400,7.447781494140625,-0.40966150164604187,0.11094839870929718,-0.13889548182487488
1761131538444781300,7.45778125,-0.4029420018196106,0.24350616335868835,-0.13156510889530182
1761131538454781400,7.467781494140625,-0.37484219670295715,0.4273765981197357,-0.07658722996711731
1761131538464780500,7.477780517578125,-0.33391422033309937,0.5642104148864746,-0.000839939690195024
1761131538474780700,7.48778076171875,-0.28443413972854614,0.5947536826133728,0.0694095641374588
1761131538484780500,7.497780517578125,-0.2160172164440155,0.5440518856048584,0.130496084690094
1761131538494780400,7.507780517578125,-0.13416127860546112,0.4597524404525757,0.1702023297548294
1761131538504780500,7.517780517578125,-0.053527068346738815,0.3461315333843231,0.18975001573562622
1761131538514780400,7.527780517578125,0.014278975315392017,0.19463694095611572,0.18303050100803375
1761131538524780500,7.537780517578125,0.07292203605175018,0.03153591975569725,0.15187637507915497
1761131538534780400,7.547780517578125,0.12179125845432281,-0.0918588638305664,0.10178542137145996
1761131538544780500,7.557780517578125,0.16210836172103882,-0.16394096612930298,0.035811975598335266
1761131538554780400,7.567780517578125,0.19448421895503998,-0.1431715488433838,-0.024663684889674187
1761131538564781300,7.57778125,0.21464277803897858,-0.008170322515070438,-0.07536549866199493
1761131538574781400,7.587781494140625,0.18959729373455048,0.23434318602085114,-0.18165604770183563
1761131538584781300,7.59778125,0.13523028790950775,0.3107013404369354,-0.2848922908306122
1761131538594781400,7.607781494140625,0.07108944654464722,0.29481884837150574,-0.3954588770866394
1761131538604781300,7.61778125,0.018555032089352608,0.20929770171642303,-0.49991685152053833
1761131538614781400,7.627781494140625,-0.002825251780450344,0.1347721517086029,-0.5658903121948242
1761131538624781300,7.63778125,0.019165897741913795,0.10850493609905243,-0.5774967074394226
1761131538634781400,7.647781494140625,0.060704734176397324,0.10606148093938828,-0.545120894908905
1761131538644781300,7.65778125,0.11629346758127213,0.13355042040348053,-0.4724279046058655
1761131538654781400,7.667781494140625,0.2134210467338562,0.25022566318511963,-0.32826370000839233
1761131538664780500,7.677780517578125,0.34170275926589966,0.443869948387146,-0.122402124106884
1761131538674780400,7.687780517578125,0.444938987493515,0.577038586139679,0.08895725011825562
1761131538684780500,7.697780517578125,0.5017494559288025,0.5678756237030029,0.2618321180343628
1761131538694780400,7.707780517578125,0.5267949104309082,0.46097418665885925,0.37972912192344666
1761131538704780300,7.7177802734375,0.5432882905006409,0.2917645275592804,0.4481460154056549
1761131538714780400,7.727780517578125,0.544510006904602,0.08834638446569443,0.45486554503440857
1761131538724780300,7.7377802734375,0.5225188732147217,-0.1382846236228943,0.3876703679561615
1761131538734780400,7.747780517578125,0.49869510531425476,-0.3392592966556549,0.2606103718280792
1761131538744780300,7.7577802734375,0.4913647174835205,-0.4669301211833954,0.1152244582772255
1761131538754780400,7.767780517578125,0.5005277395248413,-0.515799343585968,-0.019776761531829834
1761131538764781300,7.77778125,0.5005277395248413,-0.545120894908905,-0.142560675740242
1761131538774781200,7.78778125,0.49869510531425476,-0.554894745349884,-0.24213171005249023
1761131538784781300,7.79778125,0.5133558511734009,-0.5206862688064575,-0.2897791862487793
1761131538794781200,7.80778125,0.5274057984352112,-0.42722389101982117,-0.28244882822036743
1761131538804781300,7.81778125,0.49380818009376526,-0.19448421895503998,-0.1834886521100998
1761131538814781200,7.82778125,0.42233696579933167,-0.06620252132415771,-0.08513934165239334
1761131538824781300,7.83778125,0.3514765799045563,0.0541379339993,0.0339793786406517
1761131538834781200,7.84778125,0.30138564109802246,0.1964695304632187,0.16836974024772644
1761131538844781300,7.85778125,0.2592359483242035,0.32963815331459045,0.292375385761261
1761131538854781200,7.86778125,0.21525363624095917,0.40599632263183594,0.3772856593132019
1761131538864780500,7.877780517578125,0.18165604770183563,0.4340961277484894,0.4243222773075104
1761131538874780700,7.88778076171875,0.16638441383838654,0.42065706849098206,0.4377613067626953
1761131538884780500,7.897780517578125,0.16638441383838654,0.37606391310691833,0.42615485191345215
1761131538894780700,7.90778076171875,0.18165604770183563,0.2978731691837311,0.3931681513786316
1761131538904780500,7.917780517578125,0.21525363624095917,0.19280433654785156,0.34002286195755005
1761131538914780700,7.92778076171875,0.25251641869544983,0.06879869848489761,0.2703842222690582
1761131538924780500,7.937780517578125,0.29588785767555237,-0.06986771523952484,0.1860848218202591
1761131538934780700,7.94778076171875,0.34170275926589966,-0.19692768156528473,0.09873109310865402
1761131538944780500,7.957780517578125,0.37774381041526794,-0.27206411957740784,0.010155634954571724
1761131538954780700,7.96778076171875,0.38324159383773804,-0.3184898793697357,-0.07292203605175018
1761131538964781600,7.977781494140625,0.36796995997428894,-0.33681583404541016,-0.13889548182487488
1761131538974781700,7.98778173828125,0.33315062522888184,-0.3184898793697357,-0.1786017268896103
1761131538984781600,7.997781494140625,0.29161179065704346,-0.30260735750198364,-0.19142989814281464
1761131538994781700,8.00778173828125,0.264122873544693,-0.29772046208381653,-0.16699528694152832
1761131539004781600,8.017781494140625,0.2586250603199005,-0.29100093245506287,-0.09552405029535294
1761131539014781700,8.02778173828125,0.2677880525588989,-0.2836705446243286,-0.000839939690195024
1761131539024781600,8.037781494140624,0.27695104479789734,-0.28733575344085693,0.1048397496342659
1761131539034781700,8.04778173828125,0.2897791862487793,-0.31787899136543274,0.2520582675933838
1761131539044781600,8.057781494140626,0.2891683280467987,-0.34231361746788025,0.3259729743003845
1761131539054781700,8.06778173828125,0.2781727612018585,-0.3258202373981476,0.382172554731369
1761131539064780800,8.07778076171875,0.25740334391593933,-0.2604576647281647,0.4237114191055298
1761131539074780700,8.08778076171875,0.22563834488391876,-0.17066048085689545,0.44509169459342957
1761131539084780800,8.09778076171875,0.192651629447937,-0.07353290170431137,0.44020476937294006
1761131539094780700,8.10778076171875,0.1724930703639984,-0.010002918541431427,0.40477457642555237
1761131539104780800,8.11778076171875,0.18226692080497742,0.023594669997692108,0.36079227924346924
1761131539114780700,8.12778076171875,0.22136229276657104,0.08284860104322433,0.32475122809410095
1761131539124780500,8.137780517578125,0.2726749777793884,0.17692184448242188,0.2978731691837311
1761131539134780700,8.14778076171875,0.3300963044166565,0.27404943108558655,0.27343854308128357
1761131539144780500,8.157780517578125,0.39790233969688416,0.32047519087791443,0.2410627007484436
1761131539154780700,8.16778076171875,0.477314829826355,0.282601535320282,0.1811978965997696
1761131539164781300,8.17778125,0.5732206702232361,0.19830213487148285,0.09506590664386749
1761131539174781400,8.187781494140625,0.6856198906898499,0.08407033234834671,0.0016035212902352214
1761131539184781300,8.19778125,0.801073431968689,-0.039324451237916946,-0.08819366991519928
1761131539194781400,8.207781494140624,0.9122508764266968,-0.12056952714920044,-0.14622586965560913
1761131539204781300,8.21778125,1.0258718729019165,-0.0973566472530365,-0.12973250448703766
1761131539214781400,8.227781494140626,1.13216233253479,0.02848159149289131,-0.03565925732254982
1761131539224781300,8.23778125,1.2207378149032593,0.2312888503074646,0.12744176387786865
1761131539234781400,8.247781494140625,1.2915982007980347,0.46158504486083984,0.3412446081638336
1761131539244781300,8.25778125,1.3557389974594116,0.6277403831481934,0.5813146233558655
1761131539254781400,8.267781494140625,1.4198799133300781,0.7352526783943176,0.8268824815750122
1761131539264780500,8.277780517578124,1.4650839567184448,0.757243812084198,1.0431287288665771
1761131539274780400,8.287780517578126,1.466916561126709,0.6161339282989502,1.2135602235794067
1761131539284780500,8.297780517578126,1.4198799133300781,0.47135889530181885,1.2215014696121216
1761131539294780400,8.307780517578125,1.331915259361267,0.3082578778266907,1.1420888900756836
1761131539304780500,8.317780517578125,1.2146291732788086,0.15920674800872803,0.9954812526702881
1761131539314780400,8.327780517578125,1.1065059900283813,0.06085744872689247,0.8024478554725647
1761131539324780500,8.337780517578125,1.045419454574585,0.06085744872689247,0.605749249458313
1761131539334780400,8.347780517578125,1.0405325889587402,0.180587038397789,0.43470698595046997
1761131539344780500,8.357780517578124,1.0839040279388428,0.40538543462753296,0.3125339448451996
1761131539354780400,8.367780517578124,1.1535426378250122,0.7230353951454163,0.2661081850528717
1761131539364781300,8.37778125,1.2244030237197876,1.0797806978225708,0.28993192315101624
1761131539374781400,8.387781494140626,1.2708288431167603,1.3894894123077393,0.363235741853714
1761131539384781300,8.39778125,1.2897655963897705,1.592907428741455,0.47258061170578003
1761131539394781400,8.407781494140625,1.2909873723983765,1.6765960454940796,0.5971971154212952
1761131539404781300,8.41778125,1.276937484741211,1.682093858718872,0.7144832611083984
1761131539414781400,8.427781494140625,1.2360094785690308,1.6326137781143188,0.7975609302520752
1761131539424781300,8.43778125,1.1816424131393433,1.5544229745864868,0.8360454440116882
1761131539434781200,8.44778125,1.1388819217681885,1.4383585453033447,0.8262715935707092
1761131539444781300,8.45778125,1.1309406757354736,1.2667053937911987,0.776791512966156
1761131539454781200,8.46778125,1.1682034730911255,1.0761154890060425,0.7077637314796448
1761131539464780500,8.477780517578125,1.2408963441848755,0.9453903436660767,0.6277403831481934
1761131539474780400,8.487780517578125,1.3190871477127075,0.8812494874000549,0.5471062064170837
1761131539484780300,8.4977802734375,1.3881149291992188,0.861090898513794,0.4799109995365143
1761131539494780400,8.507780517578125,1.4443144798278809,0.8720865249633789,0.43592870235443115
1761131539504780300,8.5177802734375,1.4986815452575684,0.9130144715309143,0.4188244938850403
1761131539514780400,8.527780517578124,1.5261704921722412,0.9606619477272034,0.4322635233402252
1761131539524780300,8.5377802734375,1.5499942302703857,1.0223593711853027,0.4573090076446533
1761131539534780400,8.547780517578126,1.5670983791351318,1.0871111154556274,0.47685667872428894
1761131539544780300,8.5577802734375,1.5872570276260376,1.1439214944839478,0.48174360394477844
1761131539554780400,8.567780517578125,1.6153568029403687,1.2037863731384277,0.47258061170578003
1761131539564781300,8.57778125,1.655673861503601,1.3039681911468506,0.4628067910671234
1761131539574781200,8.58778125,1.704543113708496,1.4426345825195312,0.453643798828125
1761131539584781300,8.59778125,1.7442493438720703,1.5672510862350464,0.44142648577690125
1761131539594781200,8.60778125,1.7778469324111938,1.652772307395935,0.42615485191345215
1761131539604781300,8.61778125,1.8206075429916382,1.6784286499023438,0.41515928506851196
1761131539614781200,8.62778125,1.8780288696289062,1.659491777420044,0.41027235984802246
1761131539624781300,8.63778125,1.9323958158493042,1.6045138835906982,0.3931681513786316
1761131539634781200,8.64778125,1.9714912176132202,1.5458709001541138,0.353461891412735
1761131539644781300,8.65778125,1.998980164527893,1.489671230316162,0.292375385761261
1761131539654781200,8.66778125,2.0179169178009033,1.3729959726333618,0.19769126176834106
1761131539664780300,8.6777802734375,2.0325777530670166,1.167134404182434,0.0694095641374588
1761131539674780400,8.687780517578124,2.0576231479644775,0.9600511193275452,-0.0668133869767189
1761131539684780300,8.6977802734375,2.0887773036956787,0.815886914730072,-0.1877647042274475
1761131539694780400,8.707780517578126,2.114433765411377,0.7254788279533386,-0.2781727612018585
1761131539704780300,8.7177802734375,2.1382575035095215,0.6924921274185181,-0.3136029541492462
1761131539714780400,8.727780517578125,2.159637689590454,0.7114289402961731,-0.2885574698448181
1761131539724780500,8.737780517578125,2.181018114089966,0.8305476307868958,-0.19692768156528473
1761131539734780400,8.747780517578125,2.1865158081054688,1.1219303607940674,0.027259862050414085
1761131539744780500,8.757780517578125,2.159026861190796,1.2697597742080688,0.19708040356636047
1761131539754780400,8.767780517578124,2.11993145942688,1.3253484964370728,0.36445748805999756
1761131539764781300,8.77778125,2.084501266479492,1.3021355867385864,0.5177846550941467
1761131539774781200,8.78778125,2.0631210803985596,1.225777506828308,0.6356816291809082
1761131539784781300,8.79778125,2.0637319087982178,1.1408672332763672,0.7132615447044373
1761131539794781400,8.807781494140626,2.081446886062622,1.0797806978225708,0.7493025660514832
1761131539804781300,8.81778125,2.1046597957611084,1.0773372650146484,0.7419722080230713
1761131539814781400,8.827781494140625,2.1297054290771484,1.1420888900756836,0.7004333734512329
1761131539824781300,8.83778125,2.154139995574951,1.2550990581512451,0.6387359499931335
1761131539834781400,8.847781494140625,2.175520181655884,1.3839915990829468,0.566653847694397
1761131539844781300,8.85778125,2.1938462257385254,1.5000559091567993,0.48113274574279785
1761131539854781400,8.867781494140624,2.2017874717712402,1.6057356595993042,0.39011383056640625
1761131539864780500,8.877780517578126,2.2017874717712402,1.6796503067016602,0.3009274899959564
1761131539874780400,8.887780517578125,2.1944570541381836,1.6857589483261108,0.21296289563179016
1761131539884780500,8.897780517578125,2.19262433052063,1.6362788677215576,0.1249983012676239
1761131539894780400,8.907780517578125,2.2023983001708984,1.56602942943573,0.04314235970377922
1761131539904780500,8.917780517578125,2.2115612030029297,1.5110515356063843,-0.01794416643679142
1761131539914780400,8.927780517578125,2.209117889404297,1.4970016479492188,-0.05032002553343773
1761131539924780500,8.937780517578124,2.179185390472412,1.5055537223815918,-0.060093868523836136
1761131539934780400,8.947780517578124,2.129094362258911,1.5232688188552856,-0.05398521572351456
1761131539944780500,8.957780517578126,2.0796144008636475,1.5153275728225708,-0.0417679101228714
1761131539954780400,8.967780517578126,2.055790662765503,1.4652366638183594,-0.027718011289834976
1761131539964781300,8.97778125,2.0484602451324463,1.393154501914978,-0.01061378326267004
1761131539974781400,8.987781494140625,2.0319669246673584,1.3473396301269531,-0.01366810966283083
1761131539984781300,8.99778125,2.0044779777526855,1.2544881105422974,-0.03443752974271774
1761131539994781400,9.007781494140625,1.9855411052703857,1.1225411891937256,-0.06742425262928009
1761131540004781300,9.01778125,1.980654239654541,0.9948704242706299,-0.10285443812608719
1761131540014781400,9.027781494140624,1.9818758964538574,0.9148470759391785,-0.1370628923177719
1761131540024781300,9.03778125,1.9714912176132202,0.909349262714386,-0.16516269743442535
1761131540034781400,9.047781494140626,1.9336175918579102,0.9789879322052002,-0.1877647042274475
1761131540044781300,9.05778125,1.8682550191879272,1.1152108907699585,-0.18104518949985504
1761131540054781400,9.067781494140625,1.776625156402588,1.3112986087799072,-0.132786825299263
1761131540064780500,9.077780517578125,1.6520086526870728,1.5024994611740112,-0.057039543986320496
1761131540074780400,9.087780517578125,1.5170074701309204,1.679039478302002,0.04558581858873367
1761131540084780500,9.097780517578125,1.3881149291992188,1.8164842128753662,0.15187637507915497
1761131540094780400,9.107780517578124,1.2848787307739258,1.8922314643859863,0.23984096944332123
1761131540104780500,9.117780517578124,1.2127965688705444,1.9123899936676025,0.2905427813529968
1761131540114780400,9.127780517578126,1.1657599210739136,1.8879554271697998,0.29359710216522217
1761131540124780500,9.137780517578125,1.134605884552002,1.8348101377487183,0.25511258840560913
1761131540134780400,9.147780517578125,1.1278862953186035,1.7425694465637207,0.18303050100803375
1761131540144780500,9.157780517578125,1.159651279449463,1.6210073232650757,0.10667234659194946
1761131540154780400,9.167780517578125,1.2256247997283936,1.4951690435409546,0.04069889709353447
1761131540164781300,9.17778125,1.3007612228393555,1.3809372186660767,-0.010002918541431427
1761131540174781200,9.18778125,1.3557389974594116,1.2868640422821045,-0.04421137273311615
1761131540184781300,9.19778125,1.380784511566162,1.1976776123046875,-0.05826127156615257
1761131540194781400,9.207781494140624,1.3734540939331055,1.0596221685409546,-0.05887213721871376
1761131540204781300,9.21778125,1.3502413034439087,0.9863182902336121,-0.0417679101228714
1761131540214781400,9.227781494140626,1.3215305805206299,0.9111818671226501,-0.011224648915231228
1761131540224781300,9.23778125,1.2861003875732422,0.8549822568893433,0.03520110994577408
1761131540234781400,9.247781494140625,1.2323442697525024,0.8378780484199524,0.08590292185544968
1761131540244781300,9.25778125,1.1474339962005615,0.8537605404853821,0.13110695779323578
1761131540254781400,9.267781494140625,1.0338131189346313,0.9038515090942383,0.14760030806064606
1761131540264780500,9.277780517578124,0.9030879139900208,0.977155327796936,0.13232868909835815
1761131540274780400,9.287780517578126,0.7784714102745056,1.0431287288665771,0.09262244403362274
1761131540284780500,9.297780517578126,0.6831763982772827,1.0321332216262817,0.05474879592657089
1761131540294780400,9.307780517578125,0.648357093334198,0.9722684025764465,0.04680754989385605
1761131540304780500,9.317780517578125,0.668515682220459,0.9264535307884216,0.07735081017017365
1761131540314780400,9.327780517578125,0.7082219123840332,0.9301186800003052,0.12866349518299103
1761131540324780500,9.337780517578125,0.7467064261436462,0.9539424180984497,0.19341520965099335
1761131540334780400,9.347780517578125,0.7595345973968506,0.9325621724128723,0.25511258840560913
1761131540344780500,9.357780517578124,0.7467064261436462,0.8702539205551147,0.3009274899959564
1761131540354780400,9.367780517578124,0.7192174792289734,0.8079456686973572,0.33452507853507996
1761131540364781300,9.37778125,0.6703482270240784,0.7535786628723145,0.363235741853714
1761131540374781400,9.387781494140626,0.5994879007339478,0.7040985822677612,0.38583776354789734
1761131540384781300,9.39778125,0.5041928887367249,0.6570619344711304,0.391946405172348
1761131540394781400,9.407781494140625,0.3844633102416992,0.6112470626831055,0.36018142104148865
1761131540414781400,9.427781494140625,0.14928019046783447,0.5110651254653931,0.17692184448242188
1761131540424781300,9.43778125,0.052152618765830994,0.42615485191345215,0.004046982154250145
1761131540434781400,9.447781494140624,0.045433104038238525,0.40599632263183594,-0.072311170399189
1761131540444781300,9.45778125,0.06498079001903534,0.4524220824241638,-0.10041097551584244
1761131540454781400,9.467781494140626,0.08452847599983215,0.49762609601020813,-0.10407616943120956
1761131540464780500,9.477780517578125,0.08941540122032166,0.453643798828125,-0.12362385541200638
1761131540474780700,9.48778076171875,0.07353290170431137,0.27832546830177307,-0.1932624876499176
1761131540484780500,9.497780517578125,0.06620252132415771,0.004046982154250145,-0.30077478289604187
1761131540494780700,9.50778076171875,0.07903069257736206,-0.26595544815063477,-0.4095087945461273
1761131540504780500,9.517780517578124,0.09369145333766937,-0.4369977116584778,-0.49441906809806824
1761131540514780400,9.527780517578124,0.0924697294831276,-0.49808424711227417,-0.544510006904602
1761131540524780500,9.537780517578126,0.08147415518760681,-0.40340012311935425,-0.5438991189002991
1761131540534780400,9.547780517578126,0.07780896127223969,-0.14133894443511963,-0.487088680267334
1761131540544780500,9.557780517578125,0.07108944654464722,0.22884538769721985,-0.38690677285194397
1761131540554780400,9.567780517578125,0.04360050708055496,0.5440518856048584,-0.2726749777793884
1761131540564781300,9.57778125,-0.0034361169673502445,0.7071529030799866,-0.1688278764486313
1761131540574781400,9.587781494140625,-0.041920628398656845,0.7248679995536804,-0.0924697294831276
1761131540584781300,9.59778125,-0.04008803144097328,0.6491206884384155,-0.04237877577543259
1761131540594781400,9.607781494140625,-0.01748601719737053,0.5073999166488647,-0.02038762718439102
1761131540604781300,9.61778125,0.014278975315392017,0.3485749661922455,-0.022220224142074585
1761131540614781400,9.627781494140624,0.045433104038238525,0.2111303061246872,-0.04360050708055496
1761131540624781300,9.63778125,0.0771980956196785,0.12255483865737915,-0.07597636431455612
1761131540634781400,9.647781494140625,0.1071304902434349,0.09934195876121521,-0.1077413558959961
1761131540644781300,9.65778125,0.11995866149663925,0.11950051039457321,-0.13645201921463013
1761131540654781400,9.667781494140625,0.10407616943120956,0.15676330029964447,-0.16516269743442535
1761131540664780500,9.677780517578125,0.04726569727063179,0.17325665056705475,-0.19998200237751007
1761131540674780400,9.687780517578124,0.00939205288887024,0.09689849615097046,-0.21708624064922333
1761131540684780500,9.697780517578124,-0.01992947794497013,-0.04726569727063179,-0.22563834488391876
1761131540694780400,9.707780517578126,-0.04253149405121803,-0.19142989814281464,-0.22258402407169342
1761131540704780500,9.717780517578126,-0.0694095641374588,-0.2702315151691437,-0.2036471962928772
1761131540714780400,9.727780517578125,-0.11827878654003143,-0.26167941093444824,-0.17432567477226257
1761131540724780500,9.737780517578125,-0.19402606785297394,-0.18715384602546692,-0.14011721312999725
1761131540734780400,9.747780517578125,-0.2874884605407715,-0.08330674469470978,-0.10529789328575134
1761131540744780500,9.757780517578125,-0.38644862174987793,0.024205535650253296,-0.06803511828184128
1761131540754780400,9.767780517578124,-0.47074803709983826,0.1457677185535431,-0.02038762718439102
1761131540764781300,9.77778125,-0.5354997515678406,0.2807689309120178,0.04069889709353447
1761131540774781400,9.787781494140624,-0.5892558693885803,0.40660718083381653,0.09812022745609283
1761131540784781300,9.79778125,-0.6375142335891724,0.48663052916526794,0.14454598724842072
1761131540794781400,9.807781494140626,-0.6753878593444824,0.5336671471595764,0.1750892549753189
1761131540804781300,9.81778125,-0.7053202986717224,0.5318345427513123,0.17447838187217712
1761131540814781400,9.827781494140625,-0.7175375819206238,0.453643798828125,0.14943291246891022
1761131540824781300,9.83778125,-0.6973790526390076,0.27466028928756714,0.11094839870929718
1761131540834781400,9.847781494140625,-0.6454554796218872,0.012599095702171326,0.07612907886505127
1761131540844781300,9.85778125,-0.5727625489234924,-0.2726749777793884,0.056581392884254456
1761131540854781400,9.867781494140624,-0.49762609601020813,-0.4907538592815399,0.05291620269417763
1761131540864780500,9.877780517578126,-0.44142648577690125,-0.5597816109657288,0.06879869848489761
1761131540874780400,9.887780517578125,-0.4133267104625702,-0.48953214287757874,0.10300715267658234
1761131540884780500,9.897780517578125,-0.3968333303928375,-0.40217840671539307,0.1598176211118698
1761131540894780400,9.907780517578125,-0.32352951169013977,-0.37224599719047546,0.27893635630607605
1761131540904780500,9.917780517578125,-0.24411702156066895,-0.39729148149490356,0.363235741853714
1761131540914780400,9.927780517578125,-0.17447838187217712,-0.42294782400131226,0.42554399371147156
1761131540924780500,9.937780517578124,-0.13904820382595062,-0.44249552488327026,0.45181119441986084
1761131540934780400,9.947780517578124,-0.12316570430994034,-0.45410194993019104,0.453643798828125
1761131540944780500,9.957780517578126,-0.10789407044649124,-0.40217840671539307,0.45608726143836975
1761131540954780400,9.967780517578126,-0.08590292185544968,-0.21586450934410095,0.4744132161140442
1761131540964781300,9.97778125,-0.06574437022209167,0.11094839870929718,0.4994587004184723
1761131540974781400,9.987781494140625,-0.05597052723169327,0.47685667872428894,0.5000695586204529
1761131540984781300,9.99778125,-0.06146831437945366,0.7370852828025818,0.4487568736076355
1761131540994781400,10.007781494140625,-0.07673994451761246,0.7743480801582336,0.3363576829433441
1761131541004781300,10.01778125,-0.10422888398170471,0.5642104148864746,0.15920674800872803
1761131541014781400,10.027781494140624,-0.1353830099105835,0.24839307367801666,-0.082085020840168
1761131541024781300,10.03778125,-0.1555415689945221,-0.05276348441839218,-0.33803755044937134
1761131541034781400,10.047781494140626,-0.14210252463817596,-0.19570595026016235,-0.5536729693412781
1761131541044781300,10.05778125,-0.10056369006633759,-0.1731039434671402,-0.6850090026855469
1761131541054781400,10.067781494140625,-0.0645226389169693,0.05719225853681564,-0.7186065912246704
1761131541064780500,10.077780517578125,-0.04375322163105011,0.4188244938850403,-0.6898959279060364
1761131541074780400,10.087780517578125,-0.024816401302814484,0.757243812084198,-0.638583242893219
1761131541084780500,10.097780517578125,-0.007712173741310835,1.0015898942947388,-0.5695554614067078
1761131541094780400,10.107780517578124,0.0014508049935102463,1.116432547569275,-0.4913647174835205
1761131541104780500,10.117780517578124,-0.030925052240490913,1.0962740182876587,-0.41745004057884216
1761131541114780400,10.127780517578126,-0.1298852264881134,0.9728792905807495,-0.38263070583343506
1761131541124780500,10.137780517578125,-0.34368807077407837,0.7883979678153992,-0.4302782118320465
1761131541134780400,10.147780517578125,-0.44509169459342957,0.7181484699249268,-0.5212971568107605
1761131541144780500,10.157780517578125,-0.46647197008132935,0.6582836508750916,-0.6465244889259338
1761131541154780400,10.167780517578125,-0.39011383056640625,0.5721516609191895,-0.7705301642417908
1761131541164781300,10.17778125,-0.22212587296962738,0.463417649269104,-0.8413904905319214
1761131541174781200,10.18778125,-0.004046982154250145,0.36629006266593933,-0.800462543964386
1761131541184781300,10.19778125,0.2079232633113861,0.25450173020362854,-0.6501896977424622
1761131541194781400,10.207781494140624,0.3691916763782501,0.09750936180353165,-0.4363868534564972
1761131541204781300,10.21778125,0.4467715620994568,-0.07536549866199493,-0.21708624064922333
1761131541214781400,10.227781494140626,0.4510476291179657,-0.21769709885120392,-0.04054617881774902
1761131541224781300,10.23778125,0.41867175698280334,-0.30077478289604187,0.08223773539066315
1761131541234781400,10.247781494140625,0.37285688519477844,-0.31665727496147156,0.1256091594696045
1761131541244781300,10.25778125,0.3294854462146759,-0.30627256631851196,0.08101600408554077
1761131541254781400,10.267781494140625,0.3050508201122284,-0.2653445899486542,-0.0264962799847126
1761131541264780500,10.277780517578124,0.315435528755188,-0.11995866149663925,-0.13156510889530182
1761131541274780400,10.287780517578126,0.32765284180641174,0.1750892549753189,-0.06253732740879059
1761131541294780400,10.307780517578125,0.03260493278503418,-0.17432567477226257,0.35040757060050964
1761131541304780500,10.317780517578125,0.005115996580570936,-0.6556875109672546,0.39500072598457336
1761131541314780400,10.327780517578125,0.0869719386100769,-0.8505535125732422,0.4426482319831848
1761131541324780500,10.337780517578125,0.14866933226585388,-0.9183595180511475,0.4841870665550232
1761131541334780400,10.347780517578125,0.09552405029535294,-0.9287442564964294,0.4902957081794739
1761131541344780500,10.357780517578124,-0.06146831437945366,-0.8377253413200378,0.5122868418693542
