time,seconds_elapsed,z,y,x
1761132224597613800,0.11461376953125,-0.0630718395113945,0.13003793358802795,-0.1270599663257599
1761132224607596800,0.1245966796875,-0.0630718395113945,0.13003793358802795,-0.1270599663257599
1761132224617623000,0.134623046875,-0.0630718395113945,0.13003793358802795,-0.1270599663257599
1761132224627636000,0.144635986328125,-0.0630718395113945,0.13003793358802795,-0.1270599663257599
1761132224637644500,0.15464453125,-0.01664607785642147,0.08116871863603592,-0.03848451003432274
1761132224647651000,0.164651123046875,-0.00015271631127689034,0.03962988406419754,-0.02932153269648552
1761132224657656300,0.17465625,0.01817324012517929,-0.041004329919815063,-0.05009094998240471
1761132224667660500,0.18466064453125,0.040164388716220856,-0.10881037265062332,-0.07696902006864548
1761132224677664300,0.194664306640625,0.05360342562198639,-0.14668402075767517,-0.10812314599752426
1761132224687667500,0.20466748046875,0.06520986557006836,-0.15890131890773773,-0.14477506279945374
1761132224697670400,0.21467041015625,0.07742717117071152,-0.15706872940063477,-0.17837265133857727
1761132224707673000,0.224673095703125,0.07987063378095627,-0.12713633477687836,-0.19792033731937408
1761132224717675500,0.234675537109375,0.07254024595022202,-0.0697149932384491,-0.20830504596233368
1761132224727677700,0.244677734375,0.0682641938328743,-0.015347989276051521,-0.23029619455337524
1761132224737679600,0.2546796875,0.07376197725534439,0.04207334294915199,-0.25045475363731384
1761132224747681500,0.264681640625,0.08414668589830399,0.09094256162643433,-0.2773328125476837
1761132224757683200,0.27468310546875,0.09575312584638596,0.0921642929315567,-0.31581732630729675
1761132224767684900,0.284684814453125,0.10735956579446793,0.07383833825588226,-0.35735616087913513
1761132224777686500,0.2946865234375,0.12202033400535583,0.08300131559371948,-0.3995058834552765
1761132224787688000,0.30468798828125,0.12690725922584534,0.10132727026939392,-0.4538728892803192
1761132224797689300,0.314689453125,0.12568552792072296,0.12148582190275192,-0.5100724697113037
1761132224807689200,0.324689208984375,0.11102475970983505,0.10987938940525055,-0.5632177591323853
1761132224817690400,0.3346904296875,0.09208793938159943,0.035964690148830414,-0.59803706407547
1761132224827691800,0.34469189453125,0.08781187981367111,-0.023289237171411514,-0.5955936312675476
1761132224837692700,0.354692626953125,0.09636399149894714,-0.0342848114669323,-0.5571091175079346
1761132224847693800,0.36469384765625,0.1189660057425499,-0.004352414980530739,-0.5009095072746277
1761132224857695000,0.374695068359375,0.18249599635601044,0.1178206354379654,-0.413555771112442
1761132224867695900,0.38469580078125,0.21303924918174744,0.18990273773670197,-0.37629300355911255
1761132224877697000,0.394697021484375,0.2301434874534607,0.20700696110725403,-0.36713001132011414
1761132224887698000,0.404697998046875,0.24236078560352325,0.17646369338035583,-0.37201693654060364
1761132224897698800,0.41469873046875,0.24785856902599335,0.137979194521904,-0.3732386529445648
1761132224907699700,0.42469970703125,0.25641068816185,0.12454015016555786,-0.3640756905078888
1761132224917699600,0.434699462890625,0.266184538602829,0.14408783614635468,-0.3445279896259308
1761132224927699700,0.44469970703125,0.28206703066825867,0.1831832081079483,-0.3335324227809906
1761132224937699600,0.454699462890625,0.3107776939868927,0.21739166975021362,-0.3378084897994995
1761132224947699700,0.46469970703125,0.3523165285587311,0.25587618350982666,-0.3597996234893799
1761132224957699600,0.474699462890625,0.39385536313056946,0.3102431893348694,-0.3927863538265228
1761132224967699700,0.48469970703125,0.42500948905944824,0.37316229939460754,-0.4398229718208313
1761132224977699600,0.494699462890625,0.46043968200683594,0.4360814392566681,-0.503963828086853
1761132224987699700,0.50469970703125,0.5093088746070862,0.4953353703022003,-0.5791002511978149
1761132224997699600,0.514699462890625,0.5618433356285095,0.5454263091087341,-0.6597344875335693
1761132225007698700,0.52469873046875,0.6027712821960449,0.5869651436805725,-0.7379252314567566
1761132225017698800,0.53469873046875,0.6357579827308655,0.6297256946563721,-0.79840087890625
1761132225027698700,0.54469873046875,0.669355571269989,0.6749297380447388,-0.836885392665863
1761132225037698800,0.55469873046875,0.7151705026626587,0.7103599309921265,-0.8527678847312927
1761132225047698700,0.56469873046875,0.7768678665161133,0.7445683479309082,-0.8576548099517822
1761132225057698800,0.57469873046875,0.851393461227417,0.7714464664459229,-0.8643743395805359
1761132225067698700,0.58469873046875,0.9344711303710938,0.7928267121315002,-0.8759807348251343
1761132225077698800,0.59469873046875,1.0041097402572632,0.8080983757972717,-0.8924741148948669
1761132225097698800,0.61469873046875,1.1006264686584473,0.8264243006706238,-0.9566149711608887
1761132225107699700,0.62469970703125,1.116508960723877,0.8135961294174194,-0.979216992855072
1761132225117699600,0.634699462890625,1.1158981323242188,0.7928267121315002,-0.998153805732727
1761132225127699700,0.64469970703125,1.0926852226257324,0.7549530863761902,-1.0109820365905762
1761132225137699600,0.654699462890625,1.0370965003967285,0.6902013421058655,-1.009149432182312
1761132225147699700,0.66469970703125,0.9454666972160339,0.5875760316848755,-0.9902125597000122
1761132225157699600,0.674699462890625,0.8532260060310364,0.43241623044013977,-0.969443142414093
1761132225167699700,0.68469970703125,0.7903069257736206,0.25098925828933716,-0.940732479095459
1761132225177699600,0.694699462890625,0.7487680912017822,0.06406449526548386,-0.8820894360542297
1761132225187699700,0.70469970703125,0.7151705026626587,-0.09720393270254135,-0.7825183868408203
1761132225197699600,0.714699462890625,0.6772968173027039,-0.1955532431602478,-0.6407976150512695
1761132225207699000,0.724698974609375,0.6265950202941895,-0.21265746653079987,-0.4966334402561188
1761132225217698800,0.73469873046875,0.5905539989471436,-0.1454622894525528,-0.3891211748123169
1761132225227699000,0.744698974609375,0.5850561857223511,0.010919216088950634,-0.3280346393585205
1761132225237698800,0.75469873046875,0.5820018649101257,0.19173532724380493,-0.313373863697052
1761132225247699000,0.764698974609375,0.5532912015914917,0.32795828580856323,-0.34208452701568604
1761132225257698800,0.77469873046875,0.5154175758361816,0.4263075888156891,-0.3732386529445648
1761132225267699000,0.784698974609375,0.4879286289215088,0.48372891545295715,-0.3805690407752991
1761132225277698800,0.79469873046875,0.4726569950580597,0.5130504369735718,-0.33536502718925476
1761132225287699000,0.804698974609375,0.46105054020881653,0.5393176674842834,-0.23457226157188416
1761132225297698800,0.81469873046875,0.43905940651893616,0.5649740099906921,-0.11178833991289139
1761132225307699700,0.82469970703125,0.42439863085746765,0.6217844486236572,0.0006108652451075613
1761132225317699800,0.834699951171875,0.5013676285743713,0.8154287338256836,0.19547687470912933
1761132225327699700,0.84469970703125,0.6528622508049011,1.0878746509552002,0.3836233615875244
1761132225337699800,0.854699951171875,0.840397834777832,1.200273871421814,0.5369505286216736
1761132225347699700,0.86469970703125,0.9106473922729492,0.8343655467033386,0.5815436840057373
1761132225357699800,0.874699951171875,0.8159632682800293,-0.05138903856277466,0.48685958981513977
1761132225367700500,0.884700439453125,0.5813909769058228,-0.9805150628089905,0.42271876335144043
1761132225377700400,0.894700439453125,0.3315471112728119,-1.4569900035858154,0.5302310585975647
1761132225387700500,0.904700439453125,0.2399173229932785,-1.3885730504989624,0.8252789378166199
1761132225397700400,0.914700439453125,0.3156646192073822,-0.9310349822044373,1.188132882118225
1761132225407699500,0.924699462890625,0.4079052805900574,-0.2700788080692291,1.4984524250030518
1761132225417699600,0.934699462890625,0.4824308156967163,0.23144157230854034,1.6841554641723633
1761132225427699500,0.944699462890625,0.5337435007095337,0.5374850630760193,1.742187738418579
1761132225437699600,0.954699462890625,0.5325217843055725,0.6272822618484497,1.6591099500656128
1761132225447699500,0.964699462890625,0.4836525619029999,0.5173265337944031,1.4324790239334106
1761132225457699600,0.974699462890625,0.40912699699401855,0.1734093725681305,1.1050552129745483
1761132225467699500,0.984699462890625,0.3162754774093628,-0.31589367985725403,0.7684684991836548
1761132225477699600,0.994699462890625,0.16600263118743896,-0.862007200717926,0.5167919993400574
1761132225487699500,1.004699462890625,-0.014202617108821869,-1.3531428575515747,0.48685958981513977
1761132225497699600,1.014699462890625,0.048105638474226,-1.6323082447052002,0.5962044596672058
1761132225527700200,1.0447001953125,0.456163614988327,-2.064189910888672,1.111163854598999
1761132225537700000,1.0547001953125,0.5978843569755554,-1.9792797565460205,1.4031574726104736
1761132225547700200,1.0647001953125,0.5966626405715942,-1.757535696029663,1.8539760112762451
1761132225557700000,1.0747001953125,0.5258022546768188,-1.5119678974151611,2.1587977409362793
1761132225567700200,1.0847001953125,0.4567744731903076,-1.2822824716567993,2.370157241821289
1761132225577700400,1.094700439453125,0.36392298340797424,-1.1008555889129639,2.476447820663452
1761132225587700200,1.1047001953125,0.2967278063297272,-0.882165789604187,2.4886651039123535
1761132225597700400,1.114700439453125,0.27351492643356323,-0.6848562955856323,2.4025330543518066
1761132225607699500,1.124699462890625,0.2698497176170349,-0.5455790162086487,2.266921043395996
1761132225617699300,1.13469921875,0.26801711320877075,-0.45150578022003174,2.1343631744384766
1761132225627699000,1.144698974609375,0.25213462114334106,-0.3739258944988251,2.026850938796997
1761132225637699000,1.154698974609375,0.1941024363040924,-0.29878947138786316,1.9504927396774292
1761132225647699000,1.164698974609375,0.09514226019382477,-0.2358703464269638,1.8930714130401611
1761132225657699000,1.174698974609375,-0.039248090237379074,-0.19738583266735077,1.8332066535949707
1761132225667698400,1.184698486328125,-0.19868391752243042,-0.1802816092967987,1.7434093952178955
1761132225677698300,1.1946982421875,-0.36483925580978394,-0.14790575206279755,1.585806131362915
1761132225687698400,1.204698486328125,-0.5169447064399719,-0.1149190217256546,1.361007809638977
1761132225697698300,1.2146982421875,-0.6537785530090332,-0.07032585889101028,1.1050552129745483
1761132225707699200,1.22469921875,-0.7918340563774109,-0.022067507728934288,0.8710938692092896
1761132225717699300,1.23469921875,-0.9433286786079407,0.015195272862911224,0.675006091594696
1761132225727699200,1.24469921875,-1.0838276147842407,0.020082194358110428,0.5149593949317932
1761132225737699300,1.25469921875,-1.193172574043274,0.041462477296590805,0.40194934606552124
1761132225747699200,1.26469921875,-1.2560917139053345,0.07078400999307632,0.33292156457901
1761132225757699300,1.27469921875,-1.2524265050888062,0.13370312750339508,0.3084869384765625
1761132225767699200,1.28469921875,-1.1986702680587769,0.21189388632774353,0.3090978264808655
1761132225777699300,1.29469921875,-1.1271990537643433,0.2241111844778061,0.30543261766433716
1761132225787699200,1.30469921875,-1.0257954597473145,0.1526399552822113,0.2883284091949463
1761132225797699300,1.31469921875,-0.9934195876121521,0.09888381510972977,0.2480112910270691
1761132225807698400,1.324698486328125,-1.0129673480987549,0.07444920390844345,0.1722639948129654
1761132225817698300,1.3346982421875,-1.0557278394699097,0.15630514919757843,0.0555887371301651
1761132225827698400,1.344698486328125,-1.0838276147842407,0.3291800022125244,-0.10018189996480942
1761132225837698300,1.3546982421875,-1.0569496154785156,0.6804275512695312,-0.2217440903186798
1761132225847698400,1.364698486328125,-0.9421069025993347,1.2809081077575684,-0.2791654169559479
1761132225857698300,1.3746982421875,-0.7869471311569214,1.941253423690796,-0.3139847218990326
1761132225867698400,1.384698486328125,-0.6696610450744629,2.8001298904418945,-0.34636059403419495
1761132225877698300,1.3946982421875,-0.6776022911071777,3.5600461959838867,-0.5247332453727722
1761132225887698400,1.404698486328125,-0.7673994898796082,3.4678056240081787,-1.0653489828109741
1761132225897698300,1.4146982421875,-0.8614727258682251,2.250962018966675,-2.0250182151794434
1761132225907699200,1.42469921875,-0.9708175659179688,0.1984548419713974,-3.1648929119110107
1761132225917699000,1.434698974609375,-1.0764973163604736,-2.094733238220215,-4.245513439178467
1761132225927699500,1.444699462890625,-1.143081545829773,-3.647552728652954,-4.991990566253662
1761132225937699600,1.454699462890625,-0.9970847964286804,-3.884568452835083,-5.268101692199707
1761132225947699500,1.464699462890625,-0.5633704662322998,-2.5993080139160156,-5.13737678527832
1761132225957699600,1.474699462890625,-0.2744311988353729,-0.9371436238288879,-4.845383167266846
1761132225967699200,1.48469921875,-0.260992169380188,1.266247272491455,-4.318817138671875
1761132225977699300,1.49469921875,-0.6635523438453674,2.5625033378601074,-3.7617082595825195
1761132225987699200,1.50469921875,-1.1870639324188232,2.1025218963623047,-3.3396003246307373
1761132225997699300,1.51469921875,-1.3446670770645142,0.856967568397522,-2.944981336593628
1761132226007698400,1.524698486328125,-1.1155925989151,-0.41179952025413513,-2.635272741317749
1761132226017698300,1.5346982421875,-0.37950003147125244,-1.7190511226654053,-2.213775634765625
1761132226027698400,1.544698486328125,0.05054909735918045,-2.1466567516326904,-1.7629570960998535
1761132226037698300,1.5546982421875,0.2692388594150543,-2.1081724166870117,-1.1001683473587036
1761132226047698400,1.564698486328125,0.32971450686454773,-1.6341408491134644,-0.32131510972976685
1761132226057698300,1.5746982421875,0.3315471112728119,-0.9530261158943176,0.40744712948799133
1761132226070598100,1.58759814453125,0.3321579694747925,-0.32566753029823303,0.9486737251281738
1761132226080598000,1.597597900390625,0.3352122902870178,0.14530956745147705,1.3145819902420044
1761132226090598100,1.60759814453125,0.32910364866256714,0.39209914207458496,1.529606580734253
1761132226100598000,1.617597900390625,0.32849279046058655,0.3652210533618927,1.6114624738693237
1761132226110599000,1.627598876953125,0.3352122902870178,0.3145192563533783,1.6371188163757324
1761132226120599000,1.63759912109375,0.2741257846355438,0.14592044055461884,1.5974125862121582
1761132226130599000,1.647598876953125,0.0835358202457428,-0.06238461285829544,1.5192219018936157
1761132226140599000,1.65759912109375,-0.09117163717746735,-0.19188804924488068,1.4471397399902344
1761132226150599000,1.667598876953125,-0.26404649019241333,-0.34093916416168213,1.3298536539077759
1761132226160599000,1.67759912109375,-0.4827362596988678,-0.3537673354148865,1.1911872625350952
1761132226170598700,1.6875986328125,-0.6831000447273254,-0.3134502172470093,1.0054842233657837
1761132226180598800,1.697598876953125,-0.8413141369819641,-0.24808764457702637,0.79840087890625
1761132226190598700,1.7075986328125,-0.946382999420166,-0.20715968310832977,0.6346889734268188
1761132226200598800,1.717598876953125,-1.00197172164917,-0.14790575206279755,0.5424483418464661
1761132226210598000,1.727597900390625,-1.0380127429962158,-0.10025826096534729,0.5222898125648499
1761132226220598000,1.737597900390625,-1.0746647119522095,-0.14240795373916626,0.5736024379730225
1761132226230598000,1.747597900390625,-1.114981770515442,-0.23709207773208618,0.66584312915802
1761132226240598000,1.757597900390625,-1.1381946802139282,-0.30978503823280334,0.7874053120613098
1761132226250598000,1.767597900390625,-1.1088731288909912,-0.25969409942626953,1.016479730606079
1761132226260598000,1.777597900390625,-1.0673342943191528,-0.3580434024333954,1.094059705734253
1761132226270598100,1.78759814453125,-1.0099129676818848,-0.5431355834007263,1.0629055500030518
1761132226280598300,1.797598388671875,-0.935998260974884,-0.6903541088104248,0.940732479095459
1761132226290598100,1.80759814453125,-0.868803083896637,-0.6738607287406921,0.769079327583313
1761132226300598300,1.817598388671875,-0.765566885471344,-0.47105345129966736,0.6304129362106323
1761132226310599200,1.82759912109375,-0.6892086863517761,-0.17356209456920624,0.45631635189056396
1761132226320599000,1.83759912109375,-0.6598871946334839,0.05795583873987198,0.23151792585849762
1761132226330599200,1.84759912109375,-0.6696610450744629,0.2839759886264801,-0.02076941914856434
1761132226340599000,1.85759912109375,-0.5639813542366028,0.8887325525283813,-0.2590068578720093
1761132226350599200,1.86759912109375,-0.42470407485961914,1.524032473564148,-0.4508185386657715
1761132226360599000,1.87759912109375,-0.2817615866661072,2.340148448944092,-0.37690386176109314
1761132226370599200,1.88759912109375,-0.17119498550891876,3.312035083770752,-0.02076941914856434
1761132226380599000,1.89759912109375,0.010842857882380486,3.4177145957946777,0.16371189057826996
1761132226390599200,1.90759912109375,0.28206703066825867,2.6070964336395264,0.02321287989616394
1761132226400599000,1.91759912109375,0.5398521423339844,1.2833515405654907,-0.3023782968521118
1761132226410598100,1.92759814453125,0.717613935470581,-0.15401439368724823,-0.6053674817085266
1761132226420598300,1.937598388671875,0.831234872341156,-1.1918745040893555,-0.7397578358650208
1761132226430598100,1.94759814453125,1.048092007637024,-1.4918092489242554,-0.6200281977653503
1761132226440598300,1.957598388671875,1.3840678930282593,-1.2040917873382568,-0.3677408695220947
1761132226450598100,1.96759814453125,1.704161286354065,-0.43012550473213196,-0.05497787147760391
1761132226460598300,1.977598388671875,1.8825340270996094,0.42264237999916077,-0.010995574295520782
1761132226470598400,1.987598388671875,1.8403842449188232,0.9076694250106812,-0.4801400899887085
1761132226480598500,1.9975986328125,1.5642731189727783,0.7128033638000488,-1.7623462677001953
1761132226490598400,2.007598388671875,1.3297009468078613,0.10926852375268936,-2.676811456680298
1761132226500598500,2.0175986328125,1.040150761604309,-0.8962156772613525,-3.3426547050476074
1761132226510599200,2.02759912109375,0.803135097026825,-1.6542994976043701,-3.3011157512664795
1761132226520599300,2.037599365234375,0.6516404747962952,-1.8864282369613647,-2.613281488418579
1761132226530599200,2.04759912109375,0.5936083197593689,-1.4973070621490479,-1.6212363243103027
1761132226540599300,2.057599365234375,0.6436992287635803,-0.730060338973999,-0.6805039048194885
1761132226550599200,2.06759912109375,0.660803496837616,0.021303925663232803,0.05803219974040985
1761132226560599300,2.077599365234375,0.7591527700424194,0.39820778369903564,0.5015203952789307
1761132226570599400,2.087599365234375,0.8452847599983215,0.4623486399650574,0.7611380815505981
1761132226580599300,2.097599365234375,0.831234872341156,0.3200170397758484,0.9761626720428467
1761132226590599400,2.107599365234375,0.8037459254264832,0.0164170041680336,1.2101240158081055
1761132226600599300,2.117599365234375,0.8196284174919128,-0.33055445551872253,1.454470157623291
1761132226610598700,2.1275986328125,0.8452847599983215,-0.6078872680664062,1.6811012029647827
1761132226620598500,2.1375986328125,0.8232936263084412,-0.7325037717819214,1.8539760112762451
1761132226640598500,2.1575986328125,0.55695641040802,-0.6860780119895935,1.9168951511383057
1761132226650598700,2.1675986328125,0.32360586524009705,-0.47594037652015686,1.7910568714141846
1761132226660598500,2.1775986328125,0.07925976812839508,-0.08376489579677582,1.5790866613388062
1761132226670598700,2.1875986328125,-0.1485929638147354,0.35727980732917786,1.2675453424453735
1761132226680598500,2.1975986328125,-0.3770565688610077,0.6394995450973511,0.8936958312988281
1761132226690598700,2.2075986328125,-0.6097962260246277,0.7170794606208801,0.5070181488990784
1761132226700598500,2.2175986328125,-0.7893906235694885,0.5710826516151428,0.14355333149433136
1761132226710599400,2.227599365234375,-0.9250026941299438,0.1825723499059677,-0.18875735998153687
1761132226720599600,2.237599609375,-0.917061448097229,0.0017562375869601965,-0.23945917189121246
1761132226730599400,2.247599365234375,-0.8303185701370239,-0.1253037303686142,-0.20036379992961884
1761132226740599600,2.257599609375,-0.7008151412010193,-0.1906663179397583,-0.10018189996480942
1761132226750599400,2.267599365234375,-0.57436603307724,-0.14668402075767517,0.08124507963657379
1761132226760599600,2.277599609375,-0.47540587186813354,-0.020845776423811913,0.313373863697052
1761132226770599400,2.287599365234375,-0.3880521357059479,0.11049024760723114,0.5167919993400574
1761132226780599600,2.297599609375,-0.2811507284641266,0.26137396693229675,0.645684540271759
1761132226790599400,2.307599365234375,-0.15714508295059204,0.41836634278297424,0.6878342628479004
1761132226800599600,2.317599609375,-0.04046982154250145,0.5179373621940613,0.646295428276062
1761132226810598700,2.3275986328125,0.04199698567390442,0.5197699666023254,0.5424483418464661
1761132226820598500,2.3375986328125,0.07437284290790558,0.42386412620544434,0.4031710624694824
1761132226830598700,2.3475986328125,0.01817324012517929,0.2937498390674591,0.23029619455337524
1761132226840598500,2.3575986328125,-0.08933904021978378,0.2839759886264801,0.06169738993048668
1761132226850598700,2.3675986328125,-0.16264286637306213,0.40309470891952515,-0.14905111491680145
1761132226860598800,2.377598876953125,-0.18829920887947083,0.6724863052368164,-0.42699480056762695
1761132226870598700,2.3875986328125,-0.13515393435955048,1.0457249879837036,-0.7336491346359253
1761132226880598500,2.3975986328125,0.024892758578062057,1.5099825859069824,-0.9944885969161987
1761132226890598700,2.4075986328125,0.24785856902599335,2.0066158771514893,-1.0836749076843262
1761132226900598500,2.4175986328125,0.4775438904762268,2.453158378601074,-0.9419541954994202
1761132226910599200,2.42759912109375,0.6632469296455383,2.655965805053711,-0.656680166721344
1761132226920599300,2.437599365234375,0.5294674634933472,2.7384326457977295,-0.1918116807937622
1761132226930599200,2.44759912109375,0.32421672344207764,2.2772293090820312,0.23640485107898712
1761132226940599300,2.457599365234375,0.29856038093566895,0.8710174560546875,0.45631635189056396
1761132226950599200,2.46759912109375,0.29917123913764954,0.1837940812110901,0.34636059403419495
1761132226960599300,2.477599365234375,0.27718010544776917,-0.10881037265062332,0.015271631069481373
1761132226970599200,2.48759912109375,0.2594650089740753,0.16058120131492615,-0.35613444447517395
1761132226990599200,2.50759912109375,0.19349156320095062,1.7427221536636353,-0.7947356700897217
1761132227000599300,2.517599365234375,0.03588833287358284,2.031050682067871,-1.1062769889831543
1761132227010598400,2.527598388671875,-0.21090123057365417,1.4714980125427246,-1.6920967102050781
1761132227020598500,2.5375986328125,-0.5016731023788452,0.25098925828933716,-2.4630086421966553
1761132227030598400,2.547598388671875,-0.6831000447273254,-1.1197923421859741,-2.926044464111328
1761132227040598500,2.5575986328125,-0.5322163701057434,-2.290210247039795,-2.883283853530884
1761132227050598400,2.567598388671875,-0.06979135423898697,-3.1906254291534424,-2.2675318717956543
1761132227060598500,2.5775986328125,0.42867469787597656,-3.572416305541992,-1.215621829032898
1761132227070598400,2.587598388671875,0.7695375084877014,-3.3885459899902344,-0.10934487730264664
1761132227080598500,2.5975986328125,0.6711881756782532,-2.622520923614502,0.7275404930114746
1761132227090598400,2.607598388671875,0.1892155110836029,-1.641471266746521,1.303586483001709
1761132227100598500,2.6175986328125,-0.1950187236070633,-0.8424595594406128,1.4618005752563477
1761132227110599200,2.62759912109375,-0.38499781489372253,-0.33544138073921204,1.2107349634170532
1761132227120599300,2.637599365234375,-0.39477166533470154,-0.10025826096534729,0.8613200187683105
1761132227130599200,2.64759912109375,-0.25732699036598206,-0.2651918828487396,0.6548475623130798
1761132227140599300,2.657599365234375,-0.01114829070866108,-0.7062366008758545,0.7134906053543091
1761132227150599200,2.66759912109375,0.2704605758190155,-1.2126438617706299,1.0286970138549805
1761132227160599300,2.677599365234375,0.49037206172943115,-1.6451364755630493,1.46424400806427
1761132227170599200,2.68759912109375,0.44455718994140625,-1.6573537588119507,2.026240110397339
1761132227180599300,2.697599365234375,0.21181751787662506,-1.3897948265075684,2.1514673233032227
1761132227190599200,2.70759912109375,-0.12476922571659088,-1.0202213525772095,2.0360138416290283
1761132227200599300,2.717599365234375,-0.5053382515907288,-0.6133850812911987,1.6878206729888916
1761132227210598400,2.727598388671875,-0.8431467413902283,-0.2413681298494339,1.1789699792861938
1761132227220598300,2.737598388671875,-1.1033753156661987,0.06834054738283157,0.6261368989944458
1761132227230598400,2.747598388671875,-1.2738068103790283,0.26748260855674744,0.152105450630188
1761132227240598300,2.757598388671875,-1.3403910398483276,0.33651039004325867,-0.15393804013729095
1761132227250598400,2.767598388671875,-1.2957979440689087,0.2754238545894623,-0.2785545587539673
1761132227260598300,2.777598388671875,-1.1748465299606323,0.10865765810012817,-0.23396138846874237
1761132227270598400,2.787598388671875,-1.0099129676818848,-0.028787024319171906,-0.04398229718208313
1761132227280598500,2.7975986328125,-0.8651378750801086,-0.0342848114669323,0.20341812074184418
1761132227290598400,2.807598388671875,-0.7906123399734497,0.014584408141672611,0.3952298164367676
1761132227300598500,2.8175986328125,-0.7509061098098755,-0.028176158666610718,0.4337143301963806
1761132227310599200,2.82759912109375,-0.6983717083930969,-0.05871942266821861,0.34574973583221436
1761132227320599300,2.837599365234375,-0.6116288304328918,-0.03856086730957031,0.18387043476104736
1761132227330599200,2.84759912109375,-0.4882340431213379,-0.017791450023651123,0.007941247895359993
1761132227340599300,2.857599365234375,-0.33796119689941406,-0.026343563571572304,-0.1368338167667389
1761132227350599200,2.86759912109375,-0.17302757501602173,-0.051999904215335846,-0.252287358045578
1761132227360599300,2.877599365234375,-0.02886338345706463,-0.08743008971214294,-0.35185837745666504
1761132227370599200,2.88759912109375,0.052381694316864014,-0.10819950699806213,-0.41172316670417786
1761132227380599300,2.897599365234375,0.05421429127454758,-0.16317738592624664,-0.4092797040939331
1761132227390599200,2.90759912109375,0.016340645030140877,-0.21204659342765808,-0.3286454975605011
1761132227400599300,2.917599365234375,-0.01114829070866108,-0.19188804924488068,-0.17104226350784302
1761132227410598400,2.927598388671875,-0.03741549700498581,0.04329507425427437,0.05192354694008827
1761132227420598300,2.937598388671875,-0.0025961773935705423,0.32734742760658264,0.033597588539123535
1761132227430598400,2.947598388671875,0.13607023656368256,0.514272153377533,-0.17409659922122955
1761132227440598300,2.957598388671875,0.31810808181762695,0.6126214861869812,-0.45814892649650574
1761132227450598400,2.967598388671875,0.536797821521759,0.7207446098327637,-0.6017022728919983
1761132227460598300,2.977598388671875,0.8355109095573425,0.7384597063064575,-0.59803706407547
1761132227470598400,2.987598388671875,0.963792622089386,0.5093852281570435,-0.484416127204895
1761132227480598300,2.997598388671875,0.7518224120140076,0.012140946462750435,-0.39767327904701233
1761132227490598400,3.007598388671875,0.28328874707221985,-0.6445391774177551,-0.4758640229701996
1761132227500598300,3.017598388671875,-0.06123924255371094,-1.25051748752594,-0.789237916469574
1761132227510599200,3.02759912109375,-0.17302757501602173,-1.6011542081832886,-1.197295904159546
1761132227520599300,3.037599365234375,-0.13454307615756989,-1.500361442565918,-1.4892895221710205
1761132227530599200,3.04759912109375,-0.08200865983963013,-0.8882744312286377,-1.642616629600525
1761132227540599300,3.057599365234375,-0.1241583600640297,0.07261660695075989,-1.7018705606460571
1761132227550599200,3.06759912109375,-0.25793784856796265,0.8624653816223145,-1.803274154663086
1761132227560599300,3.077599365234375,-0.4259257912635803,1.3016774654388428,-1.957212209701538
1761132227570599200,3.08759912109375,-0.5792529582977295,1.4886022806167603,-2.105041742324829
1761132227580599300,3.097599365234375,-0.7124215960502625,1.2894601821899414,-2.345111608505249
1761132227590599200,3.10759912109375,-0.8022187948226929,0.7445683479309082,-2.4978280067443848
1761132227600599300,3.117599365234375,-0.7142542004585266,0.3151301145553589,-2.3035728931427
1761132227610598400,3.127598388671875,-0.4723515510559082,0.02191479131579399,-1.9101755619049072
1761132227620598500,3.1375986328125,-0.21639901399612427,-0.28962647914886475,-1.4758504629135132
1761132227630598400,3.147598388671875,-0.04902193695306778,-0.4600578844547272,-0.9755517840385437
1761132227640598300,3.157598388671875,0.06276640295982361,-0.06299547851085663,-0.1270599663257599
1761132227650598400,3.167598388671875,0.11774427443742752,0.36338844895362854,0.43188172578811646
1761132227660598300,3.177598388671875,0.21670444309711456,0.6853144764900208,0.9517280459403992
1761132227670598400,3.187598388671875,0.3168863356113434,0.7781659364700317,1.3542882204055786
1761132227680598300,3.197598388671875,0.41951170563697815,0.6022367477416992,1.623068928718567
1761132227690598400,3.207598388671875,0.498924195766449,0.2796999216079712,1.7941112518310547
1761132227700598300,3.217598388671875,0.518471896648407,-0.009239336475729942,1.8839083909988403
1761132227710599200,3.22759912109375,0.4824308156967163,-0.26458099484443665,1.860695481300354
1761132227720599300,3.237599365234375,0.35659259557724,-0.397138774394989,1.7666223049163818
1761132227740599300,3.257599365234375,-0.15225815773010254,-0.3275001347064972,1.3054190874099731
1761132227750599200,3.26759912109375,-0.4680754840373993,-0.27435484528541565,1.0054842233657837
1761132227760599300,3.277599365234375,-0.783892810344696,-0.26824620366096497,0.7128797173500061
1761132227770599200,3.28759912109375,-1.0557278394699097,-0.37026068568229675,0.44837507605552673
1761132227780599300,3.297599365234375,-1.2402092218399048,-0.539470374584198,0.23579397797584534
1761132227790599200,3.30759912109375,-1.3043500185012817,-0.6323218941688538,0.1111774742603302
1761132227800599300,3.317599365234375,-1.2457069158554077,-0.6292675733566284,0.07513642311096191
1761132227810598400,3.327598388671875,-1.0758863687515259,-0.5663484334945679,0.11239920556545258
1761132227820598500,3.3375986328125,-0.8633053302764893,-0.4447862505912781,0.2028072625398636
1761132227830598400,3.347598388671875,-0.671493649482727,-0.31039589643478394,0.29993483424186707
1761132227840598500,3.3575986328125,-0.5432119369506836,-0.2260964959859848,0.37751471996307373
1761132227850598400,3.367598388671875,-0.4833471179008484,-0.19249890744686127,0.44715335965156555
1761132227860598500,3.3775986328125,-0.4717406928539276,-0.13263411819934845,0.5216789245605469
1761132227870598400,3.387598388671875,-0.4528038501739502,0.1978439837694168,0.6163630485534668
1761132227880598500,3.3975986328125,-0.413097620010376,0.4263075888156891,0.5992587804794312
1761132227890598400,3.407598388671875,-0.38438695669174194,0.5832999348640442,0.49296826124191284
1761132227900598500,3.4175986328125,-0.37400224804878235,0.6993643641471863,0.33475416898727417
1761132227910599200,3.42759912109375,-0.3599523603916168,0.7940484881401062,0.16737708449363708
1761132227920599300,3.437599365234375,-0.3300199508666992,0.8997281193733215,0.02015855349600315
1761132227930599200,3.44759912109375,-0.2848159074783325,0.9693667888641357,-0.08979719132184982
1761132227940599300,3.457599365234375,-0.2054034322500229,1.0457249879837036,-0.15821409225463867
1761132227950599200,3.46759912109375,-0.09544769674539566,1.094594120979309,-0.23151792585849762
1761132227960599300,3.477599365234375,0.08720101416110992,1.199052095413208,-0.24495697021484375
1761132227970599200,3.48759912109375,0.3413209617137909,1.3737596273422241,-0.1722639948129654
1761132227980599300,3.497599365234375,0.6730207800865173,2.2644011974334717,-0.009162978269159794
1761132227990599200,3.50759912109375,1.098793864250183,3.6174676418304443,0.2376265823841095
1761132228000599300,3.517599365234375,1.4054481983184814,4.274758815765381,0.25045475363731384
1761132228010598400,3.527598388671875,1.4219415187835693,3.8575377464294434,-0.1771509200334549
1761132228020598500,3.5375986328125,1.1275044679641724,2.1807124614715576,-1.1398745775222778
1761132228030598400,3.547598388671875,0.7102835774421692,-0.397138774394989,-2.510045289993286
1761132228040598500,3.5575986328125,0.31261029839515686,-2.6793313026428223,-3.8545596599578857
1761132228050598400,3.567598388671875,-0.10949759185314178,-3.4673473834991455,-4.605313301086426
1761132228060598500,3.5775986328125,-0.20051652193069458,-3.0739502906799316,-4.686558246612549
1761132228070598400,3.587598388671875,0.5862779021263123,-1.8448894023895264,-4.208250522613525
1761132228080598500,3.5975986328125,1.0334312915802002,0.1532508134841919,-3.0060677528381348
1761132228090598400,3.607598388671875,1.164156436920166,0.7018077969551086,-1.6994271278381348
1761132228100598500,3.6175986328125,0.9527970552444458,-0.458836168050766,-0.665232241153717
1761132228110599400,3.627599365234375,0.6113234162330627,-1.5498415231704712,-0.8735373020172119
1761132228120599300,3.637599365234375,0.25702154636383057,-2.399554967880249,-1.4123204946517944
1761132228130599200,3.64759912109375,0.012064588256180286,-2.628018617630005,-1.5448782444000244
1761132228140599300,3.657599365234375,-0.17302757501602173,-2.4368178844451904,-1.1368201971054077
1761132228150599200,3.66759912109375,-0.471129834651947,-2.0855703353881836,-0.323147714138031
1761132228160599300,3.677599365234375,-0.8944594264030457,-1.4747051000595093,0.6511823534965515
1761132228170599200,3.68759912109375,-1.1284208297729492,-0.6750824451446533,1.4679092168807983
1761132228180599300,3.697599365234375,-1.0245736837387085,0.030466904863715172,1.9168951511383057
1761132228190599200,3.70759912109375,-0.6751587986946106,0.3499494194984436,2.0977113246917725
1761132228200599300,3.717599365234375,-0.2347249686717987,0.19540052115917206,2.197282314300537
1761132228210598400,3.727598388671875,0.15134187042713165,-0.21387919783592224,2.3237314224243164
1761132228220598300,3.737598388671875,0.3663664162158966,-0.4838816225528717,2.5589144229888916
1761132228230598400,3.747598388671875,0.39813143014907837,-0.548633337020874,2.83074951171875
1761132228240598300,3.757598388671875,0.32421672344207764,-0.4948772192001343,2.99812650680542
1761132228250598400,3.767598388671875,0.17516560852527618,-0.38980838656425476,2.9694159030914307
1761132228260598300,3.777598388671875,-0.04230241850018501,-0.306730717420578,2.718961238861084
1761132228270598400,3.787598388671875,-0.34284812211990356,-0.11919508129358292,2.305405378341675
1761132228280598300,3.797598388671875,-0.6073527932167053,0.2235003262758255,1.7605136632919312
1761132228290598400,3.807598388671875,-0.7533495426177979,0.6052911281585693,1.1429288387298584
1761132228300598300,3.817598388671875,-0.8260425329208374,0.8832347989082336,0.5949827432632446
1761132228310599200,3.82759912109375,-0.8498662710189819,1.0701595544815063,0.2730567753314972
1761132228320599300,3.837599365234375,-0.7686212062835693,1.2638038396835327,0.25473082065582275
1761132228330599200,3.84759912109375,-0.48945578932762146,1.4452308416366577,0.6102544069290161
1761132228340599300,3.857599365234375,-0.32818734645843506,1.3364968299865723,0.9101892113685608
1761132228350599200,3.86759912109375,-0.24327708780765533,1.0561096668243408,1.1215485334396362
1761132228360599300,3.877599365234375,-0.2096794992685318,0.7903832793235779,1.1820242404937744
1761132228370599200,3.88759912109375,-0.25244006514549255,0.6535494327545166,1.0965031385421753
1761132228380599300,3.897599365234375,-0.2603813111782074,0.6150649189949036,0.8613200187683105
1761132228390599200,3.90759912109375,-0.19685132801532745,0.5564218759536743,0.4300491213798523
1761132228400599300,3.917599365234375,-0.16569720208644867,0.572915256023407,-0.036041051149368286
1761132228410598400,3.927598388671875,-0.16081027686595917,0.5961281061172485,-0.3805690407752991
1761132228420598300,3.937598388671875,-0.1638645976781845,0.6028476357460022,-0.5992587804794312
1761132228430598400,3.947598388671875,-0.1082758679986,0.5716935396194458,-0.7312057018280029
1761132228440598300,3.957598388671875,-0.04841107130050659,0.5283221006393433,-0.799011766910553
1761132228450598400,3.967598388671875,-0.05757404863834381,0.43363797664642334,-0.8436049222946167
1761132228460598300,3.977598388671875,-0.04108068719506264,0.31635183095932007,-0.9242390990257263
1761132228470598400,3.987598388671875,0.02977968007326126,0.22472205758094788,-1.0702359676361084
1761132228480598300,3.997598388671875,0.13607023656368256,0.28275424242019653,-1.224173903465271
1761132228490598400,4.007598388671875,0.35292738676071167,0.4611268937587738,-1.3390166759490967
1761132228500598300,4.017598388671875,0.5496259927749634,0.5649740099906921,-1.4355332851409912
1761132228510599200,4.02759912109375,0.6155994534492493,0.5851325392723083,-1.4856243133544922
1761132228520599300,4.037599365234375,0.5306891798973083,0.7213554978370667,-1.434922456741333
1761132228530599200,4.04759912109375,0.32971450686454773,0.7775551080703735,-1.3939944505691528
1761132228540599300,4.057599365234375,0.1892155110836029,0.5894085764884949,-1.5424346923828125
1761132228550599200,4.06759912109375,0.2606867551803589,0.15141822397708893,-1.9230037927627563
1761132228560599300,4.077599365234375,0.8092437386512756,-0.986012876033783,-2.623666286468506
1761132228570599200,4.08759912109375,1.3297009468078613,-1.9108628034591675,-2.7702739238739014
1761132228580599300,4.097599365234375,1.8837556838989258,-2.46858286857605,-2.4666738510131836
1761132228590599200,4.10759912109375,2.462244987487793,-2.686661720275879,-1.817324161529541
1761132228600599300,4.117599365234375,2.9093985557556152,-2.5229499340057373,-0.7318165898323059
1761132228610598400,4.127598388671875,2.793944835662842,-1.95423424243927,0.4954117238521576
1761132228620598500,4.1375986328125,2.189188241958618,-1.2492958307266235,1.4605787992477417
1761132228630598400,4.147598388671875,1.391398310661316,-0.7233408093452454,1.8222110271453857
1761132228640598500,4.1575986328125,0.47937649488449097,-0.2651918828487396,1.6071864366531372
1761132228650598400,4.167598388671875,-0.27870726585388184,0.2393828183412552,1.103833556175232
1761132228660598500,4.1775986328125,-0.73685622215271,0.591241180896759,0.5772676467895508
1761132228670598400,4.187598388671875,-1.0190759897232056,0.5356524586677551,0.21563543379306793
1761132228680598500,4.1975986328125,-1.146135926246643,0.2644282877445221,0.08429940044879913
1761132228690598400,4.207598388671875,-1.1192578077316284,-0.0849866271018982,0.10873401165008545
1761132228700598500,4.2175986328125,-1.0093021392822266,-0.26824620366096497,0.39767327904701233
1761132228710599200,4.22759912109375,-0.9341656565666199,-0.1912771761417389,0.8857545852661133
1761132228720599300,4.237599365234375,-0.8767443299293518,0.07383833825588226,1.3848315477371216
1761132228730599400,4.247599365234375,-0.775340735912323,0.40370556712150574,1.7825047969818115
1761132228740599300,4.257599365234375,-0.6629415154457092,0.7207446098327637,2.03540301322937
1761132228750599400,4.267599365234375,-0.5242751240730286,0.9235519170761108,2.1148154735565186
1761132228760599300,4.277599365234375,-0.27259862422943115,0.9290496706962585,2.0445659160614014
1761132228770599400,4.287599365234375,0.09514226019382477,0.8264243006706238,1.957212209701538
1761132228780599300,4.297599365234375,0.4726569950580597,0.6743188500404358,1.9370536804199219
1761132228790599400,4.307599365234375,0.7267768979072571,0.3945426046848297,1.9517145156860352
1761132228800599300,4.317599365234375,0.7976372838020325,-0.07215845584869385,1.938886284828186
1761132228810598400,4.327598388671875,0.5673410892486572,-0.3720932900905609,1.7544050216674805
1761132228820598500,4.3375986328125,0.23808473348617554,-0.5700136423110962,1.3646728992462158
1761132228830598400,4.347598388671875,-0.12538009881973267,-0.6256023645401001,0.7855727076530457
1761132228840598500,4.3575986328125,-0.47418415546417236,-0.4875468313694,0.10506882518529892
1761132228850598400,4.367598388671875,-0.7802276611328125,-0.216322660446167,-0.5571091175079346
1761132228860598500,4.3775986328125,-1.010523796081543,0.14042264223098755,-1.0983357429504395
1761132228870598400,4.387598388671875,-1.1418598890304565,0.40920335054397583,-1.46424400806427
1761132228880598500,4.3975986328125,-1.1632401943206787,0.4458552598953247,-1.6187928915023804
1761132228890598400,4.407598388671875,-1.0832167863845825,0.349338561296463,-1.5723671913146973
1761132228900598500,4.4175986328125,-0.9066767692565918,0.17707456648349762,-1.3842206001281738
1761132228910599200,4.42759912109375,-0.6928738951683044,0.02802344225347042,-1.1246029138565063
1761132228920599300,4.437599365234375,-0.5096143484115601,-0.11797334998846054,-0.9126327037811279
1761132228930599200,4.44759912109375,-0.3831652104854584,-0.25419628620147705,-0.8228355050086975
1761132228940599300,4.457599365234375,-0.26343563199043274,-0.3421608805656433,-0.8442157506942749
1761132228950599200,4.46759912109375,-0.1290452778339386,-0.34460434317588806,-0.9456194043159485
1761132228960599300,4.477599365234375,-0.0007635815418325365,-0.26824620366096497,-1.1087204217910767
1761132228970599200,4.48759912109375,0.10491610318422318,-0.13813190162181854,-1.2834278345108032
1761132228980599300,4.497599365234375,0.21792617440223694,-0.041004329919815063,-1.4269812107086182
1761132228990599200,4.50759912109375,0.3675881624221802,-0.041004329919815063,-1.5137240886688232
1761132229000599300,4.517599365234375,0.566119372844696,-0.1253037303686142,-1.5302174091339111
1761132229010598400,4.527598388671875,0.7866417169570923,-0.22915083169937134,-1.4581353664398193
1761132229020598300,4.537598388671875,0.9167560338973999,-0.2957351505756378,-1.291369080543518
1761132229030598400,4.547598388671875,0.822682797908783,-0.34582608938217163,-0.9175195693969727
1761132229040598300,4.557598388671875,0.7548767328262329,-0.36903896927833557,-0.6004805564880371
1761132229050598400,4.567598388671875,0.8080220222473145,-0.43623414635658264,-0.21563543379306793
1761132229060598300,4.577598388671875,0.8972083330154419,-0.3476586937904358,0.2932153046131134
1761132229070598400,4.587598388671875,0.8849910497665405,-0.31039589643478394,0.627358615398407
1761132229080598300,4.597598388671875,0.7402159571647644,-0.4087451994419098,0.46792277693748474
1761132229090598400,4.607598388671875,0.4787656366825104,-0.6872997879981995,-0.2773328125476837
1761132229100598300,4.617598388671875,0.23808473348617554,-1.073366641998291,-1.4080443382263184
1761132229110599200,4.62759912109375,0.1385136991739273,-1.8467220067977905,-2.640770435333252
1761132229120599300,4.637599365234375,0.38469240069389343,-2.799060821533203,-3.579059362411499
1761132229130599200,4.64759912109375,0.9656252264976501,-3.309133291244507,-3.7592647075653076
1761132229140599300,4.657599365234375,1.9588921070098877,-2.7471373081207275,-3.1276299953460693
1761132229150599200,4.66759912109375,3.076775550842285,-2.848541021347046,-2.2956316471099854
1761132229160599300,4.677599365234375,3.448181629180908,-1.5028048753738403,-0.789237916469574
1761132229170599200,4.68759912109375,2.4084889888763428,0.2027309089899063,0.7867944240570068
1761132229180599300,4.697599365234375,1.2930489778518677,0.8502480387687683,1.9352210760116577
1761132229190599200,4.70759912109375,0.2551889419555664,0.8044331669807434,2.3524420261383057
1761132229200599300,4.717599365234375,-0.7405213713645935,0.32795828580856323,2.102598190307617
1761132229210598400,4.727598388671875,-1.3660473823547363,-0.12774719297885895,1.6316211223602295
1761132229220598300,4.737598388671875,-1.5853480100631714,-0.023900102823972702,1.4471397399902344
1761132229230598400,4.747598388671875,-1.4527902603149414,0.4067598879337311,1.6505578756332397
1761132229240598300,4.757598388671875,-1.0477865934371948,0.7421249151229858,2.037846565246582
1761132229250598400,4.767598388671875,-0.48640143871307373,0.7354053854942322,2.476447820663452
1761132229260598300,4.777598388671875,0.2588541507720947,0.29680415987968445,3.0476067066192627
1761132229270598400,4.787598388671875,0.4671591818332672,-0.01412625890225172,3.282789945602417
1761132229280598300,4.797598388671875,0.42012256383895874,-0.23892466723918915,3.3066136837005615
1761132229290598400,4.807598388671875,0.20754146575927734,-0.33055445551872253,3.107471466064453
1761132229300598300,4.817598388671875,0.04199698567390442,-0.31589367985725403,2.7433958053588867
1761132229310599200,4.82759912109375,-0.1498146951198578,-0.17295122146606445,2.280970811843872
1761132229320599300,4.837599365234375,-0.35384368896484375,0.059177570044994354,1.8490891456604004
1761132229330599200,4.84759912109375,-0.493731826543808,0.2650391459465027,1.5247195959091187
1761132229340599300,4.857599365234375,-0.6543893814086914,0.42386412620544434,1.2205088138580322
1761132229350599200,4.86759912109375,-0.6708827614784241,0.43791401386260986,0.9254608750343323
1761132229360599300,4.877599365234375,-0.6733261942863464,0.34811684489250183,0.6603453159332275
1761132229370599200,4.88759912109375,-0.6910412907600403,0.21555908024311066,0.43127086758613586
1761132229380599300,4.897599365234375,-0.7111998796463013,0.09460775554180145,0.22052235901355743
1761132229390599200,4.90759912109375,-0.6934847831726074,0.012140946462750435,0.012828170321881771
1761132229400599300,4.917599365234375,-0.6427829265594482,-0.03978259861469269,-0.18325957655906677
1761132229410598400,4.927598388671875,-0.5682573914527893,-0.06238461285829544,-0.37079519033432007
1761132229420598300,4.937598388671875,-0.5004513263702393,-0.044058654457330704,-0.5247332453727722
1761132229430598400,4.947598388671875,-0.45036038756370544,0.009697485715150833,-0.6304129362106323
1761132229440598300,4.957598388671875,-0.4356996417045593,0.06039930135011673,-0.6902777552604675
1761132229450598400,4.967598388671875,-0.4680754840373993,0.12392928451299667,-0.7104362845420837
1761132229460598300,4.977598388671875,-0.5053382515907288,0.18990273773670197,-0.7098253965377808
1761132229470598400,4.987598388671875,-0.5236642360687256,0.26687175035476685,-0.7079927921295166
1761132229480598300,4.997598388671875,-0.5096143484115601,0.4165337383747101,-0.7287622094154358
1761132229490598400,5.007598388671875,-0.3019201457500458,0.5619196891784668,-0.8668177723884583
1761132229500598300,5.017598388671875,-0.1394299864768982,0.6248387694358826,-0.941343367099762
1761132229510599200,5.02759912109375,-0.020922135561704636,0.6364452242851257,-0.9908234477043152
1761132229520599300,5.037599365234375,0.08964447677135468,0.5209916830062866,-1.0464121103286743
1761132229530599200,5.04759912109375,0.17821992933750153,0.3804926872253418,-1.0751228332519531
1761132229540599000,5.05759912109375,0.19532416760921478,0.2955824136734009,-1.0403034687042236
1761132229550599200,5.06759912109375,0.17699819803237915,0.3261256814002991,-0.902247965335846
1761132229560599000,5.07759912109375,0.19776763021945953,0.5582544803619385,-0.645684540271759
1761132229570599200,5.08759912109375,0.2588541507720947,0.8972846865653992,-0.38667771220207214
1761132229580599300,5.097599365234375,0.2955060601234436,1.180726170539856,-0.313373863697052
1761132229590599200,5.10759912109375,0.26801711320877075,1.2265410423278809,-0.5363397002220154
1761132229600599300,5.117599365234375,0.15012013912200928,0.7360162734985352,-1.0604621171951294
1761132229610598400,5.127598388671875,-0.01725694350898266,-0.2419789880514145,-1.550986886024475
1761132229620598300,5.137598388671875,-0.14309518039226532,-1.5693892240524292,-1.8613064289093018
1761132229630598400,5.147598388671875,-0.18280142545700073,-2.971324920654297,-1.9620991945266724
1761132229640598300,5.157598388671875,-0.08689557760953903,-3.917555093765259,-1.9431623220443726
1761132229650598400,5.167598388671875,0.30283644795417786,-4.335387229919434,-1.807550311088562
1761132229660598300,5.177598388671875,0.7903069257736206,-3.5650858879089355,-1.2003501653671265
1761132229670598400,5.187598388671875,0.9705121517181396,-1.6995034217834473,-0.10018189996480942
1761132229680598300,5.197598388671875,0.8184067010879517,-0.24747678637504578,0.9462302923202515
1761132229690598400,5.207598388671875,0.447000652551651,0.3096323311328888,1.4526375532150269
1761132229700598300,5.217598388671875,0.09697485715150833,0.32673653960227966,1.5796974897384644
1761132229710599200,5.22759912109375,-0.3000875413417816,0.15080735087394714,1.4007140398025513
1761132229730599200,5.24759912109375,-1.306182622909546,-0.31589367985725403,0.816726803779602
1761132229740599300,5.257599365234375,-1.4045319557189941,-0.031230485066771507,0.9957103729248047
1761132229750599200,5.26759912109375,-1.2237157821655273,0.3853796124458313,1.264491081237793
1761132229760599300,5.277599365234375,-0.8449793457984924,0.7476227283477783,1.5271631479263306
1761132229770599200,5.28759912109375,-0.4082106947898865,0.8850674033164978,1.7562376260757446
1761132229780599300,5.297599365234375,-0.04046982154250145,0.7305184602737427,1.995696783065796
1761132229790599200,5.30759912109375,0.1495092660188675,0.3505602777004242,2.264477491378784
1761132229800599300,5.317599365234375,0.1647808998823166,-0.19921842217445374,2.4740042686462402
1761132229810598400,5.327598388671875,0.08475755155086517,-0.7477754354476929,2.5747969150543213
1761132229820598300,5.337598388671875,-0.07101308554410934,-1.080696940422058,2.5589144229888916
1761132229830598400,5.347598388671875,-0.2719877362251282,-1.2071460485458374,2.3939809799194336
1761132229840598500,5.3575986328125,-0.35873061418533325,-1.1222357749938965,2.0647244453430176
1761132229850598400,5.367598388671875,-0.43936482071876526,-0.8852201104164124,1.6090190410614014
1761132229860598500,5.3775986328125,-0.5395467281341553,-0.6127741932868958,1.083064079284668
1761132229870598400,5.387598388671875,-0.6611089110374451,-0.3629303276538849,0.5351179838180542
1761132229880598300,5.397598388671875,-0.8987354636192322,-0.09659306704998016,0.04642575979232788
1761132229890598400,5.407598388671875,-1.2108876705169678,0.18929186463356018,-0.3543018400669098
1761132229900598300,5.417598388671875,-1.5028811693191528,0.41409027576446533,-0.6884451508522034
1761132229910599200,5.42759912109375,-1.7014124393463135,0.572304368019104,-0.9645562171936035
1761132229920599300,5.437599365234375,-1.733788251876831,0.6712645292282104,-1.1527026891708374
1761132229930599200,5.44759912109375,-1.6036739349365234,0.7042512893676758,-1.2516628503799438
1761132229940599300,5.457599365234375,-1.3660473823547363,0.6871470212936401,-1.284038782119751
1761132229950599200,5.46759912109375,-0.9781479835510254,0.6798166632652283,-1.246165156364441
1761132229960599300,5.477599365234375,-0.774118959903717,0.6963100433349609,-1.1924089193344116
1761132229970599200,5.48759912109375,-0.6397286057472229,0.7354053854942322,-1.1465940475463867
1761132229980599000,5.49759912109375,-0.5352706909179688,0.762283444404602,-1.1270463466644287
1761132229990599200,5.50759912109375,-0.4265366494655609,0.7366271018981934,-1.1447614431381226
1761132230000599000,5.51759912109375,-0.2793181240558624,0.6938665509223938,-1.1753047704696655
1761132230010598400,5.527598388671875,-0.12049316614866257,0.7091382145881653,-1.2046263217926025
1761132230020598300,5.537598388671875,0.027947084978222847,0.7329619526863098,-1.2602150440216064
1761132230030598400,5.547598388671875,0.16722436249256134,0.7219663858413696,-1.340238332748413
1761132230040598300,5.557598388671875,0.3052799105644226,0.6052911281585693,-1.4245377779006958
1761132230050598400,5.567598388671875,0.42500948905944824,0.39881864190101624,-1.4819591045379639
1761132230060598300,5.577598388671875,0.5429064631462097,0.20761781930923462,-1.4648548364639282
1761132230070598400,5.587598388671875,0.6253733038902283,0.07078400999307632,-1.3640620708465576
1761132230080598300,5.597598388671875,0.6033821702003479,0.2131156176328659,-1.10139000415802
1761132230090598400,5.607598388671875,0.46471574902534485,0.5887977480888367,-0.8038986921310425
1761132230100598300,5.617598388671875,0.2900082767009735,0.8215373754501343,-0.789237916469574
1761132230110599200,5.62759912109375,0.15745051205158234,0.6785949468612671,-1.171028733253479
1761132230120599300,5.637599365234375,0.20631973445415497,-0.21815524995326996,-1.9181169271469116
1761132230130599200,5.64759912109375,0.518471896648407,-1.9621754884719849,-2.7672195434570312
1761132230140599300,5.657599365234375,0.9692904353141785,-3.826536178588867,-3.4153475761413574
1761132230150599200,5.66759912109375,1.29549241065979,-5.011614799499512,-3.676797866821289
1761132230160599300,5.677599365234375,1.4787520170211792,-4.858287811279297,-3.224146842956543
1761132230170599200,5.68759912109375,2.1061105728149414,-3.124652147293091,-2.140471935272217
1761132230180599300,5.697599365234375,1.5606080293655396,0.6767623424530029,-0.2883284091949463
1761132230190599200,5.70759912109375,1.0389291048049927,1.7592155933380127,0.3585779070854187
1761132230200599300,5.717599365234375,0.48426342010498047,1.9381990432739258,0.2028072625398636
1761132230210598400,5.727598388671875,-0.10644327104091644,1.817247748374939,-0.47830748558044434
1761132230220598300,5.737598388671875,-0.7142542004585266,1.3865877389907837,-1.4813482761383057
1761132230230598400,5.747598388671875,-1.400255799293518,0.5136613249778748,-2.3518311977386475
1761132230240598300,5.757598388671875,-2.0734293460845947,-0.4282929003238678,-2.4379632472991943
1761132230250598400,5.767598388671875,-2.331214427947998,-0.9707412123680115,-1.7055357694625854
1761132230260598300,5.777598388671875,-2.1003074645996094,-1.1020772457122803,-0.5143485069274902
1761132230270598400,5.787598388671875,-1.564578652381897,-0.7318929433822632,0.7709119319915771
1761132230280598300,5.797598388671875,-0.9036223888397217,-0.38553231954574585,1.7660114765167236
1761132230290598400,5.807598388671875,-0.31230485439300537,-0.35987597703933716,2.320066213607788
1761132230300598300,5.817598388671875,0.048105638474226,-0.45089492201805115,2.5222625732421875
1761132230310599200,5.82759912109375,0.17150041460990906,-0.4191299080848694,2.423302412033081
1761132230320599300,5.837599365234375,0.14217889308929443,-0.2609158158302307,2.119091510772705
1761132230330599200,5.84759912109375,-0.00809396430850029,-0.06543894112110138,1.709811806678772
1761132230340599300,5.857599365234375,-0.26404649019241333,0.11904236674308777,1.3408491611480713
1761132230350599200,5.86759912109375,-0.5572618246078491,0.3499494194984436,1.1050552129745483
1761132230360599300,5.877599365234375,-0.8235990405082703,0.5277112126350403,0.9474520087242126
1761132230370599200,5.88759912109375,-0.9867000579833984,0.6443864703178406,0.8582656979560852
1761132230380599300,5.897599365234375,-1.0740537643432617,0.6785949468612671,0.7757988572120667
1761132230390599200,5.90759912109375,-1.1895073652267456,0.5405393838882446,0.6530149579048157
1761132230400599300,5.917599365234375,-1.40269935131073,0.330401748418808,0.5057964324951172
1761132230410598400,5.927598388671875,-1.5389223098754883,0.10315986722707748,0.3188716471195221
1761132230420598300,5.937598388671875,-1.715462327003479,-0.15340353548526764,-0.10262536257505417
1761132230430598400,5.947598388671875,-1.7203491926193237,-0.12347114086151123,-0.35674530267715454
1761132230440598300,5.957598388671875,-1.6360498666763306,0.023136520758271217,-0.5485569834709167
1761132230450598400,5.967598388671875,-1.458898901939392,0.15935947000980377,-0.6548475623130798
1761132230460598300,5.977598388671875,-1.2536481618881226,0.2283872365951538,-0.6670648455619812
1761132230470598400,5.987598388671875,-1.0587822198867798,0.12881620228290558,-0.6041457056999207
1761132230480598300,5.997598388671875,-0.8871290683746338,-0.1863902509212494,-0.5021312236785889
1761132230490598400,6.007598388671875,-0.746019184589386,-0.5797874927520752,-0.33719760179519653
1761132230500598300,6.017598388671875,-0.5981897711753845,-1.003727912902832,-0.10384709388017654
1761132230510599200,6.02759912109375,-0.403323769569397,-1.3342061042785645,0.15515977144241333
1761132230520599300,6.037599365234375,-0.18219055235385895,-1.4692072868347168,0.32986724376678467
1761132230530599200,6.04759912109375,0.0682641938328743,-1.4563790559768677,0.3139847218990326
1761132230540599300,6.057599365234375,0.37430769205093384,-1.3891838788986206,0.19975294172763824
1761132230550599200,6.06759912109375,0.6235406994819641,-1.242576241493225,0.07635815441608429
1761132230560599300,6.077599365234375,0.7725918292999268,-1.0361038446426392,-0.03787364438176155
1761132230570599200,6.08759912109375,0.8165740966796875,-0.8125271201133728,-0.15882496535778046
1761132230580599300,6.097599365234375,0.7463245987892151,-0.51992267370224,-0.1918116807937622
1761132230590599200,6.10759912109375,0.5221370458602905,-0.1149190217256546,-0.18509216606616974
1761132230600599300,6.117599365234375,0.25641068816185,0.4696790277957916,-0.21441370248794556
1761132230610598400,6.127598388671875,0.1342376321554184,0.9681450724601746,-0.3139847218990326
1761132230620598500,6.1375986328125,0.21670444309711456,1.1880565881729126,-0.3799581825733185
1761132230630598400,6.147598388671875,0.4531092941761017,0.7751116156578064,-0.3897320330142975
1761132230640598500,6.1575986328125,0.7102835774421692,-0.37026068568229675,-0.35552358627319336
1761132230650598400,6.167598388671875,1.0829113721847534,-2.505845546722412,-0.03298672288656235
1761132230660598500,6.1775986328125,1.3907874822616577,-3.51621675491333,0.23579397797584534
1761132230670598400,6.187598388671875,1.7878499031066895,-3.949320077896118,0.5485569834709167
1761132230680598500,6.1975986328125,2.138486623764038,-4.007963180541992,0.9993755221366882
1761132230690598400,6.207598388671875,2.213623046875,-3.290196657180786,1.7592918872833252
1761132230700598500,6.2175986328125,1.944231390953064,-1.984777569770813,2.6316075325012207
1761132230710599200,6.22759912109375,1.467145562171936,-0.7691556811332703,3.181997060775757
1761132230720599300,6.237599365234375,0.8770498037338257,0.12637275457382202,3.2168164253234863
1761132230730599400,6.247599365234375,0.3462078869342804,0.8636870980262756,2.9077186584472656
1761132230740599300,6.257599365234375,-0.006261368747800589,1.445841670036316,2.492330312728882
1761132230750599400,6.267599365234375,-0.1736384481191635,1.7262288331985474,2.034792184829712
1761132230760599300,6.277599365234375,-0.22861631214618683,1.7207310199737549,1.5790866613388062
1761132230770599200,6.28759912109375,-0.18585574626922607,1.4831044673919678,1.2027937173843384
1761132230780599300,6.297599365234375,-0.0025961773935705423,1.104367971420288,1.0555751323699951
1761132230790599200,6.30759912109375,0.28756481409072876,0.7402923107147217,1.2113457918167114
1761132230800599300,6.317599365234375,0.5734497308731079,0.401262104511261,1.578475832939148
1761132230810598400,6.327598388671875,0.7499898076057434,0.1123228445649147,2.03540301322937
1761132230820598500,6.3375986328125,0.8196284174919128,-0.01290452852845192,2.5130996704101562
1761132230830598400,6.347598388671875,0.8055785298347473,0.0035888333804905415,2.9303205013275146
1761132230840598500,6.3575986328125,0.7102835774421692,0.1074359267950058,3.2259793281555176
1761132230850598400,6.367598388671875,0.5392413139343262,0.16913332045078278,3.366478443145752
1761132230860598500,6.3775986328125,0.30344730615615845,0.13920091092586517,3.2919528484344482
1761132230870598400,6.387598388671875,0.0529925599694252,0.0005345070967450738,2.967583417892456
1761132230880598500,6.3975986328125,-0.26771169900894165,-0.27496573328971863,2.1007654666900635
1761132230890598400,6.407598388671875,-0.48945578932762146,-0.33971744775772095,1.3524556159973145
1761132230900598300,6.417598388671875,-0.7796167731285095,-0.31406110525131226,0.617584764957428
1761132230910599200,6.42759912109375,-1.1400272846221924,-0.1955532431602478,0.04337143152952194
1761132230920599000,6.43759912109375,-1.4729487895965576,-0.05627596005797386,-0.3433062732219696
1761132230930599200,6.44759912109375,-1.7405078411102295,-0.004352414980530739,-0.5595525503158569
1761132230940599000,6.45759912109375,-1.93293035030365,-0.011071932502090931,-0.6120869517326355
1761132230950599200,6.46759912109375,-2.0221166610717773,0.020693060010671616,-0.5076290369033813
1761132230960599000,6.47759912109375,-2.037388324737549,-0.017180584371089935,-0.3530801236629486
1761132230970599200,6.48759912109375,-2.0819814205169678,-0.0996473953127861,-0.26022860407829285
1761132230980599000,6.49759912109375,-2.2542455196380615,-0.01595885492861271,-0.20525072515010834
1761132230990599200,6.50759912109375,-2.668412208557129,0.7115816473960876,0.16920967400074005
1761132231000599000,6.51759912109375,-2.9634599685668945,0.999299168586731,0.6902777552604675
1761132231010598400,6.527598388671875,-3.029433488845825,0.49289190769195557,1.0708467960357666
1761132231020598300,6.537598388671875,-3.012329339981079,-0.2853504419326782,1.3280210494995117
1761132231030598400,6.547598388671875,-3.11006760597229,-0.6054438352584839,1.4025466442108154
1761132231040598300,6.557598388671875,-3.1454977989196777,-0.6543130278587341,1.4868459701538086
1761132231050598400,6.567598388671875,-2.8687758445739746,-0.8852201104164124,1.4758504629135132
1761132231060598300,6.577598388671875,-2.3690881729125977,-1.2480740547180176,1.197906732559204
1761132231070598400,6.587598388671875,-1.7411186695098877,-1.404455542564392,0.7574729323387146
1761132231080598300,6.597598388671875,-1.0905472040176392,-1.2474632263183594,0.294437050819397
1761132231090598400,6.607598388671875,-0.6250678896903992,-1.1466704607009888,-0.07330382615327835
1761132231100598300,6.617598388671875,-0.3599523603916168,-1.1436160802841187,-0.3072652220726013
1761132231110599200,6.62759912109375,0.01817324012517929,-0.0037415495608001947,-0.6065891981124878
1761132231120599300,6.637599365234375,0.23686300218105316,0.9363800883293152,-0.8546004891395569
1761132231130599200,6.64759912109375,0.46899178624153137,0.610788881778717,-1.309084177017212
1761132231140599300,6.657599365234375,0.5429064631462097,-0.4276820421218872,-1.655444860458374
1761132231150599200,6.66759912109375,0.3156646192073822,-1.0165561437606812,-1.6139060258865356
1761132231160599300,6.677599365234375,-0.05268712714314461,-1.2871694564819336,-1.301142930984497
1761132231170599200,6.68759912109375,-0.4723515510559082,-1.802128791809082,-1.1380419731140137
1761132231180599300,6.697599365234375,-0.8217664957046509,-2.901686191558838,-1.463022232055664
1761132231190599200,6.70759912109375,-0.9744827747344971,-3.931605100631714,-2.0531179904937744
1761132231200599300,6.717599365234375,-0.9182831645011902,-3.988415479660034,-2.56563401222229
1761132231210598400,6.727598388671875,-0.6727153658866882,-3.0293571949005127,-2.954144239425659
1761132231220598300,6.737598388671875,-0.3061962127685547,-1.4191163778305054,-3.1508429050445557
1761132231230598400,6.747598388671875,-0.06368270516395569,-0.03611740842461586,-3.1221323013305664
1761132231240598300,6.757598388671875,0.08292495459318161,0.5949063897132874,-2.911383867263794
1761132231250598400,6.767598388671875,0.20082195103168488,0.5008331537246704,-2.6193902492523193
1761132231260598300,6.777598388671875,0.33399057388305664,0.007254024967551231,-2.2675318717956543
1761132231270598400,6.787598388671875,0.4531092941761017,-0.4380667507648468,-1.8387043476104736
1761132231280598300,6.797598388671875,0.46593746542930603,-0.7068474292755127,-1.4220943450927734
1761132231290598400,6.807598388671875,0.35292738676071167,-0.8864418268203735,-1.0965031385421753
1761132231300598300,6.817598388671875,0.15622878074645996,-1.0299952030181885,-0.8674286603927612
1761132231310599200,6.82759912109375,-0.07040221989154816,-1.1393400430679321,-0.7018841505050659
1761132231320599300,6.837599365234375,-0.2646573781967163,-1.0935251712799072,-0.5674937963485718
1761132231330599200,6.84759912109375,-0.40454551577568054,-0.8681158423423767,-0.4599815309047699
1761132231340599300,6.857599365234375,-0.5487096905708313,-0.5351943373680115,-0.4355469346046448
1761132231350599200,6.86759912109375,-0.57436603307724,-0.5022075772285461,-0.4709770977497101
1761132231360599300,6.877599365234375,-0.5804746747016907,-0.5803983211517334,-0.45875978469848633
1761132231370599200,6.88759912109375,-0.5981897711753845,-0.6512587070465088,-0.3292563557624817
1761132231380599300,6.897599365234375,-0.5865833759307861,-0.6616434454917908,-0.08185594528913498
1761132231390599200,6.90759912109375,-0.5346598029136658,-0.6579782366752625,0.2278527319431305
1761132231400599300,6.917599365234375,-0.47051894664764404,-0.6298784017562866,0.5106833577156067
1761132231410598400,6.927598388671875,-0.4118759036064148,-0.5535202622413635,0.7336491346359253
1761132231420598300,6.937598388671875,-0.3758348524570465,-0.41179952025413513,0.8943067193031311
1761132231430598400,6.947598388671875,-0.36850446462631226,-0.21998783946037292,0.9737191796302795
1761132231440598300,6.957598388671875,-0.37827831506729126,-0.026343563571572304,0.9841039180755615
1761132231450598400,6.967598388671875,-0.3904955983161926,0.10071640461683273,0.9566149711608887
1761132231460598300,6.977598388671875,-0.4075998365879059,0.19723311066627502,0.9199630618095398
1761132231470598400,6.987598388671875,-0.43997567892074585,0.32734742760658264,0.8827002644538879
1761132231480598300,6.997598388671875,-0.4833471179008484,0.4867832362651825,0.8723155856132507
1761132231490598400,7.007598388671875,-0.5236642360687256,0.6596581339836121,0.8851437568664551
1761132231500598300,7.017598388671875,-0.5450445413589478,0.8349764347076416,0.8991936445236206
1761132231510599200,7.02759912109375,-0.5578727126121521,0.9632581472396851,0.8961393237113953
1761132231520599300,7.037599365234375,-0.5896376967430115,0.9302713871002197,0.856433093547821
1761132231530599200,7.04759912109375,-0.6556110978126526,0.6602689623832703,0.7483099102973938
1761132231540599300,7.057599365234375,-0.735634446144104,0.19662225246429443,0.5400048494338989
1761132231550599200,7.06759912109375,-0.8046622276306152,-0.37087157368659973,0.2382374405860901
1761132231560599300,7.077599365234375,-0.8376489877700806,-0.8186357617378235,-0.10873401165008545
1761132231570599200,7.08759912109375,-0.8193230032920837,-0.9139307737350464,-0.5302310585975647
1761132231580599300,7.097599365234375,-0.8009970784187317,-0.5865070223808289,-0.6914994716644287
1761132231590599200,7.10759912109375,-0.7900014519691467,-0.04589125141501427,-0.7660250067710876
1761132231600599300,7.117599365234375,-0.7533495426177979,0.5784130096435547,-0.788016140460968
1761132231620598500,7.1375986328125,-0.4882340431213379,1.4812718629837036,-0.7165449261665344
1761132231630598400,7.147598388671875,-0.32879820466041565,1.5906167030334473,-0.6163630485534668
1761132231640598500,7.1575986328125,-0.22067506611347198,1.4714980125427246,-0.4642575979232788
1761132231650598400,7.167598388671875,-0.1485929638147354,1.1782827377319336,-0.2840523421764374
1761132231660598300,7.177598388671875,-0.09178250283002853,0.7659486532211304,-0.1062905490398407
1761132231670598400,7.187598388671875,-0.00015271631127689034,0.3053562641143799,0.045204028487205505
1761132231680598300,7.197598388671875,0.14828753471374512,-0.04772384837269783,0.16493362188339233
1761132231690598400,7.207598388671875,0.32421672344207764,-0.14729487895965576,0.2321287989616394
1761132231700598300,7.217598388671875,0.5001459121704102,0.005421428941190243,0.23151792585849762
1761132231710599200,7.22759912109375,0.6369797587394714,0.27298039197921753,0.17959438264369965
1761132231720599300,7.237599365234375,0.6925684809684753,0.6254496574401855,0.13500121235847473
1761132231730599200,7.24759912109375,0.6546948552131653,0.9559277296066284,0.12522737681865692
1761132231740599300,7.257599365234375,0.5673410892486572,1.1495720148086548,0.14294247329235077
1761132231750599200,7.26759912109375,0.4934264123439789,1.172174096107483,0.1875356286764145
1761132231760599300,7.277599365234375,0.3920227587223053,1.0811551809310913,0.3897320330142975
1761132231770599200,7.28759912109375,0.294895201921463,0.5075526833534241,0.4996877610683441
1761132231780599300,7.297599365234375,0.3065016269683838,-0.11552988737821579,0.5363397002220154
1761132231790599200,7.30759912109375,0.3865249752998352,-0.47166433930397034,0.5064072608947754
1761132231800599300,7.317599365234375,0.41340306401252747,-0.538859486579895,0.42271876335144043
1761132231810598400,7.327598388671875,0.2802344262599945,-0.2859613001346588,0.2767219543457031
