time,seconds_elapsed,z,y,x
1761131570687362300,0.1193623046875,-1.20317542552948,-0.82917320728302,-0.4516584873199463
1761131570720176000,0.152176025390625,-1.20317542552948,-0.82917320728302,-0.4516584873199463
1761131570730176300,0.16217626953125,-1.20317542552948,-0.82917320728302,-0.4516584873199463
1761131570740176400,0.17217626953125,-0.8427649736404419,-0.6795112490653992,-0.7412086129188538
1761131570750176300,0.18217626953125,-0.8952993750572205,-0.8542186617851257,-0.7442629337310791
1761131570760176400,0.19217626953125,-0.9930378198623657,-0.9440158605575562,-0.6398049592971802
1761131570770176300,0.20217626953125,-1.0400744676589966,-0.7876343727111816,-0.5103015303611755
1761131570780176400,0.21217626953125,-1.033965826034546,-0.3765220642089844,-0.31726813316345215
1761131570790176500,0.222176513671875,-1.0156397819519043,0.06085744872689247,-0.1633300930261612
1761131570800176400,0.23217626953125,-0.9704357981681824,0.3589596748352051,-0.072311170399189
1761131570810176500,0.242176513671875,-0.8574257493019104,0.5403866767883301,0.0071013085544109344
1761131570820176000,0.25217578125,-0.7053202986717224,0.5745950937271118,0.06574437022209167
1761131570830176000,0.262176025390625,-0.5611560940742493,0.4597524404525757,0.0846811980009079
1761131570840175900,0.27217578125,-0.4432590901851654,0.26427558064460754,0.05841398984193802
1761131570850176000,0.282176025390625,-0.32414036989212036,0.027870727702975273,0.023594669997692108
1761131570860174300,0.29217431640625,-0.24900394678115845,-0.15172365307807922,-0.006337726954370737
1761131570870174500,0.302174560546875,-0.23006711900234222,-0.24579690396785736,-0.02710714563727379
1761131570880174300,0.31217431640625,-0.25022566318511963,-0.2629011273384094,-0.04482223838567734
1761131570890174500,0.322174560546875,-0.29481884837150574,-0.19998200237751007,-0.054596081376075745
1761131570900174300,0.33217431640625,-0.34979671239852905,-0.05887213721871376,-0.04237877577543259
1761131570910174500,0.342174560546875,-0.4072180390357971,0.12622003257274628,-0.011224648915231228
1761131570920174300,0.35217431640625,-0.44997861981391907,0.31436651945114136,0.024205535650253296
1761131570930174500,0.362174560546875,-0.4695262908935547,0.47563496232032776,0.0541379339993
1761131570940174300,0.37217431640625,-0.4676937162876129,0.5752059817314148,0.06085744872689247
1761131570950174500,0.382174560546875,-0.4469242990016937,0.6332381963729858,0.0443640872836113
1761131570960174300,0.39217431640625,-0.4072180390357971,0.663170576095581,0.014431691728532314
1761131570970174500,0.402174560546875,-0.3772856593132019,0.6662248969078064,-0.019776761531829834
1761131570980174600,0.412174560546875,-0.39011383056640625,0.6124687790870667,-0.04604396969079971
1761131570990174500,0.422174560546875,-0.4267657399177551,0.5073999166488647,-0.052152618765830994
1761131571000174600,0.432174560546875,-0.4738023579120636,0.3369685411453247,-0.05642867833375931
1761131571010174500,0.442174560546875,-0.5202280879020691,0.10850493609905243,-0.07108944654464722
1761131571020174000,0.452174072265625,-0.5935319662094116,-0.17615826427936554,-0.11507174372673035
1761131571030174000,0.462174072265625,-0.6973790526390076,-0.4809800088405609,-0.19448421895503998
1761131571040174000,0.472174072265625,-0.8244389891624451,-0.7656432390213013,-0.30749428272247314
1761131571050174000,0.482174072265625,-0.9551641941070557,-0.9788352251052856,-0.4412737786769867
1761131571060173300,0.49217333984375,-1.0565677881240845,-1.1083385944366455,-0.580551028251648
1761131571070173200,0.502173095703125,-1.1005500555038452,-1.1089495420455933,-0.6990588903427124
1761131571080173000,0.512173095703125,-1.0877219438552856,-0.9660070538520813,-0.7589237093925476
1761131571090173200,0.522173095703125,-1.0394635200500488,-0.7112762331962585,-0.7460955381393433
1761131571100173000,0.532173095703125,-0.9734901189804077,-0.3844633102416992,-0.6782894730567932
1761131571110173200,0.542173095703125,-0.8952993750572205,-0.033826664090156555,-0.5823836326599121
1761131571120173300,0.55217333984375,-0.8091673851013184,0.3155882656574249,-0.4815908968448639
1761131571130173400,0.56217333984375,-0.7102072238922119,0.6472880840301514,-0.3856850564479828
1761131571140173300,0.57217333984375,-0.5984188914299011,0.9258426427841187,-0.30688342452049255
1761131571150173400,0.58217333984375,-0.473191499710083,1.118265151977539,-0.2494620978832245
1761131571160174000,0.592174072265625,-0.3363576829433441,1.2025645971298218,-0.2134210467338562
1761131571170174200,0.60217431640625,-0.2007455974817276,1.1811842918395996,-0.19692768156528473
1761131571180174000,0.612174072265625,-0.06818783283233643,1.0791698694229126,-0.20181460678577423
1761131571190174200,0.62217431640625,0.05276348441839218,0.938670814037323,-0.22258402407169342
1761131571200174000,0.632174072265625,0.12851077318191528,0.8128325939178467,-0.2751184403896332
1761131571210174200,0.64217431640625,0.20731239020824432,0.6497315168380737,-0.334983229637146
1761131571220173300,0.65217333984375,0.2848922908306122,0.33391422033309937,-0.4553236961364746
1761131571230173400,0.66217333984375,0.3239876627922058,-0.122402124106884,-0.5524512529373169
1761131571240173300,0.67217333984375,0.3307071626186371,-0.6349180936813354,-0.706389307975769
1761131571250173400,0.68217333984375,0.3307071626186371,-1.0704649686813354,-0.9091965556144714
1761131571260172500,0.692172607421875,0.3551417887210846,-1.4479796886444092,-1.0826822519302368
1761131571270172400,0.70217236328125,0.3905719518661499,-1.6660585403442383,-1.1755337715148926
1761131571280172500,0.712172607421875,0.4461607038974762,-1.684995412826538,-1.1541534662246704
1761131571290172400,0.72217236328125,0.5292384028434753,-1.5218944549560547,-1.0154870748519897
1761131571300172500,0.732172607421875,0.6446918845176697,-1.1675925254821777,-0.7735844850540161
1761131571310172400,0.74217236328125,0.7662540674209595,-0.7552585005760193,-0.46815183758735657
1761131571320172800,0.7521728515625,0.8707120418548584,-0.33742669224739075,-0.132786825299263
1761131571330173000,0.7621728515625,0.9360746145248413,0.05169447138905525,0.2013564556837082
1761131571340172800,0.7721728515625,0.9476810693740845,0.4127158224582672,0.5049564838409424
1761131571350173000,0.7821728515625,0.9269116520881653,0.7199810743331909,0.7218136191368103
1761131571360173800,0.792173828125,0.903698742389679,0.9270643591880798,0.8323802351951599
1761131571370173700,0.802173583984375,0.8945357799530029,1.03274405002594,0.8769733905792236
1761131571380173800,0.812173828125,0.9116400480270386,1.0119746923446655,0.890412449836731
1761131571390173700,0.822173583984375,0.9189704060554504,0.8433758020401001,0.8989645838737488
1761131571400173800,0.832173828125,0.8768206834793091,0.566653847694397,0.9117927551269531
1761131571410173700,0.842173583984375,0.7546476721763611,0.22884538769721985,0.9148470759391785
1761131571420172800,0.8521728515625,0.5518403649330139,-0.14622586965560913,0.8952993750572205
1761131571430173000,0.8621728515625,0.29649871587753296,-0.525573194026947,0.8452084064483643
1761131571440172800,0.8721728515625,0.02038762718439102,-0.8768206834793091,0.7407504916191101
1761131571450173000,0.8821728515625,-0.3528510332107544,-1.2989286184310913,0.45486554503440857
1761131571460172000,0.892172119140625,-0.5452736020088196,-1.4498122930526733,0.21723894774913788
1761131571470172000,0.902171875,-0.708985447883606,-1.4540883302688599,-0.024052819237113
1761131571480172000,0.912172119140625,-0.8543714284896851,-1.350852131843567,-0.24152085185050964
1761131571490172200,0.922172119140625,-0.977155327796936,-1.1559860706329346,-0.39301541447639465
1761131571500172000,0.932172119140625,-1.0590112209320068,-0.8664360046386719,-0.4522693455219269
1761131571510172200,0.942172119140625,-1.0926088094711304,-0.505414605140686,-0.4143957197666168
1761131571520172800,0.9521728515625,-1.0797806978225708,-0.07903069257736206,-0.2983313202857971
1761131571540172800,0.9721728515625,-0.948444664478302,0.776791512966156,0.03520110994577408
1761131571550173000,0.9821728515625,-0.8299368023872375,1.1158217191696167,0.2007455974817276
1761131571560173800,0.992173828125,-0.6808856725692749,1.3406201601028442,0.34002286195755005
1761131571570173700,1.002173583984375,-0.5153411626815796,1.4426345825195312,0.45547640323638916
1761131571580173800,1.012173828125,-0.3333033621311188,1.4346933364868164,0.5550474524497986
1761131571590173700,1.022173583984375,-0.12316570430994034,1.3393983840942383,0.6387359499931335
1761131571600173800,1.032173828125,0.10957395285367966,1.1793516874313354,0.7193701863288879
1761131571610173700,1.042173583984375,0.33681583404541016,1.0125855207443237,0.8134434223175049
1761131571620172800,1.0521728515625,0.5652794241905212,0.8421540856361389,0.9136253595352173
1761131571630173000,1.0621728515625,0.7314347624778748,0.6680575013160706,0.9924269318580627
1761131571640172800,1.0721728515625,0.8652142882347107,0.4988478422164917,1.0687850713729858
1761131571650173000,1.0821728515625,0.9977720379829407,0.3717878460884094,1.1439214944839478
1761131571660172000,1.092172119140625,1.0948995351791382,0.20685423910617828,1.1891255378723145
1761131571670172000,1.102171875,1.1663708686828613,-0.04726569727063179,1.2123384475708008
1761131571680172000,1.112172119140625,1.1688143014907837,-0.34842225909233093,1.2080624103546143
1761131571690172000,1.122171875,1.09734308719635,-0.43272167444229126,1.16835618019104
1761131571700172000,1.132172119140625,0.9941068291664124,-0.48403435945510864,1.1127674579620361
1761131571710172000,1.142171875,0.8670468330383301,-0.49930599331855774,1.0235810279846191
1761131571720172800,1.1521728515625,0.7204391956329346,-0.5432882905006409,0.9062949419021606
1761131571730173000,1.1621728515625,0.5616142153739929,-0.5683337450027466,0.7749589085578918
1761131571740172800,1.1721728515625,0.4009566605091095,-0.5964335799217224,0.6234643459320068
1761131571750173000,1.1821728515625,0.23052527010440826,-0.6306419968605042,0.443869948387146
1761131571760173800,1.192173828125,0.04482223838567734,-0.6801220774650574,0.2459496259689331
1761131571770173700,1.202173583984375,-0.17142406105995178,-0.7583128213882446,0.04314235970377922
1761131571780173800,1.212173828125,-0.4169918894767761,-0.8438339829444885,-0.15538884699344635
1761131571790173700,1.222173583984375,-0.6674466133117676,-0.9238573312759399,-0.3551417887210846
1761131571800173800,1.232173828125,-0.8940776586532593,-0.9867764711380005,-0.5652794241905212
1761131571820173600,1.252173583984375,-1.2080624103546143,-0.9867764711380005,-0.9446267485618591
1761131571830173700,1.262173583984375,-1.3003029823303223,-0.9440158605575562,-1.0808496475219727
1761131571840173600,1.272173583984375,-1.3613895177841187,-0.8774315714836121,-1.1535426378250122
1761131571850173700,1.282173583984375,-1.404150128364563,-0.7754170894622803,-1.1510992050170898
1761131571860172800,1.2921728515625,-1.4389694929122925,-0.6312528848648071,-1.0832931995391846
1761131571870173000,1.3021728515625,-1.4591280221939087,-0.4473824203014374,-0.9678395986557007
1761131571880172800,1.3121728515625,-1.458517074584961,-0.23174700140953064,-0.8328384160995483
1761131571890173000,1.3221728515625,-1.4353042840957642,-0.030772335827350616,-0.7057784199714661
1761131571900172800,1.3321728515625,-1.3925436735153198,0.11583532392978668,-0.6037639379501343
1761131571910173000,1.3421728515625,-1.308244228363037,0.26916250586509705,-0.4858669340610504
1761131571920173800,1.352173828125,-1.2489902973175049,0.3681226670742035,-0.4363868534564972
1761131571930173700,1.362173583984375,-1.1970667839050293,0.4218788146972656,-0.4266130030155182
1761131571940173800,1.372173828125,-1.1524736881256104,0.401720255613327,-0.44921502470970154
1761131571950173700,1.382173583984375,-1.1091022491455078,0.3131448030471802,-0.46448665857315063
1761131571960174600,1.392174560546875,-1.0834459066390991,0.2007455974817276,-0.44432809948921204
1761131571970174700,1.4021748046875,-1.0810023546218872,0.08345946669578552,-0.3789655268192291
1761131571980174600,1.412174560546875,-1.0926088094711304,-0.030772335827350616,-0.27756190299987793
1761131571990174700,1.4221748046875,-1.1036044359207153,-0.0918588638305664,-0.14928019046783447
1761131572000174300,1.43217431640625,-1.1029936075210571,-0.082085020840168,-0.016111571341753006
1761131572010174500,1.442174560546875,-1.0950523614883423,-0.008170322515070438,0.10178542137145996
1761131572020174300,1.45217431640625,-1.0865001678466797,0.11094839870929718,0.19952386617660522
1761131572030174500,1.462174560546875,-1.0755046606063843,0.24411702156066895,0.2709950804710388
1761131572040174300,1.47217431640625,-1.0724502801895142,0.3583488166332245,0.30947959423065186
1761131572050174500,1.482174560546875,-1.0742828845977783,0.4377613067626953,0.3223077654838562
1761131572060173600,1.492173583984375,-1.0779480934143066,0.4738023579120636,0.31436651945114136
1761131572070173400,1.50217333984375,-1.0919979810714722,0.4683045744895935,0.282601535320282
1761131572080173600,1.512173583984375,-1.1133782863616943,0.4395939111709595,0.23739750683307648
1761131572090173400,1.52217333984375,-1.1494193077087402,0.40599632263183594,0.18730655312538147
1761131572100173600,1.532173583984375,-1.20317542552948,0.38950294256210327,0.13904820382595062
1761131572110417700,1.542417724609375,-1.2679271697998047,0.3992767930030823,0.09140071272850037
1761131572120417800,1.552417724609375,-1.330235481262207,0.42493313550949097,0.041920628398656845
1761131572130417700,1.562417724609375,-1.3687199354171753,0.47135889530181885,0.00038179077091626823
1761131572140417800,1.572417724609375,-1.3711633682250977,0.5843689441680908,-0.04787656292319298
1761131572150417700,1.582417724609375,-1.33573317527771,0.6497315168380737,-0.07170030474662781
1761131572160418600,1.59241845703125,-1.2777010202407837,0.6931029558181763,-0.09063713252544403
1761131572170418700,1.602418701171875,-1.2007319927215576,0.6986007690429688,-0.09980010986328125
1761131572180418600,1.61241845703125,-1.1078804731369019,0.6656140685081482,-0.09980010986328125
1761131572190418700,1.622418701171875,-1.005255103111267,0.5825363397598267,-0.08819366991519928
1761131572200418600,1.63241845703125,-0.90018630027771,0.4640285074710846,-0.06314819306135178
1761131572210418700,1.642418701171875,-0.795728325843811,0.31375566124916077,-0.0264962799847126
1761131572220418600,1.65241845703125,-0.7022659778594971,0.13660474121570587,0.02054034359753132
1761131572230418700,1.662418701171875,-0.6228534579277039,-0.0466548316180706,0.07185302674770355
1761131572240418600,1.67241845703125,-0.5654321312904358,-0.22502748668193817,0.11339186131954193
1761131572250418700,1.682418701171875,-0.5208389759063721,-0.415617436170578,0.12683089077472687
1761131572260417800,1.692417724609375,-0.4902957081794739,-0.6208681464195251,0.10361801832914352
1761131572270418000,1.70241796875,-0.4786892831325531,-0.8175667524337769,0.05047274008393288
1761131572280417800,1.712417724609375,-0.4829653203487396,-0.980667769908905,-0.030161472037434578
1761131572290418000,1.72241796875,-0.4902957081794739,-1.1217776536941528,-0.14378240704536438
1761131572300418000,1.73241796875,-0.4988478422164917,-1.2421181201934814,-0.2855031490325928
1761131572310418200,1.742418212890625,-0.5067890882492065,-1.3166437149047852,-0.43455424904823303
1761131572320418000,1.75241796875,-0.5147303342819214,-1.3288609981536865,-0.5640577077865601
1761131572330418200,1.762418212890625,-0.5348888635635376,-1.2702178955078125,-0.6532440185546875
1761131572340418000,1.77241796875,-0.5825363397598267,-1.1107821464538574,-0.6819546818733215
1761131572350418200,1.782418212890625,-0.6497315168380737,-0.8664360046386719,-0.6471353769302368
1761131572360418800,1.792418701171875,-0.7047094106674194,-0.5829945206642151,-0.5652794241905212
1761131572370419000,1.8024189453125,-0.7248679995536804,-0.11507174372673035,-0.38263070583343506
1761131572380419000,1.812419189453125,-0.6906595230102539,0.15859588980674744,-0.26167941093444824
1761131572390419000,1.8224189453125,-0.6564510464668274,0.3326924741268158,-0.18043431639671326
1761131572400419000,1.832419189453125,-0.6185774207115173,0.39072468876838684,-0.15355625748634338
1761131572410419000,1.8424189453125,-0.5611560940742493,0.3870594799518585,-0.16149750351905823
1761131572420418800,1.852418701171875,-0.4841870665550232,0.3620140254497528,-0.17982345819473267
1761131572430419000,1.8624189453125,-0.4041637182235718,0.33513593673706055,-0.18959729373455048
1761131572440418800,1.872418701171875,-0.3284164369106293,0.3461315333843231,-0.1676061451435089
1761131572450419000,1.8824189453125,-0.2514474093914032,0.39561161398887634,-0.11568260937929153
1761131572460418300,1.892418212890625,-0.17447838187217712,0.4420373737812042,-0.05642867833375931
1761131572470418200,1.902418212890625,-0.09201157838106155,0.43470698595046997,-0.007559457328170538
1761131572480418300,1.912418212890625,-0.021151209250092506,0.36567920446395874,0.0290924571454525
1761131572490418200,1.922418212890625,0.019776761531829834,0.24045182764530182,0.05047274008393288
1761131572500418300,1.932418212890625,0.042989641427993774,0.08345946669578552,0.06696610152721405
1761131572510418200,1.942418212890625,0.07353290170431137,-0.052152618765830994,0.10606148093938828
1761131572520418300,1.952418212890625,0.11140654981136322,-0.11140654981136322,0.20318904519081116
1761131572530418200,1.962418212890625,0.1419498175382614,-0.06864598393440247,0.3479641079902649
1761131572540418300,1.972418212890625,0.1688278764486313,0.06330090761184692,0.5086216926574707
1761131572550418200,1.982418212890625,0.2036471962928772,0.21784982085227966,0.6295729875564575
1761131572560419000,1.992419189453125,0.24274258315563202,0.3314707577228546,0.6802747845649719
1761131572570419000,2.0024189453125,0.2653445899486542,0.37056612968444824,0.6656140685081482
1761131572580419000,2.012419189453125,0.24762949347496033,0.3430771827697754,0.6014732122421265
1761131572590419000,2.0224189453125,0.16516269743442535,0.2771037518978119,0.5080108046531677
1761131572600419000,2.032419189453125,0.027718011289834976,0.19402606785297394,0.38644862174987793
1761131572610419000,2.0424189453125,-0.2367866337299347,0.04680754989385605,0.19402606785297394
1761131572620419000,2.052419189453125,-0.3986659348011017,-0.06498079001903534,0.11155926436185837
1761131572630419000,2.0624189453125,-0.5049564838409424,-0.13523028790950775,0.08834638446569443
1761131572640419000,2.072419189453125,-0.5617669224739075,-0.14011721312999725,0.1249983012676239
1761131572650419000,2.0824189453125,-0.5721516609191895,-0.052152618765830994,0.2056325078010559
1761131572660418000,2.09241796875,-0.5251150131225586,0.1249983012676239,0.30947959423065186
1761131572670418200,2.102418212890625,-0.42615485191345215,0.330859899520874,0.4243222773075104
1761131572680418000,2.11241796875,-0.2960405647754669,0.5110651254653931,0.5593234896659851
1761131572690418200,2.122418212890625,-0.1549306958913803,0.6515641212463379,0.7267005443572998
1761131572700418000,2.13241796875,-0.008933904580771923,0.7370852828025818,0.9166796803474426
1761131572710418200,2.142418212890625,0.12301298975944519,0.7505242824554443,1.1176543235778809
1761131572720418000,2.15241796875,0.23541219532489777,0.7150941491127014,1.3070225715637207
1761131572730418200,2.162418212890625,0.3258202373981476,0.6387359499931335,1.4640148878097534
1761131572740418000,2.17241796875,0.39851322770118713,0.5147303342819214,1.5739706754684448
1761131572750418200,2.182418212890625,0.4522693455219269,0.3216969072818756,1.6381114721298218
1761131572760418800,2.192418701171875,0.496862530708313,0.10239628702402115,1.6784286499023438
1761131572770418700,2.202418701171875,0.5267949104309082,-0.132786825299263,1.7108044624328613
1761131572780418800,2.212418701171875,0.5481752157211304,-0.3704134225845337,1.73646080493927
1761131572790418700,2.222418701171875,0.5573381781578064,-0.5695554614067078,1.7486780881881714
1761131572800418800,2.232418701171875,0.5390121936798096,-0.7033349871635437,1.7419586181640625
1761131572810418700,2.242418701171875,0.47303876280784607,-0.7900778651237488,1.7059175968170166
1761131572820418800,2.252418701171875,0.3643047511577606,-0.8328384160995483,1.6338354349136353
1761131572830418700,2.262418701171875,0.22686007618904114,-0.8444448709487915,1.5226579904556274
1761131572840418800,2.272418701171875,-0.0016035212902352214,-0.8591055870056152,1.3070225715637207
1761131572850418700,2.282418701171875,-0.15248723328113556,-0.8371144533157349,1.1628583669662476
1761131572860418000,2.29241796875,-0.2929862439632416,-0.7662540674209595,1.0480157136917114
1761131572870418000,2.30241796875,-0.4121049642562866,-0.6831763982772827,0.9637162685394287
1761131572880418000,2.31241796875,-0.5110651254653931,-0.609872579574585,0.9154579043388367
1761131572890418000,2.32241796875,-0.5941427946090698,-0.5726097822189331,0.8745299577713013
1761131572900418000,2.33241796875,-0.6582836508750916,-0.6275876760482788,0.8122217059135437
1761131572910418000,2.34241796875,-0.7108180522918701,-0.7974082231521606,0.7425830364227295
1761131572920418000,2.35241796875,-0.7725154757499695,-1.055193305015564,0.6674466133117676
1761131572930418000,2.36241796875,-0.8586474657058716,-1.3752866983413696,0.5800929069519043
1761131572940418000,2.37241796875,-0.9649379849433899,-1.6599498987197876,0.4676937162876129
1761131572950418000,2.38241796875,-1.0944414138793945,-1.89268958568573,0.2777146100997925
1761131572970419000,2.4024189453125,-1.3693307638168335,-2.1975114345550537,-0.4052327275276184
1761131572980418800,2.412418701171875,-1.449965000152588,-2.2133939266204834,-0.7882452607154846
1761131572990419000,2.4224189453125,-1.4902821779251099,-2.125429153442383,-1.0606911182403564
1761131573000418800,2.432418701171875,-1.4945582151412964,-1.9525543451309204,-1.1700360774993896
1761131573010419000,2.4424189453125,-1.4487433433532715,-1.7167603969573975,-1.1284971237182617
1761131573020418800,2.452418701171875,-1.3265702724456787,-1.4663056135177612,-1.002048134803772
1761131573030419000,2.4624189453125,-1.0877219438552856,-1.2134073972702026,-0.9116400480270386
1761131573040418800,2.472418701171875,-0.9050732254981995,-0.8139016032218933,-0.752204179763794
1761131573050419000,2.4824189453125,-0.796339213848114,-0.45349109172821045,-0.544510006904602
1761131573060418000,2.49241796875,-0.7633524537086487,-0.26351198554039,-0.28061622381210327
1761131573070418200,2.502418212890625,-0.7224245071411133,-0.11873693019151688,0.1653154045343399
1761131573080418000,2.51241796875,-0.6607271432876587,-0.04237877577543259,0.4322635233402252
1761131573090418000,2.52241796875,-0.5678756237030029,0.0290924571454525,0.6399577260017395
1761131573100418000,2.53241796875,-0.4524220824241638,0.09506590664386749,0.7780132293701172
1761131573110418000,2.54241796875,-0.3155882656574249,0.12255483865737915,0.8360454440116882
1761131573120418000,2.55241796875,-0.17692184448242188,0.07185302674770355,0.8091673851013184
1761131573130418000,2.56241796875,-0.07185302674770355,-0.06803511828184128,0.6924921274185181
1761131573140418000,2.57241796875,-0.01748601719737053,-0.2879466116428375,0.5043455958366394
1761131573150418000,2.58241796875,-0.009544769302010536,-0.5555055737495422,0.26488643884658813
1761131573160418800,2.592418701171875,-0.025427265092730522,-0.7851909399032593,-0.005726861767470837
1761131573170419000,2.6024189453125,-0.0443640872836113,-0.9177486896514893,-0.28122708201408386
1761131573180418800,2.612418701171875,-0.044974952936172485,-0.933631181716919,-0.5310709476470947
1761131573190419000,2.6224189453125,-0.02603813074529171,-0.8230645656585693,-0.7192174792289734
1761131573200418800,2.632418701171875,-0.00038179077091626823,-0.6043748259544373,-0.8328384160995483
1761131573210419000,2.6424189453125,0.011835514567792416,-0.3148246705532074,-0.8749880790710449
1761131573220418800,2.652418701171875,0.005115996580570936,0.005879578180611134,-0.848720908164978
1761131573230419000,2.6624189453125,-0.010155634954571724,0.32963815331459045,-0.7735844850540161
1761131573240418800,2.672418701171875,-0.011377365328371525,0.6143013834953308,-0.668515682220459
1761131573250419000,2.6824189453125,0.01794416643679142,0.8091673851013184,-0.5457317233085632
1761131573260418000,2.69241796875,0.07964155822992325,0.9166796803474426,-0.40340012311935425
1761131573270418200,2.702418212890625,0.152334526181221,0.958218514919281,-0.24152085185050964
1761131573280418000,2.71241796875,0.20425806939601898,0.938670814037323,-0.07108944654464722
1761131573290418200,2.722418212890625,0.22686007618904114,0.8323802351951599,0.08651378750801086
1761131573300418000,2.73241796875,0.18654297292232513,0.5849798321723938,0.2777146100997925
1761131573310418200,2.742418212890625,0.122402124106884,0.40477457642555237,0.35957056283950806
1761131573320418000,2.75241796875,0.039935316890478134,0.21907155215740204,0.38095083832740784
1761131573330418200,2.762418212890625,-0.05047274008393288,0.03764457255601883,0.34002286195755005
1761131573340418000,2.77241796875,-0.1500437706708908,-0.10896308720111847,0.2459496259689331
1761131573350418200,2.782418212890625,-0.24900394678115845,-0.1987602859735489,0.10728321224451065
1761131573360418800,2.792418701171875,-0.3528510332107544,-0.22624921798706055,-0.06559165567159653
1761131573370419000,2.8024189453125,-0.4469242990016937,-0.20425806939601898,-0.2537381649017334
1761131573380418800,2.812418701171875,-0.5336671471595764,-0.15905404090881348,-0.4455498456954956
1761131573390419000,2.8224189453125,-0.6014732122421265,-0.11873693019151688,-0.6135377883911133
1761131573400418800,2.832418701171875,-0.6509532928466797,-0.07047858089208603,-0.7173848748207092
1761131573410419000,2.8424189453125,-0.6857725977897644,-0.0032834007870405912,-0.7448738217353821
1761131573420418800,2.852418701171875,-0.7022659778594971,0.07735081017017365,-0.7094436287879944
1761131573430419000,2.8624189453125,-0.6986007690429688,0.1506546437740326,-0.6349180936813354
1761131573440418800,2.872418701171875,-0.6656140685081482,0.20013472437858582,-0.5506186485290527
1761131573450419000,2.8824189453125,-0.6045275330543518,0.22945626080036163,-0.4852560758590698
1761131573460418000,2.89241796875,-0.5110651254653931,0.20929770171642303,-0.4553236961364746
1761131573470418200,2.902418212890625,-0.38583776354789734,0.09689849615097046,-0.4559345543384552
1761131573480418000,2.91241796875,-0.2361757755279541,-0.122402124106884,-0.477314829826355
1761131573490418200,2.922418212890625,-0.08651378750801086,-0.3807981312274933,-0.516410231590271
1761131573500418000,2.93241796875,0.05093089118599892,-0.5768858790397644,-0.5597816109657288
1761131573510418200,2.942418212890625,0.1737148016691208,-0.6330854892730713,-0.5774967074394226
1761131573520418000,2.95241796875,0.283059686422348,-0.5237405896186829,-0.5561164617538452
1761131573530418200,2.962418212890625,0.3899610936641693,-0.2781727612018585,-0.5310709476470947
1761131573540418000,2.97241796875,0.4296673536300659,-0.16638441383838654,-0.5854379534721375
1761131573550418200,2.982418212890625,0.47364965081214905,-0.04360050708055496,-0.6886742115020752
1761131573560418800,2.992418701171875,0.5310709476470947,0.11888964474201202,-0.7803040146827698
1761131573570418700,3.002418701171875,0.5958226919174194,0.2813797891139984,-0.8145124316215515
1761131573580418800,3.012418701171875,0.6666830778121948,0.38461601734161377,-0.7686975598335266
1761131573590418700,3.022418701171875,0.7577019929885864,0.4194353520870209,-0.6373615264892578
1761131573600418800,3.032418701171875,0.8737663626670837,0.4389830231666565,-0.43944117426872253
1761131573610418700,3.042418701171875,1.0051023960113525,0.4383721649646759,-0.22624921798706055
1761131573620418800,3.052418701171875,1.1260536909103394,0.38644862174987793,-0.0771980956196785
1761131573630418700,3.062418701171875,1.2360094785690308,0.30337095260620117,-0.021609358489513397
1761131573640418800,3.072418701171875,1.3245849609375,0.21235203742980957,-0.05642867833375931
1761131573650418700,3.082418701171875,1.3673454523086548,0.09201157838106155,-0.1786017268896103
1761131573660418000,3.09241796875,1.341078281402588,-0.07353290170431137,-0.3765220642089844
1761131573670418200,3.102418212890625,1.2751048803329468,-0.24518603086471558,-0.5884923338890076
1761131573680418000,3.11241796875,1.220126986503601,-0.35330918431282043,-0.7491498589515686
1761131573690418000,3.12241796875,1.1871402263641357,-0.37224599719047546,-0.8132907152175903
1761131573700418000,3.13241796875,1.1608730554580688,-0.3032182455062866,-0.7680866718292236
1761131573710418000,3.14241796875,1.134605884552002,-0.14439326524734497,-0.6306419968605042
1761131573720418000,3.15241796875,1.1162798404693604,0.05291620269417763,-0.4504367709159851
1761131573730418200,3.162418212890625,1.1144472360610962,0.26488643884658813,-0.26167941093444824
1761131573740418000,3.17241796875,1.1272754669189453,0.46097418665885925,-0.08513934165239334
1761131573750418000,3.18241796875,1.161483883857727,0.6784422397613525,0.11705705523490906
1761131573760418800,3.192418701171875,1.1755337715148926,0.7303657531738281,0.16470454633235931
1761131573770419000,3.2024189453125,1.2091313600540161,0.8140543103218079,0.2807689309120178
1761131573780418800,3.212418701171875,1.2079097032546997,0.8000044226646423,0.3381902575492859
1761131573790419000,3.2224189453125,1.1950814723968506,0.7212027907371521,0.3876703679561615
1761131573800418800,3.232418701171875,1.1743121147155762,0.595975399017334,0.43653959035873413
1761131573810419000,3.2424189453125,1.1358275413513184,0.4585307240486145,0.4689154326915741
1761131573820418800,3.252418701171875,1.0674107074737549,0.30947959423065186,0.48113274574279785
1761131573830419000,3.2624189453125,0.9825003743171692,0.1555415689945221,0.4689154326915741
1761131573840418800,3.272418701171875,0.8798750042915344,0.013820826075971127,0.44631341099739075
1761131573850419000,3.2824189453125,0.7705301642417908,-0.11018481850624084,0.41638103127479553
1761131573860418000,3.29241796875,0.6569092273712158,-0.23296873271465302,0.3772856593132019
1761131573870418200,3.302418212890625,0.5487860441207886,-0.3410918712615967,0.33452507853507996
1761131573880418000,3.31241796875,0.44921502470970154,-0.4198935031890869,0.2868776023387909
1761131573890418200,3.322418212890625,0.3661373555660248,-0.47426050901412964,0.23312145471572876
1761131573900418000,3.33241796875,0.2952769994735718,-0.49808424711227417,0.1750892549753189
1761131573910418200,3.342418212890625,0.2341904640197754,-0.5041928887367249,0.12377656996250153
1761131573920418000,3.35241796875,0.18043431639671326,-0.46937358379364014,0.10178542137145996
1761131573930418200,3.362418212890625,0.1382846236228943,-0.4266130030155182,0.10239628702402115
1761131573940418000,3.37241796875,0.11507174372673035,-0.4143957197666168,0.12133310735225677
1761131573950418200,3.382418212890625,0.11201741546392441,-0.39790233969688416,0.13782647252082825
1761131573960418800,3.392418701171875,0.12179125845432281,-0.37224599719047546,0.11155926436185837
1761131573970418700,3.402418701171875,0.13645201921463013,-0.35208746790885925,0.024205535650253296
1761131573980418800,3.412418701171875,0.12851077318191528,-0.3508657217025757,-0.132786825299263
1761131573990419000,3.4224189453125,0.06925684958696365,-0.3795763850212097,-0.3508657217025757
1761131574000418800,3.432418701171875,-0.12316570430994034,-0.506025493144989,-0.7674758434295654
1761131574010419000,3.4424189453125,-0.2862667143344879,-0.6214790344238281,-1.0900126695632935
1761131574020418800,3.452418701171875,-0.4389830231666565,-0.6764569282531738,-1.4107168912887573
1761131574030418700,3.462418701171875,-0.5446627140045166,-0.5836054086685181,-1.66544771194458
1761131574040418800,3.472418701171875,-0.5971971154212952,-0.3557526469230652,-1.7925076484680176
1761131574050418700,3.482418701171875,-0.6167448163032532,-0.07047858089208603,-1.7918968200683594
1761131574060418000,3.49241796875,-0.6039166450500488,0.22029328346252441,-1.691714882850647
1761131574070418000,3.50241796875,-0.5690973401069641,0.5055673718452454,-1.53288996219635
1761131574080418000,3.51241796875,-0.5196172595024109,0.7749589085578918,-1.341078281402588
1761131574090418000,3.52241796875,-0.46097418665885925,0.9844856858253479,-1.1217776536941528
1761131574100418000,3.53241796875,-0.38522690534591675,1.1170434951782227,-0.8774315714836121
1761131574110418000,3.54241796875,-0.27893635630607605,1.1714104413986206,-0.6257550716400146
1761131574120418000,3.55241796875,-0.1451568603515625,1.1659126281738281,-0.3789655268192291
1761131574130418000,3.56241796875,0.019165897741913795,1.1237629652023315,-0.1370628923177719
1761131574140418000,3.57241796875,0.20670153200626373,1.0529025793075562,0.10606148093938828
1761131574150418000,3.58241796875,0.4015675485134125,0.9557750225067139,0.33941200375556946
1761131574160418800,3.592418701171875,0.5726097822189331,0.8183303475379944,0.5397757887840271
1761131574170418700,3.602418701171875,0.697226345539093,0.6558402180671692,0.6863834857940674
1761131574180418800,3.612418701171875,0.7583128213882446,0.4793001413345337,0.7609090209007263
1761131574190418700,3.622418701171875,0.7467064261436462,0.30947959423065186,0.7548003792762756
1761131574200418800,3.632418701171875,0.6648504734039307,0.16714800894260406,0.6741661429405212
1761131574210418700,3.642418701171875,0.524962306022644,0.07368562370538712,0.5385540723800659
1761131574220418800,3.652418701171875,0.353920042514801,0.026648996397852898,0.37056612968444824
1761131574230419000,3.6624189453125,0.07597636431455612,0.09140071272850037,0.13416127860546112
1761131574240418800,3.672418701171875,-0.08895725011825562,0.26488643884658813,0.03275764733552933
1761131574250419000,3.6824189453125,-0.21723894774913788,0.5098434090614319,-0.008170322515070438
1761131574260418000,3.69241796875,-0.3058144152164459,0.785954475402832,0.005879578180611134
1761131574270418000,3.70241796875,-0.3467423915863037,1.051069974899292,0.06330090761184692
1761131574280418000,3.71241796875,-0.330859899520874,1.2667053937911987,0.15126550197601318
1761131574290418000,3.72241796875,-0.27527114748954773,1.402928352355957,0.25450173020362854
1761131574300418000,3.73241796875,-0.19280433654785156,1.4591280221939087,0.3626248836517334
1761131574310418000,3.74241796875,-0.08773551881313324,1.4249194860458374,0.4585307240486145
1761131574320418000,3.75241796875,0.027718011289834976,1.3033573627471924,0.5464953184127808
1761131574330418000,3.76241796875,0.132786825299263,1.1091022491455078,0.6271295547485352
1761131574340418000,3.77241796875,0.22502748668193817,0.8934667706489563,0.7144832611083984
1761131574350418000,3.78241796875,0.2989421784877777,0.6460663676261902,0.7853436470031738
1761131574360418800,3.792418701171875,0.33131805062294006,0.38644862174987793,0.825049877166748
1761131574370418700,3.802418701171875,0.34231361746788025,0.1353830099105835,0.8311585187911987
1761131574380418800,3.812418701171875,0.34170275926589966,-0.11568260937929153,0.8000044226646423
1761131574390418700,3.822418701171875,0.32337677478790283,-0.35819610953330994,0.748080849647522
1761131574400418800,3.832418701171875,0.2793944776058197,-0.5774967074394226,0.6772204637527466
1761131574410418700,3.842418701171875,0.22197316586971283,-0.7827474474906921,0.5831472277641296
1761131574420418800,3.852418701171875,0.16455182433128357,-0.9598983526229858,0.46158504486083984
1761131574430418700,3.862418701171875,0.09613491594791412,-1.0991756916046143,0.311312198638916
1761131574440418800,3.872418701171875,0.011224648915231228,-1.2011901140213013,0.13904820382595062
1761131574450418700,3.882418701171875,-0.07124216109514236,-1.2708288431167603,-0.025885414332151413
1761131574460417800,3.892417724609375,-0.1500437706708908,-1.2934308052062988,-0.16210836172103882
1761131574470418000,3.90241796875,-0.25511258840560913,-1.2054661512374878,-0.30627256631851196
1761131574480418000,3.91241796875,-0.32475122809410095,-1.058247685432434,-0.36247217655181885
1761131574490418000,3.92241796875,-0.39011383056640625,-0.8536078333854675,-0.37346774339675903
1761131574500418000,3.93241796875,-0.4340961277484894,-0.629420280456543,-0.34231361746788025
1761131574510418000,3.94241796875,-0.4530329406261444,-0.4308890700340271,-0.2800053656101227
1761131574520417800,3.952417724609375,-0.4426482319831848,-0.2836705446243286,-0.21036672592163086
1761131574530418000,3.96241796875,-0.40966150164604187,-0.19570595026016235,-0.14683672785758972
1761131574540417800,3.972417724609375,-0.3638466000556946,-0.16943874955177307,-0.102243572473526
1761131574550418000,3.98241796875,-0.3278055489063263,-0.18898643553256989,-0.08636107295751572
1761131574560418800,3.992418701171875,-0.30459266901016235,-0.22258402407169342,-0.08880453556776047
1761131574570418700,4.002418701171875,-0.282601535320282,-0.2341904640197754,-0.07475463300943375
1761131574580418800,4.012418701171875,-0.2526691257953644,-0.16943874955177307,-0.010002918541431427
1761131574590418700,4.022418701171875,-0.220904141664505,-0.000839939690195024,0.11339186131954193
1761131574600418800,4.032418701171875,-0.1909717470407486,0.2929862439632416,0.2624429762363434
1761131574610418700,4.042418701171875,-0.1604284793138504,0.6570619344711304,0.36934441328048706
1761131574620418000,4.05241796875,-0.13416127860546112,0.9698249101638794,0.36079227924346924
1761131574630418000,4.06241796875,-0.10545061528682709,1.128039002418518,0.21296289563179016
1761131574640418000,4.07241796875,-0.07185302674770355,1.1286499500274658,-0.03627012297511101
1761131574650418000,4.08241796875,-0.03764457255601883,1.0382418632507324,-0.3001639246940613
1761131574660417300,4.092417236328125,-0.010766499675810337,0.8812494874000549,-0.5109124183654785
1761131574670417200,4.102417236328125,0.000839939690195024,0.6601162552833557,-0.647746205329895
1761131574680417300,4.112417236328125,0.000839939690195024,0.39011383056640625,-0.7186065912246704
1761131574690417200,4.122417236328125,-0.024816401302814484,0.033368512988090515,-0.7858017683029175
1761131574700417300,4.132417236328125,-0.07857254147529602,-0.11629346758127213,-0.9043096303939819
1761131574710417200,4.142417236328125,-0.15920674800872803,-0.21952970325946808,-1.0900126695632935
1761131574720417300,4.152417236328125,-0.26977336406707764,-0.2995530366897583,-1.2812135219573975
1761131574730417200,4.162417236328125,-0.3968333303928375,-0.3789655268192291,-1.4235451221466064
1761131574740417300,4.172417236328125,-0.4945717751979828,-0.39179369807243347,-1.4815772771835327
1761131574750417200,4.182417236328125,-0.5275585055351257,-0.24762949347496033,-1.4247667789459229
1761131574760418000,4.19241796875,-0.5067890882492065,0.02298380434513092,-1.2909873723983765
1761131574770418200,4.202418212890625,-0.46586111187934875,0.31497737765312195,-1.1193342208862305
1761131574780418000,4.21241796875,-0.41088324785232544,0.6020840406417847,-0.9153051972389221
1761131574790418200,4.222418212890625,-0.3418554663658142,0.8696430325508118,-0.657520055770874
1761131574800418000,4.23241796875,-0.27954721450805664,1.0791698694229126,-0.33864840865135193
1761131574810418200,4.242418212890625,-0.21235203742980957,1.222723126411438,0.03764457255601883
1761131574820418000,4.25241796875,-0.12072224169969559,1.309466004371643,0.44997861981391907
1761131574830418200,4.262418212890625,-0.005879578180611134,1.3491722345352173,0.8739190697669983
1761131574840418000,4.27241796875,0.122402124106884,1.3406201601028442,1.260596752166748
1761131574850418200,4.282418212890625,0.24640776216983795,1.2972487211227417,1.5806901454925537
1761131574860417300,4.292417236328125,0.3606395721435547,1.212949275970459,1.8183168172836304
1761131574870417200,4.302417236328125,0.4571562707424164,1.0852785110473633,1.9698113203048706
1761131574880417300,4.312417236328125,0.5298492312431335,0.939281702041626,2.052889108657837
1761131574890417200,4.322417236328125,0.5756641626358032,0.7438048124313354,2.0522780418395996
1761131574900417300,4.332417236328125,0.5829945206642151,0.5226715803146362,1.9973002672195435
1761131574910417200,4.342417236328125,0.5695554614067078,0.32352951169013977,1.9111683368682861
1761131574920417800,4.352417724609375,0.5237405896186829,0.04558581858873367,1.7315739393234253
1761131574930418000,4.36241796875,0.487088680267334,-0.12484558671712875,1.5996270179748535
1761131574940417800,4.372417724609375,0.457767128944397,-0.2702315151691437,1.4817299842834473
1761131574950418000,4.38241796875,0.43211081624031067,-0.38873937726020813,1.3864350318908691
1761131574960418800,4.392418701171875,0.3850741684436798,-0.48403435945510864,1.3100768327713013
1761131574970418700,4.402418701171875,0.3300963044166565,-0.5457317233085632,1.2496012449264526
1761131574980418800,4.412418701171875,0.28061622381210327,-0.554894745349884,1.1982885599136353
1761131574990418700,4.422418701171875,0.22502748668193817,-0.5329035520553589,1.1420888900756836
1761131575000418800,4.432418701171875,0.16577355563640594,-0.4608214795589447,1.0919979810714722
1761131575010418700,4.442418701171875,0.11385001242160797,-0.34353533387184143,1.0480157136917114
1761131575020418800,4.452418701171875,0.082085020840168,-0.23480132222175598,0.9979247450828552
1761131575030418700,4.462418701171875,0.05520694702863693,-0.18715384602546692,0.9325621724128723
1761131575040418800,4.472418701171875,0.031383201479911804,-0.1883755773305893,0.8433758020401001
1761131575050418700,4.482418701171875,0.015500705689191818,-0.22075143456459045,0.7071529030799866
1761131575060418000,4.49241796875,0.01061378326267004,-0.31115949153900146,0.4982369542121887
1761131575070418000,4.50241796875,-0.006490443367511034,-0.45410194993019104,0.21846067905426025
1761131575080417800,4.512417724609375,-0.056581392884254456,-0.6172029972076416,-0.10835222154855728
1761131575090418000,4.52241796875,-0.16348281502723694,-0.7674758434295654,-0.4571562707424164
1761131575100417800,4.532417724609375,-0.3381902575492859,-0.8884271383285522,-0.8218428492546082
1761131575110418000,4.54241796875,-0.5617669224739075,-0.953178882598877,-1.2024118900299072
1761131575120417800,4.552417724609375,-0.7847327589988708,-0.9067531228065491,-1.568930983543396
1761131575130418000,4.56241796875,-0.9710466861724854,-0.7222718000411987,-1.8902461528778076
1761131575140417800,4.572417724609375,-1.0956631898880005,-0.44921502470970154,-2.134592294692993
1761131575150418000,4.58241796875,-1.1622475385665894,-0.15599970519542694,-2.282421588897705
1761131575160418800,4.592418701171875,-1.1518627405166626,0.29970577359199524,-2.279367208480835
1761131575170418700,4.602418701171875,-1.1060478687286377,0.5886450409889221,-2.1327595710754395
1761131575180418800,4.612418701171875,-1.0553460121154785,0.8372671604156494,-1.911015510559082
1761131575190418700,4.622418701171875,-0.9741010069847107,1.0296896696090698,-1.6446783542633057
1761131575200418800,4.632418701171875,-0.8305476307868958,1.1665235757827759,-1.35940420627594
1761131575210418700,4.642418701171875,-0.6014732122421265,1.2575424909591675,-1.066188931465149
1761131575220418800,4.652418701171875,-0.2978731691837311,1.2948052883148193,-0.7796931266784668
1761131575230419000,4.6624189453125,0.05398521572351456,1.2447142601013184,-0.5127450227737427
1761131575240418800,4.672418701171875,0.40706533193588257,1.0700068473815918,-0.27084237337112427
1761131575250419000,4.6824189453125,0.7179957628250122,0.7651850581169128,-0.052152618765830994
1761131575260418000,4.69241796875,0.9281333684921265,0.3522401750087738,0.12683089077472687
1761131575270418000,4.70241796875,1.0112110376358032,-0.12667818367481232,0.2526691257953644
1761131575280418000,4.71241796875,0.9696722030639648,-0.5829945206642151,0.3314707577228546
1761131575290418000,4.72241796875,0.8163450360298157,-0.923246443271637,0.3638466000556946
1761131575300418000,4.73241796875,0.590324878692627,-1.1022299528121948,0.32414036989212036
1761131575310418000,4.74241796875,0.353920042514801,-1.1175016164779663,0.22212587296962738
1761131575320418000,4.75241796875,0.14378240704536438,-0.9592875242233276,0.10545061528682709
1761131575330418000,4.76241796875,-0.021762074902653694,-0.6465244889259338,0.027259862050414085
1761131575340418000,4.77241796875,-0.14271339774131775,-0.24579690396785736,0.005268712528049946
1761131575350418000,4.78241796875,-0.22884538769721985,0.1702023297548294,0.030314188450574875
1761131575360418800,4.792418701171875,-0.292375385761261,0.5367214679718018,0.09506590664386749
1761131575370418700,4.802418701171875,-0.3229186534881592,0.8195520639419556,0.18791742622852325
1761131575380418800,4.812418701171875,-0.32536208629608154,0.9838748574256897,0.28382325172424316
1761131575390418700,4.822418701171875,-0.30520355701446533,0.9814313650131226,0.3888920843601227
1761131575400418800,4.832418701171875,-0.2777146100997925,0.8519279360771179,0.4243222773075104
1761131575410418700,4.842418701171875,-0.2471713423728943,0.6271295547485352,0.444480836391449
1761131575420418800,4.852418701171875,-0.21907155215740204,0.363235741853714,0.4597524404525757
1761131575430418700,4.862418701171875,-0.18975001573562622,0.08773551881313324,0.47746753692626953
1761131575440418800,4.872418701171875,-0.16653713583946228,-0.18959729373455048,0.4933500289916992
1761131575450418700,4.882418701171875,-0.1598176211118698,-0.43394339084625244,0.4982369542121887
1761131575460418000,4.89241796875,-0.17325665056705475,-0.630031168460846,0.4780784249305725
1761131575470418000,4.90241796875,-0.20257818698883057,-0.7833583354949951,0.42126795649528503
1761131575480418000,4.91241796875,-0.23984096944332123,-0.9061422348022461,0.3314707577228546
1761131575490418000,4.92241796875,-0.2832123935222626,-1.0240392684936523,0.22884538769721985
1761131575500418000,4.93241796875,-0.330859899520874,-1.1327732801437378,0.12805262207984924
1761131575510418000,4.94241796875,-0.38095083832740784,-1.2329550981521606,0.0339793786406517
1761131575520418000,4.95241796875,-0.4182136058807373,-1.3117567300796509,-0.048487428575754166
1761131575530418000,4.96241796875,-0.4383721649646759,-1.371010661125183,-0.10896308720111847
1761131575540417800,4.972417724609375,-0.4493677318096161,-1.4033865928649902,-0.1382846236228943
1761131575550418000,4.98241796875,-0.4585307240486145,-1.3960561752319336,-0.1419498175382614
1761131575560418800,4.992418701171875,-0.4738023579120636,-1.3520739078521729,-0.13461942970752716
1761131575570418700,5.002418701171875,-0.49090659618377686,-1.2799917459487915,-0.13400855660438538
1761131575580418800,5.012418701171875,-0.5006804466247559,-1.1834750175476074,-0.14133894443511963
1761131575590418700,5.022418701171875,-0.5037347674369812,-1.0429760217666626,-0.16027577221393585
1761131575600418800,5.032418701171875,-0.49212831258773804,-0.8755989670753479,-0.20731239020824432
1761131575610418700,5.042418701171875,-0.4695262908935547,-0.7399868965148926,-0.2891683280467987
1761131575620418800,5.052418701171875,-0.4218788146972656,-0.6135377883911133,-0.43333253264427185
1761131575630418700,5.062418701171875,-0.3840051591396332,-0.5842162370681763,-0.49808424711227417
1761131575640418800,5.072418701171875,-0.3467423915863037,-0.5927683711051941,-0.5072472095489502
1761131575650418700,5.082418701171875,-0.30520355701446533,-0.5958226919174194,-0.4406629204750061
1761131575660417800,5.092417724609375,-0.2471713423728943,-0.544510006904602,-0.29710957407951355
1761131575670418000,5.10241796875,-0.16653713583946228,-0.38201984763145447,-0.09491318464279175
1761131575680417800,5.112417724609375,-0.07673994451761246,-0.0918588638305664,0.12438743561506271
1761131575690418000,5.12241796875,-0.0034361169673502445,0.21296289563179016,0.2703842222690582
1761131575700417800,5.132417724609375,0.0466548316180706,0.4218788146972656,0.2819906771183014
1761131575710418000,5.14241796875,0.10651962459087372,0.5416083931922913,0.18852828443050385
1761131575720417800,5.152417724609375,0.17737999558448792,0.5923101902008057,0.05780312418937683
1761131575730418000,5.16241796875,0.2433534413576126,0.5978080034255981,-0.05276348441839218
1761131575740417800,5.172417724609375,0.3032182455062866,0.5807037949562073,-0.09980010986328125
1761131575750418000,5.18241796875,0.3606395721435547,0.5367214679718018,-0.09308059513568878
1761131575760418800,5.192418701171875,0.4211152195930481,0.4591415822505951,-0.07170030474662781
1761131575770418700,5.202418701171875,0.4815908968448639,0.363235741853714,-0.07903069257736206
1761131575780418800,5.212418701171875,0.5365687608718872,0.2618321180343628,-0.14072808623313904
1761131575790418700,5.222418701171875,0.5744423866271973,0.14943291246891022,-0.2592359483242035
1761131575800418800,5.232418701171875,0.6049856543540955,-0.027718011289834976,-0.41745004057884216
1761131575810418700,5.242418701171875,0.639194130897522,-0.24274258315563202,-0.5897140502929688
1761131575820418800,5.252418701171875,0.6660721898078918,-0.46448665857315063,-0.7296021580696106
1761131575830418700,5.262418701171875,0.6764569282531738,-0.6141486167907715,-0.7448738217353821
1761131575840418800,5.272418701171875,0.6630178689956665,-0.6825655698776245,-0.6110942959785461
1761131575850418700,5.282418701171875,0.6312528848648071,-0.7253261208534241,-0.27756190299987793
1761131575860418000,5.29241796875,0.6227007508277893,-0.6837872862815857,-0.05581781268119812
1761131575870418000,5.30241796875,0.6153703927993774,-0.5610033869743347,0.11033753305673599
1761131575880418000,5.31241796875,0.6153703927993774,-0.353920042514801,0.22884538769721985
1761131575890418000,5.32241796875,0.6312528848648071,-0.10835222154855728,0.3412446081638336
1761131575900418000,5.33241796875,0.6758460402488708,0.10178542137145996,0.49640437960624695
1761131575910418000,5.34241796875,0.7491498589515686,0.27893635630607605,0.7163158655166626
1761131575920418000,5.35241796875,0.8468883037567139,0.4267657399177551,0.9838748574256897
1761131575930418000,5.36241796875,0.943405032157898,0.5495496392250061,1.272814154624939
1761131575940418000,5.37241796875,1.0209848880767822,0.644844651222229,1.5470925569534302
1761131575950418000,5.38241796875,1.066188931465149,0.7059311270713806,1.7676149606704712
1761131575960418800,5.392418701171875,1.085736632347107,0.7236462235450745,1.9203312397003174
1761131575970418700,5.402418701171875,1.0826822519302368,0.6772204637527466,1.9899698495864868
1761131575980418800,5.412418701171875,1.0533607006072998,0.5519931316375732,1.9881372451782227
1761131575990419000,5.4224189453125,1.017319679260254,0.3357468247413635,1.944154977798462
1761131576000418800,5.432418701171875,0.9788352251052856,0.07307475805282593,1.8891770839691162
1761131576010419000,5.4424189453125,0.9311876893043518,-0.182877779006958,1.839697003364563
1761131576020418800,5.452418701171875,0.8762098550796509,-0.4363868534564972,1.784108281135559
1761131576030419000,5.4624189453125,0.8163450360298157,-0.7015023827552795,1.7040849924087524
1761131576040418800,5.472418701171875,0.7546476721763611,-0.9458484649658203,1.6014596223831177
1761131576050419000,5.4824189453125,0.6764569282531738,-1.144379734992981,1.46829092502594
1761131576060418000,5.49241796875,0.5585598945617676,-1.2958742380142212,1.2923617362976074
1761131576070418000,5.50241796875,0.4009566605091095,-1.4247667789459229,1.0657308101654053
1761131576080418000,5.51241796875,0.13095423579216003,-1.542663812637329,0.7053202986717224
1761131576090418000,5.52241796875,-0.04375322163105011,-1.5677093267440796,0.48052188754081726
1761131576100418000,5.53241796875,-0.21296289563179016,-1.5677093267440796,0.28443413972854614
1761131576110418000,5.54241796875,-0.3717878460884094,-1.5194509029388428,0.13355042040348053
1761131576120418000,5.55241796875,-0.5171737670898438,-1.4339298009872437,0.016264287754893303
1761131576130418000,5.56241796875,-0.6375142335891724,-1.313589334487915,-0.08025242388248444
1761131576140418000,5.57241796875,-0.7358635663986206,-1.1749229431152344,-0.17004960775375366
1761131576150418000,5.58241796875,-0.8195520639419556,-1.0393108129501343,-0.2696206569671631
1761131576160418800,5.592418701171875,-0.8861364126205444,-0.8988118767738342,-0.3856850564479828
1761131576170418700,5.602418701171875,-0.928896963596344,-0.7748062014579773,-0.5457317233085632
1761131576180418800,5.612418701171875,-0.9350056052207947,-0.7253261208534241,-0.7858017683029175
1761131576190418700,5.622418701171875,-0.8989645838737488,-0.7265478372573853,-1.1034517288208008
1761131576200418800,5.632418701171875,-0.8195520639419556,-0.7051675915718079,-1.4247667789459229
1761131576210418700,5.642418701171875,-0.7083746194839478,-0.6630178689956665,-1.6685020923614502
1761131576220418800,5.652418701171875,-0.5800929069519043,-0.629420280456543,-1.779679536819458
1761131576230419000,5.6624189453125,-0.45486554503440857,-0.5860488414764404,-1.7271450757980347
1761131576240419000,5.672419189453125,-0.33880114555358887,-0.4712061882019043,-1.542052984237671
1761131576250419000,5.6824189453125,-0.2111303061246872,-0.2793944776058197,-1.2922090291976929
1761131576260418000,5.69241796875,-0.056581392884254456,-0.030772335827350616,-1.0558042526245117
1761131576270418200,5.702418212890625,0.122402124106884,0.2709950804710388,-0.8829293251037598
1761131576280417300,5.712417236328125,0.30077478289604187,0.614912211894989,-0.7900778651237488
1761131576290417200,5.722417236328125,0.4718170464038849,0.9661597609519958,-0.7515933513641357
1761131576300417300,5.732417236328125,0.6239224672317505,1.2673163414001465,-0.7106653451919556
1761131576310417200,5.742417236328125,0.7650323510169983,1.443245530128479,-0.6202573180198669
1761131576320417000,5.7524169921875,0.9635635614395142,1.4249194860458374,-0.3807981312274933
1761131576330417200,5.762417236328125,1.0710757970809937,1.2477686405181885,-0.18593211472034454
1761131576340417000,5.7724169921875,1.143157958984375,1.0058659315109253,-0.021609358489513397
1761131576350417200,5.782417236328125,1.1779773235321045,0.7193701863288879,0.07185302674770355
1761131576360418000,5.79241796875,1.1755337715148926,0.4035528600215912,0.07307475805282593
1761131576370418000,5.80241796875,1.1370493173599243,0.11033753305673599,-0.00022907447419129312
1761131576380418000,5.81241796875,1.069243311882019,-0.10896308720111847,-0.11446087807416916
1761131576390418000,5.82241796875,0.972115695476532,-0.23174700140953064,-0.2335795909166336
1761131576400418000,5.83241796875,0.8633816838264465,-0.25251641869544983,-0.3239876627922058
1761131576410418000,5.84241796875,0.7497607469558716,-0.15599970519542694,-0.37713292241096497
1761131576420418000,5.85241796875,0.6453027725219727,0.030314188450574875,-0.3954588770866394
1761131576430418000,5.86241796875,0.5695554614067078,0.29420796036720276,-0.3844633102416992
1761131576440418000,5.87241796875,0.5206862688064575,0.5886450409889221,-0.35208746790885925
1761131576450418000,5.88241796875,0.48403435945510864,0.8726973533630371,-0.315435528755188
1761131576460417000,5.8924169921875,0.45837801694869995,1.1036044359207153,-0.2848922908306122
1761131576470417200,5.902417236328125,0.4412737786769867,1.2697597742080688,-0.2647337317466736
1761131576480417300,5.912417236328125,0.43760859966278076,1.3595569133758545,-0.25679248571395874
1761131576490417200,5.922417236328125,0.44249552488327026,1.3729959726333618,-0.26656633615493774
1761131576500417300,5.932417236328125,0.3954588770866394,1.4084261655807495,-0.31726813316345215
1761131576510417200,5.942417236328125,0.4516584873199463,1.319239854812622,-0.3557526469230652
1761131576520417000,5.9524169921875,0.5426774024963379,1.147586703300476,-0.3997349441051483
1761131576530417000,5.9624169921875,0.5579490661621094,0.9246209263801575,-0.4626540541648865
1761131576540417000,5.9724169921875,0.5212971568107605,0.7364743947982788,-0.5103015303611755
1761131576550417000,5.9824169921875,0.46815183758735657,0.4072180390357971,-0.5774967074394226
1761131576560417800,5.992417724609375,0.4247804284095764,0.18425223231315613,-0.6440810561180115
1761131576570418000,6.00241796875,0.3942371606826782,0.011988230049610138,-0.7186065912246704
1761131576580418800,6.012418701171875,0.36735907196998596,-0.142560675740242,-0.7967973351478577
1761131576590418700,6.022418701171875,0.3392592966556549,-0.3001639246940613,-0.8694903254508972
1761131576600418800,6.032418701171875,0.30749428272247314,-0.4522693455219269,-0.9146943688392639
1761131576610418700,6.042418701171875,0.2690097689628601,-0.5573381781578064,-0.913472592830658
1761131576620418800,6.052418701171875,0.22258402407169342,-0.5787184834480286,-0.848110020160675
1761131576630419000,6.0624189453125,0.18104518949985504,-0.5096907019615173,-0.7124979496002197
1761131576640418800,6.072418701171875,0.1480584591627121,-0.3789655268192291,-0.5109124183654785
1761131576650419000,6.0824189453125,0.12362385541200638,-0.20670153200626373,-0.2531272768974304
1761131576660418300,6.092418212890625,0.11323914676904678,0.007712173741310835,0.019318614155054092
1761131576670418200,6.102418212890625,0.12118039280176163,0.21174116432666779,0.24778221547603607
1761131576680418000,6.11241796875,0.15477798879146576,0.3528510332107544,0.3925572633743286
1761131576690418200,6.122418212890625,0.20731239020824432,0.3974441885948181,0.4487568736076355
1761131576700418000,6.13241796875,0.25740334391593933,0.31864258646965027,0.4383721649646759
1761131576710418200,6.142418212890625,0.29161179065704346,0.15126550197601318,0.38522690534591675
1761131576720418000,6.15241796875,0.29710957407951355,-0.04115704447031021,0.3155882656574249
1761131576730418200,6.162418212890625,0.264122873544693,-0.19204075634479523,0.2679407596588135
1761131576740418300,6.172418212890625,0.21464277803897858,-0.24518603086471558,0.2758820056915283
1761131576750418200,6.182418212890625,0.15355625748634338,-0.16394096612930298,0.34002286195755005
1761131576760419000,6.192419189453125,0.10102184116840363,0.02054034359753132,0.4169918894767761
1761131576770419000,6.2024189453125,0.06314819306135178,0.20807597041130066,0.4322635233402252
1761131576780419000,6.212419189453125,0.04787656292319298,0.39622247219085693,0.2832123935222626
1761131576790419000,6.2224189453125,0.05826127156615257,0.46586111187934875,0.12194397300481796
1761131576800419000,6.232419189453125,0.07903069257736206,0.5257259011268616,0.008323038928210735
1761131576810419000,6.2424189453125,0.10835222154855728,0.5593234896659851,0.004657847341150045
1761131576820419000,6.252419189453125,0.13461942970752716,0.5501605272293091,0.11766792088747025
1761131576830419000,6.2624189453125,0.16516269743442535,0.5336671471595764,0.3119230568408966
1761131576840419000,6.272419189453125,0.22014056146144867,0.49151745438575745,0.5232824683189392
1761131576850419000,6.2824189453125,0.30566170811653137,0.38583776354789734,0.6766096353530884
1761131576860418300,6.292418212890625,0.40767619013786316,0.25511258840560913,0.7321983575820923
1761131576870418200,6.302418212890625,0.5017494559288025,0.12683089077472687,0.6827182769775391
1761131576880418300,6.312418212890625,0.5622251033782959,-0.028939740732312202,0.5379431843757629
1761131576890418200,6.322418212890625,0.5762749910354614,-0.2549598813056946,0.31986430287361145
1761131576900418300,6.332418212890625,0.545120894908905,-0.5463426113128662,0.05169447138905525
1761131576910418200,6.342418212890625,0.4974733889102936,-0.7833583354949951,-0.20425806939601898
1761131576920418000,6.35241796875,0.42905646562576294,-0.9214138388633728,-0.3704134225845337
1761131576930418200,6.362418212890625,0.3148246705532074,-0.9287442564964294,-0.38263070583343506
1761131576940418000,6.37241796875,0.1688278764486313,-0.7851909399032593,-0.24701863527297974
1761131576950418200,6.382418212890625,0.016111571341753006,-0.5243514776229858,-0.03810271993279457
1761131576960418800,6.392418701171875,-0.11888964474201202,-0.19998200237751007,0.18364135921001434
1761131576970418700,6.402418701171875,-0.20257818698883057,0.15676330029964447,0.38950294256210327
1761131576980418600,6.41241845703125,-0.23006711900234222,0.4878522455692291,0.5721516609191895
1761131576990418400,6.42241845703125,-0.21296289563179016,0.757854700088501,0.7456374168395996
1761131577000418600,6.43241845703125,-0.17447838187217712,0.9527207016944885,0.9124035835266113
1761131577010418400,6.44241845703125,-0.10850493609905243,1.0748937129974365,1.1225411891937256
1761131577020418600,6.45241845703125,-0.059635721147060394,1.0571786165237427,1.2263883352279663
1761131577030418400,6.46241845703125,-0.01687515154480934,0.958218514919281,1.3003029823303223
1761131577040418600,6.47241845703125,0.010002918541431427,0.8024478554725647,1.340009331703186
1761131577050418400,6.48241845703125,0.016722436994314194,0.5984188914299011,1.3430635929107666
1761131577060417800,6.492417724609375,0.008170322515070438,0.3473532497882843,1.2972487211227417
1761131577070417700,6.502417724609375,-0.010766499675810337,0.08101600408554077,1.205618977546692
1761131577080417500,6.51241748046875,-0.0443640872836113,-0.1474476009607315,1.0822241306304932
1761131577090417700,6.522417724609375,-0.05719225853681564,-0.34170275926589966,0.9441685676574707
1761131577100417500,6.53241748046875,-0.06330090761184692,-0.5316818356513977,0.7804567217826843
1761131577110417700,6.542417724609375,-0.08529205620288849,-0.7302130460739136,0.5831472277641296
1761131577120417500,6.55241748046875,-0.10117455571889877,-0.9085856676101685,0.3778965175151825
1761131577130417700,6.562417724609375,-0.11583532392978668,-1.039921760559082,0.1750892549753189
1761131577140417500,6.57241748046875,-0.15737415850162506,-1.1327732801437378,-0.03443752974271774
1761131577150417700,6.582417724609375,-0.21235203742980957,-1.2024118900299072,-0.2592359483242035
1761131577160418600,6.59241845703125,-0.263053834438324,-1.2427289485931396,-0.47792568802833557
1761131577170418400,6.60241845703125,-0.29359710216522217,-1.237842082977295,-0.6538549065589905
1761131577180418600,6.61241845703125,-0.3119230568408966,-1.2066879272460938,-0.7735844850540161
1761131577190418400,6.62241845703125,-0.3424663245677948,-1.144379734992981,-0.8371144533157349
1761131577200418600,6.63241845703125,-0.37117698788642883,-1.05641508102417,-0.8646034002304077
1761131577210418400,6.64241845703125,-0.38461601734161377,-0.980667769908905,-0.8786532878875732
1761131577220418600,6.65241845703125,-0.3870594799518585,-0.9379072189331055,-0.9073639512062073
1761131577230418400,6.66241845703125,-0.401720255613327,-0.9379072189331055,-0.9782243371009827
1761131577240418600,6.67241845703125,-0.4945717751979828,-1.0924561023712158,-1.256168007850647
1761131577250418400,6.68241845703125,-0.5990297198295593,-1.2928199768066406,-1.581148386001587
1761131577260417800,6.692417724609375,-0.6979898810386658,-1.429042935371399,-1.9354501962661743
1761131577270417700,6.702417724609375,-0.776180624961853,-1.4204907417297363,-2.2115612030029297
1761131577280418000,6.71241796875,-0.8427649736404419,-1.275715708732605,-2.3343451023101807
1761131577290418000,6.72241796875,-0.8971319794654846,-1.0185414552688599,-2.2720370292663574
1761131577300418000,6.73241796875,-0.9313403964042664,-0.6544657349586487,-2.058845043182373
1761131577310418000,6.74241796875,-0.9521098136901855,-0.22686007618904114,-1.7741817235946655
1761131577320417800,6.752417724609375,-0.967381477355957,0.20379991829395294,-1.5090662240982056
1761131577330418000,6.76241796875,-0.9875400066375732,0.5336671471595764,-1.3447434902191162
1761131577340417800,6.772417724609375,-1.016250729560852,0.7040985822677612,-1.2995394468307495
1761131577350418000,6.78241796875,-1.0431287288665771,0.787176251411438,-1.3361914157867432
1761131577360418800,6.792418701171875,-1.0773372650146484,0.8458192944526672,-1.4131604433059692
1761131577370418700,6.802418701171875,-1.1060478687286377,0.939281702041626,-1.464473009109497
1761131577380418800,6.812418701171875,-1.0962740182876587,1.0846675634384155,-1.4284319877624512
1761131577390418700,6.822418701171875,-1.022970199584961,1.253266453742981,-1.2958742380142212
1761131577400418800,6.832418701171875,-0.8720865249633789,1.3870458602905273,-1.0869582891464233
1761131577410418700,6.842418701171875,-0.6503424048423767,1.4487433433532715,-0.8273406028747559
1761131577420417800,6.852417724609375,-0.3937790095806122,1.413923978805542,-0.5506186485290527
1761131577430418000,6.86241796875,-0.1408807933330536,1.2709815502166748,-0.2897791862487793
1761131577440417800,6.872417724609375,0.08147415518760681,1.054124355316162,-0.06253732740879059
1761131577450418000,6.88241796875,0.2482403665781021,0.80550217628479,0.12438743561506271
1761131577460417000,6.8924169921875,0.354530930519104,0.5464953184127808,0.26977336406707764
1761131577470417200,6.902417236328125,0.41867175698280334,0.22701279819011688,0.43653959035873413
1761131577480417000,6.9124169921875,0.4107305109500885,0.1048397496342659,0.5238932967185974
1761131577490417200,6.922417236328125,0.3691916763782501,0.07735081017017365,0.596586287021637
1761131577500417000,6.9324169921875,0.3087160289287567,0.12866349518299103,0.643622875213623
1761131577510417200,6.942417236328125,0.2482403665781021,0.24289529025554657,0.6619488596916199
1761131577520417000,6.9524169921875,0.20242546498775482,0.37606391310691833,0.6491206884384155
1761131577530417000,6.9624169921875,0.1731039434671402,0.5000695586204529,0.6204100251197815
1761131577540417000,6.9724169921875,0.15050192177295685,0.5990297198295593,0.5849798321723938
1761131577550417000,6.9824169921875,0.13156510889530182,0.6619488596916199,0.5526039600372314
1761131577560417800,6.992417724609375,0.11018481850624084,0.6650031805038452,0.5226715803146362
1761131577570418000,7.00241796875,0.08819366991519928,0.6179665327072144,0.4945717751979828
1761131577580417800,7.012417724609375,0.07108944654464722,0.5361106395721436,0.4695262908935547
1761131577590418000,7.02241796875,0.06314819306135178,0.41515928506851196,0.44631341099739075
1761131577600417800,7.032417724609375,0.05826127156615257,0.26488643884658813,0.4322635233402252
1761131577610418000,7.04241796875,0.05337435007095337,0.11888964474201202,0.43531784415245056
1761131577620417800,7.052417724609375,0.042989641427993774,-0.015500705689191818,0.4383721649646759
1761131577630418000,7.06241796875,0.022831087931990623,-0.15050192177295685,0.41577014327049255
1761131577640417800,7.072417724609375,-0.004657847341150045,-0.2647337317466736,0.3681226670742035
1761131577650418000,7.08241796875,-0.030925052240490913,-0.32826370000839233,0.2972623109817505
1761131577660417000,7.0924169921875,-0.06574437022209167,-0.3704134225845337,0.1964695304632187
1761131577670417200,7.102417236328125,-0.11644618958234787,-0.4400520622730255,0.05902485549449921
1761131577680417000,7.1124169921875,-0.17447838187217712,-0.5384013652801514,-0.10163270682096481
1761131577690417000,7.1224169921875,-0.22762365639209747,-0.6330854892730713,-0.2677880525588989
1761131577700417000,7.1324169921875,-0.2777146100997925,-0.7143305540084839,-0.4266130030155182
1761131577710417000,7.1424169921875,-0.37606391310691833,-0.7931321859359741,-0.6465244889259338
1761131577720417800,7.152417724609375,-0.47074803709983826,-0.7900778651237488,-0.7625889182090759
1761131577730418000,7.16241796875,-0.5794820189476013,-0.697226345539093,-0.8175667524337769
1761131577740417800,7.172417724609375,-0.6821073889732361,-0.5127450227737427,-0.7864126563072205
1761131577750418000,7.18241796875,-0.757854700088501,-0.2903900742530823,-0.6703482270240784
1761131577760418800,7.192418701171875,-0.7780132293701172,-0.05093089118599892,-0.48464521765708923
1761131577770418700,7.202418701171875,-0.7248679995536804,0.19280433654785156,-0.24762949347496033
1761131577780418800,7.212418701171875,-0.6002514362335205,0.39500072598457336,-0.01061378326267004
1761131577790418700,7.222418701171875,-0.4322635233402252,0.5177846550941467,0.190360888838768
1761131577800418800,7.232418701171875,-0.2709950804710388,0.5507713556289673,0.3357468247413635
1761131577810418700,7.242418701171875,-0.15737415850162506,0.47135889530181885,0.4188244938850403
1761131577820418800,7.252418701171875,-0.09384417533874512,0.2917645275592804,0.44570255279541016
1761131577830418700,7.262418701171875,-0.060246583074331284,0.07307475805282593,0.43043091893196106
1761131577840418800,7.272418701171875,-0.05780312418937683,-0.1126282811164856,0.40110939741134644
1761131577850418700,7.282418701171875,-0.07673994451761246,-0.18226692080497742,0.38950294256210327
1761131577860417800,7.292417724609375,-0.09873109310865402,-0.1175151988863945,0.41088324785232544
1761131577870418000,7.30241796875,-0.1097266674041748,0.02054034359753132,0.44081562757492065
1761131577880417800,7.312417724609375,-0.10728321224451065,0.14271339774131775,0.4328743815422058
1761131577890418000,7.32241796875,-0.09812022745609283,0.2264019250869751,0.3687335252761841
1761131577900417800,7.332417724609375,-0.09140071272850037,0.2832123935222626,0.24961480498313904
1761131577910418000,7.34241796875,-0.08284860104322433,0.3229186534881592,0.09934195876121521
1761131577920417800,7.352417724609375,-0.06513350456953049,0.3375793993473053,-0.03504839166998863
1761131577930418000,7.36241796875,-0.036422841250896454,0.3314707577228546,-0.09796751290559769
1761131577940417800,7.372417724609375,0.033826664090156555,0.28504499793052673,-0.000839939690195024
1761131577950418000,7.38241796875,0.10529789328575134,0.2410627007484436,0.1610393524169922
1761131577960418800,7.392418701171875,0.19204075634479523,0.15737415850162506,0.3271946907043457
1761131577970418700,7.402418701171875,0.2934443950653076,0.059635721147060394,0.44020476937294006
1761131577980418800,7.412418701171875,0.4003458023071289,-0.028328875079751015,0.4689154326915741
1761131577990419000,7.4224189453125,0.4907538592815399,-0.1578323096036911,0.39133554697036743
1761131578000418800,7.432418701171875,0.5219079852104187,-0.3954588770866394,0.20441077649593353
1761131578010419000,7.4424189453125,0.4864778220653534,-0.7192174792289734,-0.06864598393440247
1761131578020419000,7.452419189453125,0.4009566605091095,-0.9959394335746765,-0.353920042514801
1761131578030419000,7.4624189453125,0.2683989107608795,-1.1376601457595825,-0.5695554614067078
1761131578040418800,7.472418701171875,0.06864598393440247,-1.141936182975769,-0.6642395853996277
1761131578050419000,7.4824189453125,-0.1964695304632187,-0.9641744494438171,-0.6312528848648071
1761131578060418000,7.49241796875,-0.48601967096328735,-0.6086508631706238,-0.516410231590271
1761131578070418200,7.502418212890625,-0.758465588092804,-0.18409951031208038,-0.39301541447639465
1761131578080418000,7.51241796875,-0.9606619477272034,0.20685423910617828,-0.3038291037082672
1761131578090418000,7.52241796875,-1.0492373704910278,0.5403866767883301,-0.23602305352687836
1761131578100418000,7.53241796875,-1.0486265420913696,0.7431939244270325,-0.16394096612930298
1761131578110418000,7.54241796875,-0.9795987606048584,0.7890087962150574,-0.05826127156615257
1761131578120418000,7.55241796875,-0.861090898513794,0.6747770309448242,0.10911580175161362
1761131578130418000,7.56241796875,-0.6992116570472717,0.40538543462753296,0.3369685411453247
1761131578140418000,7.57241796875,-0.5043455958366394,0.09567677229642868,0.6106361746788025
1761131578150418000,7.58241796875,-0.30398181080818176,-0.2280818074941635,0.8940776586532593
1761131578160418800,7.592418701171875,-0.130496084690094,-0.4974733889102936,1.1530845165252686
1761131578170419000,7.6024189453125,0.10346530377864838,-0.9220247268676758,1.4261412620544434
1761131578180418800,7.612418701171875,0.24518603086471558,-1.1700360774993896,1.545259952545166
1761131578190419000,7.6224189453125,0.3300963044166565,-1.3734540939331055,1.5703054666519165
1761131578200418800,7.632418701171875,0.3795763850212097,-1.5457181930541992,1.520214557647705
1761131578210419000,7.6424189453125,0.3991240859031677,-1.6709455251693726,1.4078153371810913
1761131578220418800,7.652418701171875,0.38690677285194397,-1.7356972694396973,1.2331078052520752
1761131578230419000,7.6624189453125,0.3490331172943115,-1.7247016429901123,1.014418125152588
1761131578240418800,7.672418701171875,0.30566170811653137,-1.6446783542633057,0.7651850581169128
1761131578250419000,7.6824189453125,0.26595544815063477,-1.5255595445632935,0.49579349160194397
1761131578260418000,7.69241796875,0.2244166135787964,-1.3911691904067993,0.2312888503074646
1761131578270418000,7.70241796875,0.17676913738250732,-1.2353986501693726,0.005268712528049946
1761131578280417800,7.712417724609375,0.1077413558959961,-1.0332021713256836,-0.15416711568832397
1761131578290418000,7.72241796875,0.0020616701804101467,-0.8206210732460022,-0.26229026913642883
1761131578300417800,7.732417724609375,-0.13660474121570587,-0.667904794216156,-0.344757080078125
1761131578310418000,7.74241796875,-0.29542970657348633,-0.5561164617538452,-0.4217261075973511
1761131578320417800,7.752417724609375,-0.4334852397441864,-0.45471280813217163,-0.5274057984352112
1761131578330418000,7.76241796875,-0.5226715803146362,-0.44860416650772095,-0.6569092273712158
1761131578340417800,7.772417724609375,-0.5984188914299011,-0.5267949104309082,-0.8401687741279602
1761131578350418000,7.78241796875,-0.6790530681610107,-0.6275876760482788,-1.0985647439956665
1761131578360418600,7.79241845703125,-0.7621307373046875,-0.7369325757026672,-1.4577535390853882
1761131578370418700,7.802418701171875,-0.8513170480728149,-0.8303949236869812,-1.8871917724609375
1761131578380418800,7.812418701171875,-0.9350056052207947,-0.790688693523407,-2.3025801181793213
1761131578390418700,7.822418701171875,-1.0107529163360596,-0.5848271250724792,-2.6208410263061523
1761131578400418600,7.83241845703125,-1.1335368156433105,-0.10835222154855728,-2.80471134185791
1761131578410418700,7.842418701171875,-1.1915689706802368,0.2154063582420349,-2.7020859718322754
1761131578420417800,7.852417724609375,-1.1940125226974487,0.5055673718452454,-2.4418575763702393
1761131578430418000,7.86241796875,-1.1414780616760254,0.7548003792762756,-2.0881664752960205
1761131578440417800,7.872417724609375,-1.0394635200500488,0.9337838888168335,-1.723479986190796
1761131578450418000,7.88241796875,-0.909349262714386,1.0138071775436401,-1.4143821001052856
1761131578460417000,7.8924169921875,-0.7590764164924622,1.024191975593567,-1.1816424131393433
1761131578470417000,7.9024169921875,-0.5971971154212952,1.0186941623687744,-1.0002155303955078
1761131578480417000,7.9124169921875,-0.4267657399177551,1.0376310348510742,-0.8316166996955872
1761131578490417000,7.9224169921875,-0.23923009634017944,1.0742828845977783,-0.6312528848648071
1761131578500417000,7.9324169921875,-0.02298380434513092,1.0932197570800781,-0.3759112060070038
1761131578510417000,7.9424169921875,0.22258402407169342,1.0626764297485352,-0.07475463300943375
1761131578520417000,7.9524169921875,0.47792568802833557,0.9716575145721436,0.2416735589504242
1761131578530417000,7.9624169921875,0.7100545167922974,0.8122217059135437,0.5251150131225586
1761131578540417000,7.9724169921875,0.8988118767738342,0.6039166450500488,0.7444156408309937
1761131578550417000,7.9824169921875,1.0313695669174194,0.38033998012542725,0.8879690170288086
1761131578560417800,7.992417724609375,1.09734308719635,0.16409367322921753,0.957607626914978
1761131578570418000,8.00241796875,1.0912344455718994,-0.010002918541431427,0.9612728357315063
1761131578580417800,8.012417724609374,0.9989937543869019,-0.09308059513568878,0.9105709791183472
1761131578590418000,8.02241796875,0.8468883037567139,-0.10651962459087372,0.8262715935707092
1761131578600417800,8.032417724609376,0.6648504734039307,-0.05520694702863693,0.7205919027328491
1761131578610418000,8.04241796875,0.467540979385376,0.07796167582273483,0.6069709658622742
1761131578620417800,8.052417724609375,0.2952769994735718,0.25938865542411804,0.5251150131225586
1761131578630418000,8.06241796875,0.1175151988863945,0.5306128263473511,0.5073999166488647
1761131578640417800,8.072417724609375,0.04909829422831535,0.6814965605735779,0.5617669224739075
1761131578650418000,8.08241796875,0.019776761531829834,0.7883979678153992,0.6478989720344543
1761131578660417000,8.0924169921875,0.02099849283695221,0.8360454440116882,0.7511351704597473
1761131578670417000,8.1024169921875,0.0417679101228714,0.8226063847541809,0.8482627272605896
1761131578680417000,8.1124169921875,0.07047858089208603,0.7444156408309937,0.9148470759391785
1761131578690417000,8.1224169921875,0.10590875893831253,0.606360137462616,0.9527207016944885
1761131578700417000,8.1324169921875,0.13950635492801666,0.4432590901851654,0.9643271565437317
1761131578710417000,8.1424169921875,0.1633300930261612,0.2667190432548523,0.9508880972862244
1761131578720417800,8.152417724609375,0.1676061451435089,0.08162686973810196,0.9062949419021606
1761131578730418000,8.16241796875,0.1584431678056717,-0.09430231899023056,0.8354345560073853
1761131578740417800,8.172417724609375,0.13400855660438538,-0.25068381428718567,0.7321983575820923
1761131578750418000,8.18241796875,0.09491318464279175,-0.38385245203971863,0.595364511013031
1761131578760418800,8.192418701171874,0.05398521572351456,-0.4876995384693146,0.4322635233402252
1761131578770418700,8.202418701171876,0.006337726954370737,-0.5310709476470947,0.2569451928138733
1761131578780418800,8.212418701171876,-0.04680754989385605,-0.5035820603370667,0.07612907886505127
1761131578790418700,8.222418701171875,-0.10239628702402115,-0.4198935031890869,-0.09552405029535294
1761131578800418800,8.232418701171875,-0.14698944985866547,-0.2983313202857971,-0.25251641869544983
1761131578810418700,8.242418701171875,-0.16775886714458466,-0.15050192177295685,-0.38324159383773804
1761131578820418600,8.25241845703125,-0.16287194192409515,-0.01061378326267004,-0.4657084047794342
1761131578830418700,8.262418701171875,-0.13355042040348053,0.10422888398170471,-0.47975829243659973
1761131578840418600,8.27241845703125,-0.08529205620288849,0.1964695304632187,-0.41806089878082275
1761131578850418700,8.282418701171874,-0.023594669997692108,0.26427558064460754,-0.2983313202857971
1761131578860417800,8.292417724609376,0.051541756838560104,0.3064252734184265,-0.14561499655246735
1761131578870418000,8.30241796875,0.20120373368263245,0.3027600944042206,0.07307475805282593
1761131578880417800,8.312417724609375,0.3184898793697357,0.2606103718280792,0.17081318795681
1761131578890418000,8.32241796875,0.4369977116584778,0.18791742622852325,0.21723894774913788
1761131578910418000,8.34241796875,0.6159812211990356,-0.010002918541431427,0.16959145665168762
1761131578920417800,8.352417724609374,0.6465244889259338,-0.10346530377864838,0.0846811980009079
1761131578930418000,8.36241796875,0.6336963176727295,-0.15661057829856873,-0.018555032089352608
1761131578940417800,8.372417724609376,0.5909357666969299,-0.1376737505197525,-0.10163270682096481
1761131578950418000,8.38241796875,0.5316818356513977,-0.022831087931990623,-0.1376737505197525
1761131578960418800,8.392418701171875,0.4712061882019043,0.20196732878684998,-0.10468703508377075
1761131578970418700,8.402418701171875,0.43211081624031067,0.49701523780822754,-0.007559457328170538
1761131578980418800,8.412418701171875,0.4205043613910675,0.7621307373046875,0.09873109310865402
1761131578990418700,8.422418701171875,0.4406629204750061,0.8653669953346252,0.14210252463817596
1761131579000418800,8.432418701171875,0.49930599331855774,0.8171086311340332,0.10789407044649124
1761131579010418700,8.442418701171874,0.5878814458847046,0.7193701863288879,0.04069889709353447
1761131579020418800,8.452418701171876,0.6666830778121948,0.60513836145401,-0.03810271993279457
1761131579030418700,8.462418701171876,0.7027240991592407,0.4896848499774933,-0.12973250448703766
1761131579040418800,8.472418701171875,0.7405977249145508,0.3467423915863037,-0.20425806939601898
1761131579050418700,8.482418701171875,0.7919104099273682,0.20441077649593353,-0.21647536754608154
1761131579060417800,8.492417724609375,0.8187885284423828,0.13416127860546112,-0.16394096612930298
1761131579070418000,8.50241796875,0.8273406028747559,0.13293954730033875,-0.06742425262928009
1761131579080417800,8.512417724609374,0.8340601325035095,0.1610393524169922,0.021762074902653694
1761131579090418000,8.52241796875,0.8517752289772034,0.2257910668849945,0.059635721147060394
1761131579100417800,8.532417724609376,0.868268609046936,0.3168099820613861,-0.025274548679590225
1761131579110418000,8.54241796875,0.828562319278717,0.2618321180343628,-0.20425806939601898
1761131579120417800,8.552417724609375,0.801073431968689,0.09017898142337799,-0.435165137052536
1761131579130418000,8.56241796875,0.781525731086731,-0.09124799817800522,-0.6538549065589905
1761131579140417800,8.572417724609375,0.7137196660041809,-0.2189188301563263,-0.7949647307395935
1761131579150418000,8.58241796875,0.6202573180198669,-0.3038291037082672,-0.7723627686500549
1761131579160418800,8.592418701171875,0.516410231590271,-0.3105486333370209,-0.5561164617538452
1761131579170418700,8.602418701171874,0.4052327275276184,-0.1981494128704071,-0.21036672592163086
1761131579180418800,8.612418701171874,0.3197115957736969,0.029703322798013687,0.2105194330215454
1761131579190418700,8.622418701171876,0.28122708201408386,0.32414036989212036,0.6424011588096619
1761131579200418800,8.632418701171876,0.30138564109802246,0.6094144582748413,1.0559569597244263
1761131579210418700,8.642418701171875,0.3710242807865143,0.8103891015052795,1.4408020973205566
1761131579220418800,8.652418701171875,0.4699844419956207,0.9142361879348755,1.7798322439193726
1761131579230418700,8.662418701171875,0.5707772374153137,0.9319512844085693,2.0608303546905518
1761131579240418800,8.672418701171875,0.6562983393669128,0.8800277709960938,2.2752439975738525
1761131579250418700,8.682418701171875,0.7271587252616882,0.7877870798110962,2.42124080657959
1761131579260417800,8.692417724609374,0.7693084478378296,0.6527858972549438,2.4957664012908936
1761131579270418000,8.70241796875,0.7784714102745056,0.47196975350379944,2.505540132522583
1761131579280417800,8.712417724609375,0.7589237093925476,0.2679407596588135,2.4627795219421387
1761131579290418000,8.72241796875,0.7186065912246704,0.06269004940986633,2.374204158782959
1761131579300417800,8.732417724609375,0.6611852645874023,-0.13645201921463013,2.2471442222595215
1761131579310418000,8.74241796875,0.5927683711051941,-0.3093268871307373,2.088930130004883
1761131579320417800,8.752417724609375,0.5176319479942322,-0.44249552488327026,1.9099465608596802
1761131579330418000,8.76241796875,0.43272167444229126,-0.5939900875091553,1.6094008684158325
1761131579340417800,8.772417724609374,0.3954588770866394,-0.6599635481834412,1.404150128364563
1761131579350418000,8.78241796875,0.3563635051250458,-0.6947828531265259,1.2092840671539307
1761131579360418600,8.79241845703125,0.31238120794296265,-0.7057784199714661,1.0296896696090698
1761131579370418700,8.802418701171876,0.273285835981369,-0.6801220774650574,0.8580365777015686
1761131579380418800,8.812418701171875,0.23296873271465302,-0.6092617511749268,0.6906595230102539
1761131579390418700,8.822418701171875,0.18104518949985504,-0.4822017550468445,0.5251150131225586
1761131579400418800,8.832418701171875,0.11995866149663925,-0.31177034974098206,0.36140313744544983
1761131579410418700,8.842418701171875,0.05948300287127495,-0.13889548182487488,0.20257818698883057
1761131579420418800,8.852418701171874,0.01794416643679142,-0.007559457328170538,0.0541379339993
1761131579430418700,8.862418701171874,0.02038762718439102,0.08895725011825562,-0.06620252132415771
1761131579440418800,8.872418701171876,0.0668133869767189,0.16959145665168762,-0.1584431678056717
1761131579450418700,8.882418701171876,0.14378240704536438,0.22518019378185272,-0.22563834488391876
1761131579460418000,8.89241796875,0.2335795909166336,0.2563343346118927,-0.29100093245506287
1761131579470418000,8.90241796875,0.32276591658592224,0.2569451928138733,-0.37835466861724854
1761131579480418000,8.91241796875,0.40889793634414673,0.2013564556837082,-0.5084689855575562
1761131579490418000,8.92241796875,0.4760931134223938,0.07368562370538712,-0.6905068159103394
1761131579500418000,8.93241796875,0.5029711723327637,-0.12362385541200638,-0.9476810693740845
1761131579510418000,8.94241796875,0.47975829243659973,-0.3258202373981476,-1.3215305805206299
1761131579520418000,8.95241796875,0.4718170464038849,-0.5518403649330139,-1.7289776802062988
1761131579530418000,8.96241796875,0.47303876280784607,-0.7607563138008118,-2.081446886062622
1761131579540417800,8.972417724609375,0.45959973335266113,-0.9079748392105103,-2.2940280437469482
1761131579550418000,8.98241796875,0.4308890700340271,-0.9611201286315918,-2.330069065093994
1761131579560418800,8.992418701171875,0.4314999282360077,-0.857883870601654,-2.0325777530670166
1761131579570418700,9.002418701171875,0.5023602843284607,-0.5640577077865601,-1.6300175189971924
1761131579580418800,9.012418701171875,0.6239224672317505,-0.10529789328575134,-1.1486557722091675
1761131579590418700,9.022418701171874,0.7955756187438965,0.4224896728992462,-0.6752351522445679
1761131579600418800,9.032418701171874,1.007545828819275,0.9563859105110168,-0.26656633615493774
1761131579610418700,9.042418701171876,1.2225704193115234,1.4481323957443237,0.059635721147060394
1761131579620418800,9.052418701171876,1.4308754205703735,1.8574120998382568,0.3119230568408966
1761131579630418700,9.062418701171875,1.6171894073486328,2.11519718170166,0.4744132161140442
1761131579640418800,9.072418701171875,1.7821229696273804,2.1976640224456787,0.5489387512207031
1761131579650418700,9.082418701171875,1.9495000839233398,2.092595338821411,0.5623778104782104
1761131579660417800,9.092417724609374,2.117487907409668,1.83114492893219,0.5446627140045166
1761131579670418000,9.10241796875,2.2500457763671875,1.4591280221939087,0.5177846550941467
1761131579680417800,9.112417724609376,2.3312909603118896,1.0303006172180176,0.4902957081794739
1761131579690418000,9.12241796875,2.349005937576294,0.6075818538665771,0.4640285074710846
1761131579700417800,9.132417724609375,2.3025801181793213,0.24961480498313904,0.43165266513824463
1761131579710418000,9.14241796875,2.209728717803955,0.012599095702171326,0.39011383056640625
1761131579720417800,9.152417724609375,2.0936641693115234,-0.07108944654464722,0.34002286195755005
1761131579730418000,9.16241796875,1.977599859237671,-0.005726861767470837,0.3027600944042206
1761131579740417800,9.172417724609375,1.8804723024368286,0.1659262776374817,0.29970577359199524
1761131579750418000,9.18241796875,1.805946707725525,0.42065706849098206,0.33941200375556946
1761131579760418600,9.19241845703125,1.7595210075378418,0.7236462235450745,0.41515928506851196
1761131579770418700,9.202418701171876,1.741805911064148,1.0266354084014893,0.5049564838409424
1761131579780418600,9.21241845703125,1.7454711198806763,1.2599859237670898,0.5855907201766968
1761131579790418700,9.222418701171875,1.790675163269043,1.4414129257202148,0.6576728224754333
1761131579800418600,9.23241845703125,1.8377116918563843,1.470123529434204,0.6778313517570496
1761131579810418700,9.242418701171875,1.8908569812774658,1.4377477169036865,0.6741661429405212
1761131579820418800,9.252418701171875,1.941558837890625,1.3510048389434814,0.6381251215934753
1761131579830418700,9.262418701171875,1.9898171424865723,1.2147818803787231,0.5684864521026611
1761131579840418800,9.272418701171874,2.0380754470825195,1.03579843044281,0.4835762083530426
1761131579850418700,9.282418701171874,2.072894811630249,0.8103891015052795,0.39622247219085693
1761131579860417800,9.292417724609376,2.081446886062622,0.566653847694397,0.3265838325023651
1761131579870418000,9.30241796875,2.061288356781006,0.3278055489063263,0.2813797891139984
1761131579880417800,9.312417724609375,2.0240256786346436,0.13293954730033875,0.2459496259689331
1761131579890418000,9.32241796875,1.9849302768707275,0.023594669997692108,0.21784982085227966
1761131579900417800,9.332417724609375,1.9433914422988892,0.008323038928210735,0.19952386617660522
1761131579910418000,9.34241796875,1.8957439661026,0.06879869848489761,0.1915826052427292
1761131579920417800,9.352417724609374,1.8615354299545288,0.19280433654785156,0.20257818698883057
1761131579930418000,9.36241796875,1.8389334678649902,0.36506834626197815,0.2471713423728943
1761131579940417800,9.372417724609376,1.8242727518081665,0.5727625489234924,0.32902729511260986
1761131579950418000,9.38241796875,1.817553162574768,0.7835110425949097,0.43104177713394165
1761131579960418800,9.392418701171875,1.8267161846160889,0.9887617826461792,0.5379431843757629
1761131579970418700,9.402418701171875,1.8523725271224976,1.1659126281738281,0.6240752339363098
1761131579980418800,9.412418701171875,1.8945221900939941,1.2667053937911987,0.673555314540863
1761131579990418700,9.422418701171875,1.9549978971481323,1.3039681911468506,0.6924921274185181
1761131580000418800,9.432418701171875,2.014862537384033,1.2905291318893433,0.6796639561653137
1761131580010418700,9.442418701171874,2.061899185180664,1.2361621856689453,0.6301838755607605
1761131580020418600,9.45241845703125,2.0777816772460938,1.0858893394470215,0.49090659618377686
1761131580030418400,9.46241845703125,2.0655643939971924,0.9447794556617737,0.36995527148246765
1761131580040418600,9.47241845703125,2.0350213050842285,0.8000044226646423,0.24900394678115845
1761131580050418400,9.48241845703125,1.9916497468948364,0.6778313517570496,0.14637859165668488
1761131580060417500,9.49241748046875,1.9647717475891113,0.6020840406417847,0.09262244403362274
1761131580070417700,9.502417724609375,1.9311741590499878,0.6026949286460876,0.0846811980009079
1761131580080417500,9.51241748046875,1.8902461528778076,0.6759987473487854,0.11950051039457321
1761131580090417700,9.522417724609374,1.8572593927383423,0.8000044226646423,0.2062433809041977
1761131580100417500,9.53241748046875,1.8316030502319336,0.9563859105110168,0.31925344467163086
1761131580110417700,9.542417724609376,1.8132771253585815,1.1139891147613525,0.4340961277484894
1761131580120417500,9.55241748046875,1.8022814989089966,1.253266453742981,0.5373323559761047
1761131580130417400,9.56241748046875,1.8004488945007324,1.3577243089675903,0.6167448163032532
1761131580140417500,9.57241748046875,1.8065576553344727,1.4035392999649048,0.6747770309448242
1761131580150417400,9.58241748046875,1.815720558166504,1.3901002407073975,0.7150941491127014
1761131580160418300,9.592418212890625,1.8291596174240112,1.3412309885025024,0.748691737651825
1761131580170418400,9.60241845703125,1.8419877290725708,1.2770901918411255,0.776180624961853
1761131580180418300,9.612418212890624,1.8554267883300781,1.2111166715621948,0.8048913478851318
1761131580190418400,9.62241845703125,1.876196265220642,1.1591931581497192,0.8384889364242554
1761131580200418300,9.632418212890625,1.8920787572860718,1.118265151977539,0.8739190697669983
1761131580210418400,9.64241845703125,1.8914679288864136,1.1029936075210571,0.9087384343147278
1761131580220418300,9.652418212890625,1.8676440715789795,1.1121565103530884,0.9343947768211365
1761131580230418400,9.66241845703125,1.834046483039856,1.116432547569275,0.9368382096290588
1761131580240418300,9.672418212890625,1.805946707725525,1.0895545482635498,0.9069058299064636
1761131580250418400,9.68241845703125,1.779679536819458,1.042517900466919,0.8415432572364807
1761131580260417500,9.69241748046875,1.740584135055542,0.8940776586532593,0.6711118221282959
1761131580270417700,9.702417724609376,1.6978236436843872,0.7602981328964233,0.5177846550941467
1761131580280417500,9.71241748046875,1.6294066905975342,0.6130796074867249,0.33452507853507996
1761131580290417400,9.72241748046875,1.5365551710128784,0.4481460154056549,0.12316570430994034
1761131580300417800,9.732417724609375,1.427821159362793,0.26488643884658813,-0.10041097551584244
1761131580310417700,9.742417724609375,1.3105350732803345,0.11583532392978668,-0.3038291037082672
1761131580320418000,9.75241796875,1.1932488679885864,0.0541379339993,-0.4602105915546417
1761131580330418000,9.76241796875,1.0918452739715576,0.07185302674770355,-0.5622251033782959
1761131580340418000,9.77241796875,1.009378433227539,0.12316570430994034,-0.6019313335418701
1761131580350418000,9.78241796875,0.9391289353370667,0.2312888503074646,-0.5597816109657288
1761131580360418800,9.792418701171876,0.8798750042915344,0.40477457642555237,-0.44799330830574036
1761131580370419000,9.8024189453125,0.8346710205078125,0.6191883087158203,-0.30077478289604187
1761131580380418800,9.812418701171875,0.8065711855888367,0.8641452193260193,-0.16516269743442535
1761131580390419000,9.8224189453125,0.7992408275604248,1.1091022491455078,-0.07841982692480087
1761131580400418800,9.832418701171875,0.8151233196258545,1.329013705253601,-0.04787656292319298
1761131580410419000,9.8424189453125,0.8462774157524109,1.4902821779251099,-0.05948300287127495
1761131580420418800,9.852418701171874,0.8865945339202881,1.5715272426605225,-0.09491318464279175
1761131580430419000,9.8624189453125,0.9495136737823486,1.5806901454925537,-0.12912164628505707
1761131580440418800,9.872418701171876,1.0356457233428955,1.5159385204315186,-0.14622586965560913
1761131580450419000,9.8824189453125,1.1370493173599243,1.3925436735153198,-0.14683672785758972
1761131580460418000,9.89241796875,1.2445615530014038,1.2489902973175049,-0.1419498175382614
1761131580470418000,9.90241796875,1.3447434902191162,1.119486927986145,-0.1474476009607315
1761131580480418000,9.91241796875,1.4327080249786377,1.0205267667770386,-0.1786017268896103
1761131580490418000,9.92241796875,1.5280030965805054,0.9350056052207947,-0.31299206614494324
1761131580500418000,9.93241796875,1.5628223419189453,0.8867472410202026,-0.4620431959629059
1761131580510418000,9.94241796875,1.5768722295761108,0.806113064289093,-0.6471353769302368
1761131580520418000,9.95241796875,1.5756505727767944,0.673555314540863,-0.8511643409729004
1761131580530418000,9.96241796875,1.5628223419189453,0.5220606923103333,-1.039921760559082
1761131580540418000,9.97241796875,1.5451072454452515,0.4237114191055298,-1.1633164882659912
1761131580550418000,9.98241796875,1.511509656906128,0.4121049642562866,-1.1865293979644775
1761131580560418800,9.992418701171875,1.4626405239105225,0.4884631335735321,-1.112614631652832
1761131580570419000,10.0024189453125,1.4101060628890991,0.6705009937286377,-0.96173095703125
1761131580580418800,10.012418701171875,1.3581825494766235,0.9343947768211365,-0.7705301642417908
1761131580590419000,10.0224189453125,1.3227523565292358,1.2147818803787231,-0.600098729133606
1761131580600418600,10.03241845703125,1.3178653717041016,1.4548519849777222,-0.506636381149292
1761131580610418700,10.042418701171876,1.3502413034439087,1.6338354349136353,-0.5023602843284607
1761131580620418600,10.05241845703125,1.4125494956970215,1.7761670351028442,-0.5561164617538452
1761131580630418700,10.062418701171875,1.4748578071594238,1.8610773086547852,-0.6416375637054443
1761131580640418600,10.07241845703125,1.5335007905960083,1.851914405822754,-0.7253261208534241
1761131580650418700,10.082418701171875,1.5964199304580688,1.707139253616333,-0.781525731086731
1761131580660417800,10.092417724609374,1.683162808418274,1.4065935611724854,-0.8059603571891785
1761131580670417700,10.102417724609374,1.8065576553344727,0.9820422530174255,-0.8022951483726501
1761131580680417800,10.112417724609376,1.9568305015563965,0.49579349160194397,-0.7479281425476074
1761131580690417700,10.122417724609376,2.106492519378662,0.014431691728532314,-0.6117051839828491
1761131580700417800,10.132417724609375,2.2335524559020996,-0.4052327275276184,-0.3765220642089844
1761131580710417700,10.142417724609375,2.3257930278778076,-0.687452495098114,-0.04726569727063179
1761131580720417800,10.152417724609375,2.4039838314056396,-0.7845800518989563,0.5208389759063721
1761131580730418000,10.16241796875,2.4113142490386963,-0.638583242893219,0.8415432572364807
1761131580740417800,10.172417724609375,2.380160093307495,-0.3588069677352905,1.0602329969406128
1761131580750418000,10.18241796875,2.29647159576416,-0.024052819237113,1.1646909713745117
1761131580760418800,10.192418701171874,2.167578935623169,0.2911536395549774,1.1561387777328491
1761131580770418700,10.202418701171876,2.0124192237854004,0.5336671471595764,1.0626764297485352
1761131580780418800,10.212418701171876,1.8597028255462646,0.6509532928466797,0.9160687923431396
1761131580790418700,10.222418701171875,1.7075974941253662,0.6411794424057007,0.7548003792762756
1761131580800418800,10.232418701171875,1.5512158870697021,0.4988478422164917,0.6216317415237427
1761131580810418700,10.242418701171875,1.407051682472229,0.24900394678115845,0.5519931316375732
1761131580820418600,10.25241845703125,1.3105350732803345,-0.014278975315392017,0.5611560940742493
1761131580830418700,10.262418701171875,1.2610549926757812,-0.2238057553768158,0.6307947039604187
1761131580840418600,10.27241845703125,1.2164617776870728,-0.3459787964820862,0.747469961643219
1761131580850418700,10.282418701171874,1.187751054763794,-0.353920042514801,0.8922450542449951
1761131580860417800,10.292417724609376,1.1706469058990479,-0.29222264885902405,1.0400744676589966
1761131580870418000,10.30241796875,1.1602622270584106,-0.17127133905887604,1.183627724647522
1761131580880417800,10.312417724609375,1.1388819217681885,0.0016035212902352214,1.3070225715637207
1761131580890418000,10.32241796875,1.0930670499801636,0.19402606785297394,1.387656807899475
1761131580900417800,10.332417724609375,1.0185414552688599,0.3840051591396332,1.4145348072052002
1761131580910418000,10.34241796875,0.9263007640838623,0.5562691688537598,1.3980414867401123
1761131580920417800,10.352417724609374,0.8236754536628723,0.7016550898551941,1.3516156673431396
1761131580930418000,10.36241796875,0.7216609120368958,0.80550217628479,1.2850314378738403
1761131580940417800,10.372417724609376,0.6220899224281311,0.8604800701141357,1.2050080299377441
1761131580950418000,10.38241796875,0.49502992630004883,0.8507062196731567,1.0577895641326904
1761131580960418600,10.39241845703125,0.42722389101982117,0.7951174974441528,0.93805992603302
1761131580970418700,10.402418701171875,0.37285688519477844,0.7138723731040955,0.8067238926887512
1761131580980418800,10.412418701171875,0.33315062522888184,0.6271295547485352,0.6698901057243347
1761131580990418700,10.422418701171875,0.3044399619102478,0.5550474524497986,0.5416083931922913
1761131581000418800,10.432418701171875,0.2934443950653076,0.5251150131225586,0.4328743815422058
1761131581010418700,10.442418701171874,0.283059686422348,0.5263367891311646,0.32902729511260986
1761131581020418800,10.452418701171876,0.2745075821876526,0.5153411626815796,0.20807597041130066
1761131581030418700,10.462418701171876,0.2696206569671631,0.47624582052230835,0.06330090761184692
1761131581040418600,10.47241845703125,0.2683989107608795,0.3968333303928375,-0.10285443812608719
1761131581050418700,10.482418701171875,0.26351198554039,0.26366472244262695,-0.29100093245506287
1761131581060417800,10.492417724609375,0.2500729560852051,0.09262244403362274,-0.47792568802833557
1761131581070418000,10.50241796875,0.21952970325946808,-0.06375905871391296,-0.6178138256072998
1761131581080417800,10.512417724609374,0.16638441383838654,-0.15599970519542694,-0.6996697783470154
1761131581090418000,10.52241796875,0.11201741546392441,-0.17982345819473267,-0.7399868965148926
1761131581100417800,10.532417724609376,0.08025242388248444,-0.14072808623313904,-0.7363216876983643
1761131581110418000,10.54241796875,0.07597636431455612,-0.06925684958696365,-0.6691265106201172
1761131581120417800,10.552417724609375,0.09857837855815887,0.02603813074529171,-0.5341253280639648
1761131581130418000,10.56241796875,0.14133894443511963,0.12744176387786865,-0.3710242807865143
1761131581140417800,10.572417724609375,0.20059287548065186,0.2215150147676468,-0.2183079719543457
1761131581150418000,10.58241796875,0.26595544815063477,0.3180317282676697,-0.08330674469470978
1761131581160418600,10.59241845703125,0.3184898793697357,0.4182136058807373,0.03520110994577408
1761131581170418700,10.602418701171874,0.33864840865135193,0.5006804466247559,0.13232868909835815
1761131581180418600,10.61241845703125,0.31787899136543274,0.6204100251197815,0.24350616335868835
1761131581190418700,10.622418701171876,0.2800053656101227,0.7108180522918701,0.2978731691837311
1761131581200418600,10.63241845703125,0.23296873271465302,0.8079456686973572,0.3265838325023651
1761131581210418700,10.642418701171875,0.18104518949985504,0.8861364126205444,0.32047519087791443
1761131581220418800,10.652418701171875,0.14500413835048676,0.9270643591880798,0.27527114748954773
1761131581230418700,10.662418701171875,0.12667818367481232,0.9319512844085693,0.20807597041130066
1761131581240418800,10.672418701171875,0.1126282811164856,0.9050732254981995,0.12866349518299103
1761131581250418700,10.682418701171875,0.10835222154855728,0.8470410108566284,0.03520110994577408
1761131581260417800,10.692417724609374,0.11812606453895569,0.7535786628723145,-0.05826127156615257
1761131581270418000,10.70241796875,0.14011721312999725,0.6680575013160706,-0.13523028790950775
1761131581280417800,10.712417724609375,0.17004960775375366,0.5990297198295593,-0.19570595026016235
1761131581290418000,10.72241796875,0.20609065890312195,0.5471062064170837,-0.2390773892402649
1761131581300417800,10.732417724609375,0.24579690396785736,0.5342780351638794,-0.2629011273384094
1761131581310418000,10.74241796875,0.2836705446243286,0.5416083931922913,-0.273285835981369
1761131581320417800,10.752417724609375,0.3184898793697357,0.5428301095962524,-0.2690097689628601
1761131581330418000,10.76241796875,0.34842225909233093,0.5422192811965942,-0.2592359483242035
1761131581340417800,10.772417724609374,0.37285688519477844,0.5354997515678406,-0.2494620978832245
1761131581350418000,10.78241796875,0.39729148149490356,0.5251150131225586,-0.2390773892402649
1761131581360418600,10.79241845703125,0.4192826449871063,0.5245041847229004,-0.2189188301563263
1761131581370418700,10.802418701171876,0.4467715620994568,0.5354997515678406,-0.18165604770183563
1761131581380418600,10.81241845703125,0.47853657603263855,0.5593234896659851,-0.122402124106884
1761131581390418700,10.822418701171875,0.5206862688064575,0.5941427946090698,-0.05642867833375931
1761131581400418600,10.83241845703125,0.5671120285987854,0.6289620995521545,0.00038179077091626823
1761131581410418700,10.842418701171875,0.6416375637054443,0.6521750092506409,0.04864014685153961
1761131581420418600,10.85241845703125,0.6898959279060364,0.6356816291809082,0.06818783283233643
1761131581430418700,10.862418701171874,0.7399868965148926,0.5910884737968445,0.08040513843297958
1761131581440418600,10.87241845703125,0.780914843082428,0.5141194462776184,0.07857254147529602
1761131581450418700,10.882418701171876,0.8114581108093262,0.4188244938850403,0.05780312418937683
1761131581460417800,10.892417724609375,0.838336169719696,0.3174208402633667,0.013209961354732513
1761131581470417700,10.902417724609375,0.858494758605957,0.2215150147676468,-0.05093089118599892
1761131581480417800,10.912417724609375,0.8633816838264465,0.13721559941768646,-0.1278999149799347
1761131581490418000,10.92241796875,0.8474991917610168,0.06269004940986633,-0.2140319049358368
1761131581500417800,10.932417724609374,0.8157341480255127,-0.00022907447419129312,-0.30199649930000305
1761131581510418000,10.94241796875,0.7748062014579773,-0.052152618765830994,-0.37835466861724854
1761131581520417800,10.952417724609376,0.7320456504821777,-0.09430231899023056,-0.44249552488327026
1761131581530417700,10.962417724609375,0.6935611367225647,-0.12362385541200638,-0.5017494559288025
1761131581540417800,10.972417724609375,0.6593526601791382,-0.13523028790950775,-0.5603924989700317
1761131581550417700,10.982417724609375,0.6233116388320923,-0.13400855660438538,-0.619035542011261
1761131581560418600,10.99241845703125,0.5823836326599121,-0.11507174372673035,-0.6758460402488708
1761131581570418700,11.002418701171875,0.5396230816841125,-0.0918588638305664,-0.7234935164451599
1761131581580418600,11.01241845703125,0.4974733889102936,-0.08086328953504562,-0.7558693885803223
1761131581590418700,11.022418701171874,0.47364965081214905,-0.08025242388248444,-0.7656432390213013
1761131581600418600,11.03241845703125,0.4657084047794342,-0.0918588638305664,-0.7485389709472656
1761131581610418700,11.042418701171876,0.467540979385376,-0.09674578160047531,-0.7015023827552795
1761131581620418300,11.052418212890625,0.4705953001976013,-0.08452847599983215,-0.6281985640525818
1761131581630418400,11.06241845703125,0.4718170464038849,-0.07047858089208603,-0.5481752157211304
1761131581640418300,11.072418212890625,0.47975829243659973,-0.051541756838560104,-0.47364965081214905
1761131581650418400,11.08241845703125,0.505414605140686,-0.0069485921412706375,-0.37346774339675903
1761131581660417500,11.09241748046875,0.5127450227737427,0.04314235970377922,-0.315435528755188
1761131581670417400,11.10241748046875,0.5011385679244995,0.10117455571889877,-0.26595544815063477
1761131581680417500,11.11241748046875,0.47792568802833557,0.1555415689945221,-0.22747094929218292
1761131581690417400,11.12241748046875,0.4553236961364746,0.21296289563179016,-0.20059287548065186
1761131581700417500,11.13241748046875,0.44249552488327026,0.2654972970485687,-0.18226692080497742
1761131581710417400,11.14241748046875,0.43455424904823303,0.3333033621311188,-0.16210836172103882
1761131581720417500,11.15241748046875,0.4217261075973511,0.44509169459342957,-0.13645201921463013
1761131581730417400,11.16241748046875,0.4003458023071289,0.6094144582748413,-0.132786825299263
1761131581740417500,11.17241748046875,0.38751763105392456,0.7780132293701172,-0.1682170182466507
1761131581750417400,11.18241748046875,0.39301541447639465,0.8965210914611816,-0.25251641869544983
1761131581760418300,11.192418212890624,0.41806089878082275,0.9038515090942383,-0.39240455627441406
1761131581770418400,11.20241845703125,0.4669301211833954,0.7334200739860535,-0.5622251033782959
1761131581780418300,11.212418212890626,0.5414556860923767,0.4084397852420807,-0.7057784199714661
1761131581790418400,11.22241845703125,0.6349180936813354,0.030314188450574875,-0.7564802765846252
1761131581800418300,11.232418212890625,0.7283804416656494,-0.3093268871307373,-0.6825655698776245
1761131581810418400,11.24241845703125,0.8139016032218933,-0.48342347145080566,-0.4400520622730255
1761131581820418300,11.252418212890625,0.8969792723655701,-0.4046218693256378,-0.07170030474662781
1761131581830418400,11.26241845703125,0.9922742247581482,-0.06803511828184128,0.3357468247413635
1761131581840418300,11.272418212890624,1.09734308719635,0.37056612968444824,0.6674466133117676
1761131581850418400,11.28241845703125,1.208520531654358,0.767017662525177,0.8537605404853821
1761131581860417500,11.29241748046875,1.3117567300796509,1.051069974899292,0.8891907334327698
1761131581870417700,11.302417724609375,1.3862823247909546,1.186682105064392,0.80550217628479
1761131581880417500,11.31241748046875,1.4406492710113525,1.1121565103530884,0.5819255113601685
1761131581890417700,11.322417724609375,1.427821159362793,0.8928559422492981,0.44020476937294006
1761131581900417500,11.33241748046875,1.3655128479003906,0.595975399017334,0.3467423915863037
1761131581910417700,11.342417724609374,1.285489559173584,0.2978731691837311,0.3216969072818756
1761131581920417800,11.352417724609374,1.1938598155975342,0.06513350456953049,0.3430771827697754
1761131581930418000,11.36241796875,1.107116937637329,-0.04237877577543259,0.3882812261581421
1761131581940417800,11.372417724609376,1.0277043581008911,-0.022831087931990623,0.4469242990016937
1761131581950418000,11.38241796875,0.9574549198150635,0.07735081017017365,0.5196172595024109
1761131581960418600,11.39241845703125,0.9049205183982849,0.22701279819011688,0.6179665327072144
1761131581970418700,11.402418701171875,0.8664360046386719,0.4078288972377777,0.7401396036148071
1761131581980418800,11.412418701171875,0.8432230949401855,0.5874232649803162,0.8702539205551147
1761131581990418700,11.422418701171875,0.8358927369117737,0.7358635663986206,0.9912052154541016
1761131582000418800,11.432418701171875,0.848110020160675,0.8403214812278748,1.0950523614883423
1761131582010418700,11.442418701171874,0.8768206834793091,0.890412449836731,1.175075650215149
1761131582020418800,11.452418701171876,0.9104182720184326,0.9026297330856323,1.2276101112365723
1761131582040418800,11.472418701171875,0.9568440318107605,0.8720865249633789,1.2612076997756958
1761131582050418700,11.482418701171875,0.9611201286315918,0.8109999895095825,1.2428816556930542
1761131582060417800,11.492417724609375,0.9605092406272888,0.7205919027328491,1.2050080299377441
1761131582070418000,11.50241796875,0.9574549198150635,0.6045275330543518,1.1524736881256104
1761131582080417800,11.512417724609374,0.9470701813697815,0.48052188754081726,1.0834459066390991
1761131582090418000,11.52241796875,0.9238573312759399,0.3638466000556946,0.9997573494911194
1761131582100417800,11.532417724609376,0.8865945339202881,0.25938865542411804,0.9069058299064636
1761131582110418000,11.54241796875,0.801073431968689,0.12377656996250153,0.7566329836845398
1761131582120417800,11.552417724609375,0.7186065912246704,0.03764457255601883,0.6478989720344543
1761131582130418000,11.56241796875,0.619646430015564,-0.04054617881774902,0.5348888635635376
1761131582140417800,11.572417724609375,0.5090798139572144,-0.10529789328575134,0.42004621028900146
1761131582150417400,11.58241748046875,0.3893502354621887,-0.14011721312999725,0.3058144152164459
1761131582160418000,11.59241796875,0.26106852293014526,-0.13461942970752716,0.19463694095611572
1761131582170418200,11.602418212890624,0.12606731057167053,-0.09796751290559769,0.08895725011825562
1761131582180417800,11.612417724609376,-0.013820826075971127,-0.04360050708055496,-0.008170322515070438
1761131582190417700,11.622417724609376,-0.15431983768939972,0.022372938692569733,-0.08880453556776047
1761131582200417800,11.632417724609375,-0.2880993187427521,0.08773551881313324,-0.15416711568832397
1761131582210417700,11.642417724609375,-0.3974441885948181,0.1359938681125641,-0.2140319049358368
1761131582220417800,11.652417724609375,-0.46525025367736816,0.1598176211118698,-0.27084237337112427
1761131582230418000,11.66241796875,-0.49273917078971863,0.15431983768939972,-0.3307071626186371
1761131582240417800,11.672417724609375,-0.4902957081794739,0.08895725011825562,-0.40828704833984375
1761131582250418000,11.68241796875,-0.4597524404525757,-0.03810271993279457,-0.5029711723327637
1761131582260417000,11.6924169921875,-0.4084397852420807,-0.19692768156528473,-0.6025422215461731
1761131582270417000,11.7024169921875,-0.3467423915863037,-0.37285688519477844,-0.6941719651222229
1761131582280417000,11.7124169921875,-0.2856558561325073,-0.5481752157211304,-0.7528150677680969
1761131582290417000,11.7224169921875,-0.23189972341060638,-0.686841607093811,-0.761978030204773
1761131582300417000,11.7324169921875,-0.18791742622852325,-0.7650323510169983,-0.7094436287879944
1761131582310417000,11.7424169921875,-0.15248723328113556,-0.7595345973968506,-0.6135377883911133
1761131582320416800,11.752416748046874,-0.12133310735225677,-0.6831763982772827,-0.5084689855575562
1761131582330417000,11.7624169921875,-0.10178542137145996,-0.5335144400596619,-0.41806089878082275
1761131582340416800,11.772416748046876,-0.12805262207984924,-0.2079232633113861,-0.3698025345802307
1761131582350417000,11.7824169921875,-0.18425223231315613,-0.0014508049935102463,-0.42294782400131226
1761131582360417800,11.792417724609376,-0.2563343346118927,0.15431983768939972,-0.5432882905006409
1761131582370417700,11.802417724609375,-0.330859899520874,0.26855164766311646,-0.7015023827552795
1761131582380417800,11.812417724609375,-0.41577014327049255,0.33880114555358887,-0.8456665873527527
1761131582390417700,11.822417724609375,-0.5092325210571289,0.3528510332107544,-0.9354637861251831
1761131582400417500,11.83241748046875,-0.5819255113601685,0.3223077654838562,-0.9482919573783875
1761131582410417400,11.84241748046875,-0.6100252866744995,0.3070361316204071,-0.8755989670753479
1761131582420417500,11.85241748046875,-0.5923101902008057,0.3418554663658142,-0.7296021580696106
1761131582430417400,11.86241748046875,-0.5367214679718018,0.4041637182235718,-0.5414556860923767
1761131582440417500,11.87241748046875,-0.45058947801589966,0.46525025367736816,-0.344757080078125
1761131582450418000,11.88241796875,-0.33941200375556946,0.49762609601020813,-0.16943874955177307
1761131582460417000,11.8924169921875,-0.220904141664505,0.4683045744895935,-0.02955060638487339
1761131582470417200,11.902417236328125,-0.10850493609905243,0.391946405172348,0.0797942727804184
1761131582480417500,11.91241748046875,-0.01687515154480934,0.282601535320282,0.16653713583946228
1761131582490417700,11.922417724609375,0.04237877577543259,0.14332425594329834,0.22334760427474976
1761131582500417500,11.93241748046875,0.08025242388248444,0.006490443367511034,0.24839307367801666
1761131582510417700,11.942417724609374,0.09674578160047531,-0.13339769840240479,0.2459496259689331
1761131582520417500,11.95241748046875,0.10285443812608719,-0.27084237337112427,0.22456933557987213
1761131582530417400,11.96241748046875,0.1071304902434349,-0.3856850564479828,0.19341520965099335
1761131582540417500,11.97241748046875,0.10468703508377075,-0.4614323377609253,0.16348281502723694
1761131582550417400,11.98241748046875,0.08391761034727097,-0.4858669340610504,0.15431983768939972
1761131582560418300,11.992418212890625,0.045433104038238525,-0.4620431959629059,0.1860848218202591
1761131582570418400,12.00241845703125,-0.05535966157913208,-0.37346774339675903,0.29542970657348633
1761131582580418300,12.012418212890625,-0.14637859165668488,-0.2995530366897583,0.37606391310691833
1761131582590418400,12.02241845703125,-0.24961480498313904,-0.223194882273674,0.4481460154056549
1761131582600418300,12.032418212890626,-0.36567920446395874,-0.12973250448703766,0.5000695586204529
1761131582610418400,12.04241845703125,-0.4939609169960022,-0.048487428575754166,0.5202280879020691
1761131582620418300,12.052418212890625,-0.624686062335968,0.015042556449770927,0.5135086178779602
1761131582630418400,12.06241845703125,-0.747469961643219,0.04375322163105011,0.48663052916526794
1761131582640418300,12.072418212890625,-0.8543714284896851,0.015653422102332115,0.4542546570301056
1761131582650418400,12.08241845703125,-0.9435577392578125,-0.08269587904214859,0.41515928506851196
1761131582670350800,12.102350830078125,-1.178130030632019,-0.5035820603370667,0.3833943009376526
1761131582680317400,12.1123173828125,-1.3754394054412842,-0.7845800518989563,0.382172554731369
1761131582690284300,12.1222841796875,-1.6210073232650757,-1.0631345510482788,0.3271946907043457
1761131582700251100,12.132251220703125,-1.899561882019043,-1.3423000574111938,0.22334760427474976
1761131582710217700,12.1422177734375,-2.1805598735809326,-1.5316681861877441,0.1097266674041748
1761131582720184600,12.1521845703125,-2.467055559158325,-1.655673861503601,-0.0069485921412706375
1761131582730151200,12.162151123046876,-2.7773752212524414,-1.8096119165420532,-0.10346530377864838
1761131582740117800,12.17211767578125,-3.088305711746216,-1.970880389213562,-0.15538884699344635
1761131582750084400,12.18208447265625,-3.3418147563934326,-2.1388683319091797,-0.17921258509159088
1761131582760052000,12.192052001953124,-3.529961109161377,-2.246380567550659,-0.19509509205818176
1761131582770018600,12.2020185546875,-3.666184186935425,-2.2799782752990723,-0.22197316586971283
1761131582779985400,12.2119853515625,-3.741931438446045,-2.2451589107513428,-0.24640776216983795
1761131582789952000,12.221951904296875,-3.758424758911133,-2.204230785369873,-0.28672486543655396
1761131582799918600,12.231918701171875,-3.7162749767303467,-2.175520181655884,-0.353920042514801
1761131582809885400,12.241885498046875,-3.6454145908355713,-1.9372828006744385,-0.2891683280467987
1761131582819852000,12.25185205078125,-3.547065496444702,-1.7363080978393555,-0.14561499655246735
1761131582829818600,12.261818603515625,-3.4389421939849854,-1.571374535560608,-0.03810271993279457
1761131582839785500,12.271785400390625,-3.300886631011963,-1.3264175653457642,0.09628763794898987
1761131582849752000,12.281751953125,-3.0125582218170166,-0.780914843082428,0.3418554663658142
1761131582859718000,12.2917177734375,-2.7883708477020264,-0.506025493144989,0.4884631335735321
1761131582869685000,12.30168505859375,-2.5452463626861572,-0.45837801694869995,0.5703190565109253
1761131582879651600,12.311651611328125,-2.290515661239624,-0.6715700030326843,0.5605452060699463
1761131582889618400,12.321618408203125,-2.0431151390075684,-0.9391289353370667,0.5177846550941467
1761131582899585000,12.3315849609375,-1.823203682899475,-1.0625237226486206,0.5037347674369812
1761131582909551600,12.341551513671876,-1.6387224197387695,-1.0979539155960083,0.5141194462776184
1761131582919518200,12.351518310546876,-1.4933364391326904,-1.0197631120681763,0.5428301095962524
1761131582929485000,12.361485107421874,-1.3534482717514038,-0.8236754536628723,0.5635995268821716
1761131582939451600,12.37145166015625,-1.2001211643218994,-0.6379724144935608,0.5098434090614319
1761131582949418200,12.381418212890624,-1.052291750907898,-0.6318637132644653,0.30459266901016235
1761131582959419100,12.391419189453124,-0.9350056052207947,-0.8566621541976929,-0.09552405029535294
1761131582969419300,12.401419189453126,-0.8745299577713013,-1.1065059900283813,-0.6782894730567932
1761131582979419100,12.411419189453126,-0.8226063847541809,-1.2622766494750977,-1.249448537826538
1761131582989419300,12.421419189453125,-0.7835110425949097,-1.1932488679885864,-1.6678911447525024
1761131582999419100,12.431419189453125,-0.8030587434768677,-0.9727265238761902,-1.8474855422973633
1761131583009419300,12.441419189453125,-0.8488736152648926,-0.7051675915718079,-1.7747925519943237
1761131583019419100,12.451419189453125,-0.8384889364242554,-0.4516584873199463,-1.619022011756897
1761131583029419300,12.461419189453125,-0.7468591332435608,-0.02038762718439102,-1.399721384048462
1761131583039419100,12.471419189453124,-0.5782603025436401,0.5800929069519043,-1.112614631652832
1761131583049419300,12.481419189453124,-0.382783442735672,1.2001211643218994,-0.799851655960083
1761131583059418400,12.49141845703125,-0.22273674607276917,1.6662113666534424,-0.5017494559288025
1761131583069418200,12.501418212890625,-0.15370896458625793,1.7590628862380981,-0.24762949347496033
1761131583079418400,12.51141845703125,-0.2166280895471573,0.928896963596344,0.02848159149289131
1761131583089418200,12.521418212890625,-0.34429892897605896,0.11644618958234787,0.15309810638427734
1761131583099418400,12.53141845703125,-0.5257259011268616,-0.5933791995048523,0.25022566318511963
1761131583109418200,12.541418212890624,-0.7554112076759338,-0.9544005990028381,0.19830213487148285
1761131583119418400,12.55141845703125,-0.8940776586532593,-1.3783410787582397,0.06757696717977524
1761131583129418200,12.561418212890626,-0.9020189046859741,-1.474246859550476,-0.031383201479911804
1761131583139418400,12.57141845703125,-0.8494845032691956,-1.1633164882659912,-0.07597636431455612
1761131583149418200,12.581418212890625,-0.776180624961853,-0.6837872862815857,-0.07414376735687256
1761131583159419100,12.591419189453125,-0.7175375819206238,-0.17982345819473267,-0.052152618765830994
1761131583169418500,12.60141845703125,-0.6900486350059509,0.23984096944332123,-0.025274548679590225
1761131583179418600,12.611418701171875,-0.6662248969078064,0.4640285074710846,0.004046982154250145
1761131583189418500,12.62141845703125,-0.6222426295280457,0.48724138736724854,0.035811975598335266
1761131583199418600,12.631418701171874,-0.5526039600372314,0.36018142104148865,0.06146831437945366
1761131583209418500,12.64141845703125,-0.47013717889785767,0.1359938681125641,0.0742964819073677
1761131583219418600,12.651418701171876,-0.40110939741134644,-0.10285443812608719,0.09506590664386749
1761131583229418800,12.661418701171876,-0.3675118088722229,-0.30260735750198364,0.14332425594329834
1761131583239418600,12.671418701171875,-0.3717878460884094,-0.42905646562576294,0.2105194330215454
1761131583249418800,12.681418701171875,-0.3931681513786316,-0.4718170464038849,0.2856558561325073
