time,seconds_elapsed,z,y,x
1761132792754200600,0.08020068359375,-0.0981423943221569,-1.384453539726138,0.07288586105592548
1761132792774048500,0.100048583984375,-1.3886656044632195,-1.098432658316195,-0.15227980709793046
1761132792793896700,0.119896728515625,-2.097133607292175,-0.7764370849445462,-0.3972594886705279
1761132792813745700,0.13974560546875,-1.8353607396930456,-0.5429448476731776,-0.6110578683041036
1761132792833593600,0.159593505859375,-0.9493670092254877,-0.5781038393378257,-0.538873798841983
1761132792853441800,0.17944189453125,-0.20059096140563487,-0.5883601526752114,-0.4468823283649981
1761132792873289500,0.19928955078125,0.17194412811398505,-0.4696911031529307,-0.4048643741836771
1761132792893137700,0.2191376953125,0.5618506236732006,-0.3598269991159439,-0.23736820192188024
1761132792912985600,0.238985595703125,0.6035843175530433,-0.16931728674173355,-0.012761062699928879
1761132792932833800,0.258833740234375,0.0796902073085308,0.1044336034208536,0.1495146349672228
1761132792952681700,0.278681640625,-0.4881809918284416,0.3688008714273572,0.2981111321762204
1761132792972529700,0.29852978515625,-0.9700596686422824,0.6286065306067466,0.25245719611272216
1761132792992377900,0.3183779296875,-1.2254799523442983,0.7907888509020209,0.11938523496761917
1761132793012225500,0.3382255859375,-1.1372668313622474,0.7766556961312889,-0.05989705401472747
1761132793032073700,0.35807373046875,-0.6949433353453874,0.721632312567532,-0.1915888859130442
1761132793051921700,0.377921630859375,-0.16541794121563433,0.6911126711413264,-0.3715391372848302
1761132793071769600,0.39776953125,0.13981120627224444,0.7073828379407525,-0.5969214986629784
1761132793091617500,0.417617431640625,0.21781506792902947,0.7287118955649435,-0.6889961173787713
1761132793111465700,0.4374658203125,0.30528233897984025,0.7713425382845104,-0.6689237087521702
1761132793131313700,0.457313720703125,0.5111684841841458,0.7462671337388456,-0.6429832118097693
1761132793151161600,0.47716162109375,0.7224544426053762,0.6868817555733024,-0.6310371187545358
1761132793171009800,0.497009765625,0.7478378901869058,0.5941942656561732,-0.6246874574668705
1761132793190857700,0.516857666015625,0.6813853501141071,0.4677984212741256,-0.5850689291100949
1761132793210705700,0.53670556640625,0.305196998783946,0.32264760753959415,-0.5306568823777139
1761132793230553600,0.5565537109375,0.03780746034681797,0.23462533295452592,-0.5735924263279885
1761132793250401800,0.57640185546875,-0.5287286907941102,0.7234405310332774,-0.7162491582244634
1761132793270249700,0.596249755859375,-0.689267043274641,0.4172200344204902,-0.7251592445846646
1761132793290097700,0.61609765625,-0.3329261327087879,0.4493146700784564,-0.6343138754028826
1761132793309945600,0.635945556640625,0.635651772943139,-0.004882219083607197,-0.6581234247311949
1761132793329793800,0.655793701171875,1.6180091976225375,-0.674731152921915,-0.47389907623678446
1761132793349641500,0.675641357421875,2.6731536260932685,-1.1535665165171027,-0.6203631645269692
1761132793369489700,0.69548974609375,3.035011838775873,-1.5036419369474052,-0.517769343753904
1761132793389337900,0.715337890625,1.8634610450178384,-1.2849018631279467,-0.5245217406235635
1761132793409185500,0.735185546875,0.1761719749420881,-0.7863795100271701,-0.5811975675694644
1761132793429033700,0.75503369140625,-0.7593938879460096,-0.4110056899502873,-0.6809764770522714
1761132793448881700,0.774881591796875,-0.819948017629981,-0.3518608425423503,-1.0542341817580163
1761132793468729900,0.794729736328125,-0.45454994038343427,-0.5411158786803484,-1.4023198896758258
1761132793488577000,0.814576904296875,-0.15944354298114777,-0.6495820986181498,-1.612178591772914
1761132793508425000,0.834425048828125,0.0422808063685894,-0.866862329018116,-1.8718284758687018
1761132793528273200,0.854273193359375,0.34066461800634856,-1.1703314810961485,-2.0163566276602447
1761132793548122000,0.8741220703125,0.42503743017315865,-1.2915265419647097,-1.9590888261705637
1761132793567970000,0.893969970703125,0.15130173757970333,-1.3382847860082983,-1.845380613926053
1761132793587818200,0.913818359375,-0.37779987818002697,-1.2998527640223503,-1.701168834607303
1761132793607666000,0.933666015625,-0.7869225308626889,-1.2603612961113453,-1.4962534341312943
1761132793627514000,0.95351416015625,-0.9803314718097448,-1.2700097066834568,-1.3227787354491651
1761132793647362000,0.973362060546875,-1.071723807349801,-1.2279197467118501,-1.3850804394528269
1761132793667210000,0.9932099609375,-1.0146458293437957,-1.2513412465706466,-1.42274761454612
1761132793687058000,1.013057861328125,-0.839131441527605,-1.251445291467011,-1.5326570190295576
1761132793706906000,1.032906005859375,-0.4291816903710365,-1.3627274456083773,-1.5856404211983084
1761132793726754000,1.052754150390625,0.2294201655268669,-1.5180410491779446,-1.6959779879659413
1761132793746602000,1.07260205078125,0.9014689474970102,-1.6462595789425074,-1.7433917733088136
1761132793766450200,1.0924501953125,1.347545074045658,-1.7542269094474612,-1.6884831021659075
1761132793786298000,1.112298095703125,1.4680892697900534,-1.7370608167216182,-1.4906353019885719
1761132793806146000,1.13214599609375,1.256392977002263,-1.5255249751925468,-1.3911981916807592
1761132793825994000,1.151993896484375,1.0000807128965854,-1.4742742420352994,-1.4422833590127526
1761132793845842200,1.17184228515625,1.1229489676743745,-1.5518134087897837,-1.3923073219664395
1761132793865690000,1.191690185546875,1.412710496917367,-1.7830591823086142,-1.2617504123821854
1761132793885538000,1.2115380859375,1.5564619652479885,-2.008760619573295,-1.1456486560646444
1761132793905386000,1.231385986328125,1.2301321620643137,-2.088466462842375,-0.91921956211254
1761132793925234200,1.251234130859375,0.45639527598917484,-2.000188313800096,-0.6759145905528218
1761132793945081900,1.271081787109375,-0.35354163523614407,-1.8544496171750127,-0.22296823117481543
1761132793964930000,1.290929931640625,-0.8051981922656297,-1.6556946390248835,0.0514599919937551
1761132793984778200,1.3107783203125,-0.8362193534731864,-1.523073051995784,0.32725773168355227
1761132794004626000,1.3306259765625,-0.36124446469843385,-1.4550526780843733,0.440431910116598
1761132794024474000,1.35047412109375,0.2788473365187645,-1.478202083003521,0.3647751595752314
1761132794044322000,1.370322021484375,0.7728180176645517,-1.575104852528125,0.17271145922467113
1761132794064170200,1.390170166015625,1.3230834174841641,-1.5704595109403132,0.09864099149405955
1761132794084018000,1.410017822265625,1.6977362298101186,-1.4908829931393266,-0.015827245337516067
1761132794103866000,1.4298662109375,1.5861030702739953,-1.3649167723461986,-0.2315495057057589
1761132794123714000,1.449714111328125,1.0515122094482183,-1.1649889510244131,-0.4309033995971083
1761132794143562000,1.46956201171875,0.4958166012734174,-1.0358172121882439,-0.5939302809577435
1761132794163410000,1.489409912109375,0.07854162179529667,-0.9041396280109881,-0.7822592882920056
1761132794183258000,1.509258056640625,-0.23251637797653674,-0.7385583129271864,-0.9645260729778558
1761132794203106000,1.52910595703125,-0.4962497319936752,-0.6146404029659926,-1.0880256844617426
1761132794222954000,1.5489541015625,-0.7115957794606685,-0.5453913640424609,-1.1967501900095492
1761132794242802200,1.56880224609375,-0.5504910252690315,-0.5886879233248532,-1.1692769305419175
1761132794262650000,1.588650146484375,-0.26061434521377086,-0.5927301844529808,-1.1238515425372868
1761132794282498000,1.608498046875,0.08567045076191425,-0.7081169974341989,-0.9887411343671381
1761132794302346000,1.628345947265625,0.19190496612489222,-0.8157286463692783,-0.8752059406019747
1761132794322194200,1.648194091796875,0.09516308625042438,-0.8789047951199114,-0.8496830845497548
1761132794342041900,1.668041748046875,0.1334779115974903,-0.9296654066726565,-0.835521215141192
1761132794361890000,1.68789013671875,0.21476386366486547,-0.9566142038747668,-0.9614245267659425
1761132794381739300,1.7077392578125,0.2031733791142702,-0.923054756361246,-1.0793596359904856
1761132794401587000,1.7275869140625,0.05143208107352257,-0.8297761686831713,-1.211171294876188
1761132794421435100,1.74743505859375,-0.1337654963672161,-0.7357165136300027,-1.2687651134498417
1761132794441283000,1.767282958984375,-0.22357085497677326,-0.5459275167457759,-1.3869348351478576
1761132794461131000,1.787131103515625,-0.09361410324275493,-0.4083829402312636,-1.5669567635163664
1761132794480979700,1.806979736328125,0.0870575212061405,-0.3332091874338686,-1.7382094022348522
1761132794500828000,1.826827880859375,0.2997095072835684,-0.23685893722549078,-1.796940700405836
1761132794520675600,1.846675537109375,0.33720307937562466,-0.05019055657982826,-1.8152235222019255
1761132794540523800,1.866523681640625,0.40736674892604346,0.06702040308862924,-1.7968499533824622
1761132794560371700,1.886371826171875,0.4870376670122146,0.17920520515814423,-1.6896810797788202
1761132794580219600,1.9062197265625,0.3212070533424616,0.3833309165611863,-1.4677053850390016
1761132794600067600,1.926067626953125,0.16662848604917524,0.5095896905601024,-1.275083941207826
1761132794619915800,1.945915771484375,0.20877017620801924,0.5438537792116404,-1.0746427635364233
1761132794639763700,1.965763671875,0.3688379885673523,0.43148660631254315,-0.6855550370141863
1761132794659611600,1.985611572265625,0.575567014336586,0.1523329803235829,-0.2666789059497416
1761132794679459600,2.00545947265625,0.7853373074978589,-0.24425153169482944,0.30563922612611205
1761132794699307800,2.025307861328125,0.8720680809676646,-0.6046101534694432,0.8422601680073887
1761132794719155700,2.04515576171875,0.4591121337324381,-0.8374955108888447,1.3339583011113108
1761132794739003600,2.065003662109375,-0.07501169410347938,-0.9958648487672209,1.7699508405409752
1761132794758851800,2.084851806640625,-0.33584815763533116,-0.9313738180257379,2.125544732131809
1761132794778699500,2.104699462890625,-0.5709773484587669,-0.91968118827492,2.3825286118887363
1761132794798547700,2.124547607421875,-0.44675592550635335,-1.0467834273606538,2.609551799276471
1761132794818395600,2.144395751953125,-0.1883773765206337,-1.1196461267367004,2.6140304059952495
1761132794838243800,2.164243896484375,-0.10424480285048485,-0.8505281570717692,2.2079491668350992
1761132794858091500,2.184091552734375,-0.17189210566580296,-0.47786534951925275,1.6786381461083888
1761132794877939700,2.203939697265625,-0.2430319267719984,-0.20799773053079842,1.4604624281734226
1761132794897787600,2.22378759765625,-0.45294425875246525,0.1444642927750945,1.4054456204809247
1761132794917635600,2.243635498046875,-0.8259364443898201,0.6130147014603018,1.3588663862660526
1761132794937483800,2.26348388671875,-1.117039451369643,0.9565165887191891,1.3074628006346523
1761132794957331700,2.283331787109375,-1.091858248361945,1.2079337742596863,1.2498086301758884
1761132794977179600,2.3031796875,-1.0064239444434642,1.3140261046729982,0.9788542388640343
1761132794997027600,2.323027587890625,-0.8993120617240666,1.1941609772339463,0.7091277088467032
1761132795016875800,2.342875732421875,-0.48212651409506796,0.9586918869316577,0.5648498785544187
1761132795036723700,2.3627236328125,-0.10328618695139884,0.6012234336405993,0.43985980931706725
1761132795056571600,2.382571533203125,0.46910395091474055,0.32325185704305764,0.3942668461931869
1761132795076419600,2.402419677734375,0.6978361341774463,0.12435673976987599,0.33462698180992156
1761132795096267800,2.422267822265625,0.3346241687983274,0.11436696841418742,0.30142763631306585
1761132795116115500,2.442115478515625,-0.1160889699012041,0.17297025629132984,0.26521237706113604
1761132795135963600,2.461963623046875,-0.37242578392624853,0.3888036488838494,0.21433416701070962
1761132795155811800,2.481811767578125,-0.38797172810435293,0.586623684271425,0.18162636789046227
1761132795175659800,2.50165966796875,-0.547815668579936,0.7607704369962215,0.12114691087789833
1761132795195507700,2.5215078125,-0.6942232043772936,0.9670769995696842,-0.04320811381395906
1761132795215355600,2.541355712890625,-0.5841805289030074,1.0323331694647668,-0.01832264234982431
1761132795235203800,2.561203857421875,0.0306605112016201,0.9323682358905673,0.031162944298423825
1761132795255051500,2.581051513671875,0.598556844779849,0.833749163967371,0.034978666661679744
1761132795274899700,2.600899658203125,0.6316355230391025,0.9684989951968193,-0.005876527350582182
1761132795294747600,2.62074755859375,0.3512643379539251,1.1838660854518412,-0.15316424351595342
1761132795314595600,2.640595703125,0.22266075439453123,1.2633634005367755,-0.19600491225700825
1761132795334444800,2.66044482421875,0.5757867945671081,1.0569666754618285,-0.12588204964101313
1761132795354292700,2.680292724609375,1.1342325782328844,0.6597896043777466,-0.07695424300599843
1761132795374140700,2.700140625,1.5659996089220045,0.2075865193814039,0.1145966307179071
1761132795393988600,2.719988525390625,1.7506670250087975,-0.05720920317023992,0.27425785330403596
1761132795413836800,2.7398369140625,1.950699183487892,-0.3814151460677385,0.2996687003491446
1761132795433684500,2.7596845703125,1.7428507982999086,-0.7418184837669134,0.28969770675916223
1761132795453532700,2.77953271484375,0.615479922530055,-0.8709212490200996,0.18797803847212344
1761132795473380600,2.799380615234375,-0.829375771188736,-0.8581573367759585,0.05100640300735831
1761132795493228500,2.819228515625,-1.8031927465379236,-0.8123615080237389,-0.0068759867167100305
1761132795513076500,2.839076416015625,-2.1066765116631982,-0.6919149274349212,-0.12140947080422192
1761132795532924400,2.85892431640625,-1.5747510706543921,-0.7995815214276313,0.04100830221474171
1761132795552772600,2.878772705078125,-0.6113000064969062,-1.0295610744029282,0.2760768488921225
1761132795572620300,2.898620361328125,-0.18355916258394717,-1.1021104700461029,0.4235450361909345
1761132795592468500,2.918468505859375,-0.279411400142312,-1.0753376139327884,0.4356296244014054
1761132795612316400,2.93831640625,-0.523048307070136,-0.7629442739039659,0.5262045791439711
1761132795632164400,2.958164306640625,-0.48341129320859905,-0.371050403919816,0.5585554180527106
1761132795652012300,2.97801220703125,-0.7288970428735018,-0.01433861421495676,0.5786587698068469
1761132795671860500,2.997860595703125,-1.0250386285424231,0.2525380062639713,0.5176165643449873
1761132795691708400,3.01770849609375,-1.1882207735300063,0.49930970408618447,0.47464441471137103
1761132795711556400,3.037556396484375,-1.2014005730986594,0.6616282179817556,0.3559834754303097
1761132795731404500,3.057404541015625,-1.1841606844842434,0.7497732421636581,0.31905133661329743
1761132795751252500,3.07725244140625,-1.092690023010969,0.7776002835050225,0.22136852262690662
1761132795771100400,3.097100341796875,-0.8812813149929046,0.8302905479460955,0.134742451640591
1761132795790948400,3.1169482421875,-0.6314098975896835,0.8643047534897923,0.11922909455783665
1761132795810796500,3.136796630859375,-0.27683132052123544,0.9101929367005824,0.15019048840217292
1761132795830644500,3.15664453125,0.12977847255766392,0.956283656746149,0.20715280413925646
1761132795850492400,3.176492431640625,0.3345896820068359,0.9775620070964097,0.3122624801907688
1761132795870340400,3.19634033203125,0.4594377124249935,0.9858408828809857,0.35818427341021597
1761132795890188500,3.2161884765625,0.5712848069727421,0.88720193721354,0.44149069845452904
1761132795910036200,3.2360361328125,0.7188076105356216,0.8011722977504133,0.5784504608184099
1761132795929884400,3.255884521484375,0.4909171387940645,0.983982687793672,0.5127723391842097
1761132795949732600,3.275732666015625,-0.10947861185073852,1.2238508898377418,0.281027457036823
1761132795969580300,3.295580322265625,0.19218845924139022,0.7521496159061789,0.5243953377649188
1761132795989428500,3.315428466796875,0.8366109831392765,0.6693865770235657,0.48994734391383826
1761132796009276400,3.3352763671875,1.5101380209684372,0.25768530602455136,0.7239969958722591
1761132796029124600,3.35512451171875,1.9428221665024756,-0.15188041425049303,0.9279275500293821
1761132796048972300,3.37497216796875,2.3873873039662836,-0.6236565069839358,1.1726917804867028
1761132796068820500,3.394820556640625,2.7069296389669177,-1.2492410594210028,1.4462541623398661
1761132796088668400,3.41466845703125,2.041539730364084,-1.4371236381620167,1.6153547375909982
1761132796108516400,3.434516357421875,-0.12459434791803359,-1.071125256934762,1.425979728335142
1761132796128364300,3.4543642578125,-1.9365818108081816,-0.7743310525760054,1.3881702221617103
1761132796148212500,3.47421240234375,-2.633554606154561,-0.5477230218604207,1.465219559572637
1761132796168060400,3.494060302734375,-1.9091975447982548,-0.5132555195912718,1.692593606224656
1761132796187908400,3.513908447265625,-0.5740495955109596,-0.7389630943357944,1.7370494185447691
1761132796207756500,3.533756591796875,0.4389245012283325,-1.013134840258956,1.5975105994731187
1761132796227604500,3.5536044921875,0.5819102458834647,-1.0908154613107441,1.1359686082452536
1761132796247452400,3.573452392578125,0.15413549970090387,-0.9596011107310652,0.6122611431466415
1761132796267300400,3.59330029296875,-0.31043314587175846,-0.7005331181764602,0.08473678664099425
1761132796287148500,3.6131484375,-0.7652911292910576,-0.3811816295728087,-0.22686817948911336
1761132796306996200,3.632996337890625,-1.3271078506946563,-0.09747282449752091,-0.28356662012562156
1761132796326844400,3.652844482421875,-1.3773095131903885,0.025771277855336665,-0.29254681257996706
1761132796346693600,3.672693603515625,-1.1248176841557025,0.029408173052966592,-0.32502635590229184
1761132796366541300,3.692541259765625,-0.8487748836636543,0.06032616614699363,-0.5510255340045318
1761132796386389500,3.712389404296875,-0.7793903817921877,0.1621706298574805,-0.4635186981283128
1761132796406237400,3.732237548828125,-0.5376911649286746,0.14124328490197657,-0.4215003786208108
1761132796426085400,3.75208544921875,-0.17829495844542978,0.11215163045227527,-0.32282332943268116
1761132796445933300,3.771933349609375,0.1871697542965412,0.3757052439883351,-0.30918701826818284
1761132796465781500,3.791781494140625,0.301118205037713,0.8266960305854678,-0.47224268733188507
1761132796485629400,3.81162939453125,0.6017518414288758,0.5965098491221666,-0.7950570297405123
1761132796505477600,3.8314775390625,1.2782564337641,0.14400544309169053,-0.6014223902788013
1761132796525325600,3.85132568359375,2.788236049300432,-0.7068550146743655,-0.3744293788336217
1761132796545173800,3.871173828125,3.9337013846874234,-1.09472123657763,-0.1104141391351819
1761132796565021400,3.891021484375,3.737793028140068,-1.0559089831024409,0.0986325159266591
1761132796584869600,3.91086962890625,2.2703508240818975,-0.7789733254238963,0.20339509557355195
1761132796604717600,3.930717529296875,-0.03916822730600834,-0.2827627563968301,0.29305026859007777
1761132796624565500,3.9505654296875,-1.752812804865837,0.08468173198550939,0.20151088926214725
1761132796644413700,3.97041357421875,-2.377912788656354,0.0703138916760683,0.32466260062381624
1761132796664261600,3.99026171875,-1.98610075173676,-0.2829056719988584,0.545618779590167
1761132796684109600,4.010109619140625,-1.3074053713589906,-0.6817872089132666,0.7200390520267188
1761132796703956500,4.02995654296875,-1.043275126978755,-0.8158166169136762,0.7994265500616282
1761132796723804400,4.049804443359375,-0.7967179486900567,-1.021353802549839,0.917722017031163
1761132796743652600,4.069652587890625,-0.7687748797535896,-1.0940592655375598,0.9693239747788757
1761132796763500800,4.089500732421875,-0.7275333533048629,-0.9668006668463349,1.1315011074423789
1761132796783348500,4.109348388671875,-0.6280190861076116,-0.8699687706008553,1.2060478143826125
1761132796803196700,4.12919677734375,-0.5087275207728147,-0.7757979102581739,1.4435267832025884
1761132796823044600,4.149044677734375,-0.31827099989056584,-0.6761439423292875,1.7186289418436587
1761132796842892500,4.168892578125,-0.16395663649141787,-0.6070972941100597,1.8704469583824275
1761132796862740500,4.188740478515625,-0.10139467411637305,-0.5780085622698068,1.9555534916512667
1761132796882588700,4.208588623046875,0.06023731881976127,-0.6416209104806184,2.0196341880261897
1761132796902436600,4.2284365234375,0.4209218115478754,-0.729677964118123,2.0429421445079146
1761132796922284500,4.248284423828125,0.7383791569679975,-0.7583624990716576,1.8676405226595698
1761132796942132700,4.2681328125,0.6111416010648012,-0.4335594670638442,1.371404088538885
1761132796961980700,4.287980712890625,0.1859545332878828,-0.30700024881362914,0.8119507352657616
1761132796981828600,4.30782861328125,0.46656829495728014,-0.4874079616293311,0.5879346938047558
1761132797001676500,4.327676513671875,1.7700059317290782,-0.977384312441945,0.5628070841478183
1761132797021524700,4.347524658203125,2.7537644553780556,-1.539073608073592,0.6215815273407846
1761132797041372400,4.367372314453125,2.6047651495218274,-1.633753440851718,0.27280082289613783
1761132797061220600,4.387220703125,1.4658733473062515,-1.4342859305180609,-0.17408482993710786
1761132797081068500,4.407068603515625,0.682446841865778,-1.2145362412646412,-0.4721087222212925
1761132797100916700,4.426916748046875,0.04031798186302185,-0.9915899479269981,-0.7792569646708667
1761132797120764400,4.446764404296875,-0.5107365225076675,-0.7019616896748543,-1.0724738219995051
1761132797140612600,4.466612548828125,-0.5708680428653955,-0.4242101855687797,-1.2281868732154368
1761132797160460800,4.486460693359375,-0.36600773357748984,-0.271402135079354,-1.204317848784849
1761132797180308500,4.50630859375,-0.1996007813245058,-0.19944091458767652,-1.0079490351188927
1761132797200156700,4.52615673828125,0.03867079917788505,-0.2413254151150584,-0.7429157774843275
1761132797220004600,4.546004638671875,0.2526519880324602,-0.3104989045843482,-0.4771210339579731
1761132797239852500,4.5658525390625,0.17374796266555786,-0.30981632914766666,-0.3694605043798685
1761132797259700500,4.585700439453125,-0.09346095850765705,-0.19672332619205116,-0.4204620850816369
1761132797279548700,4.605548583984375,-0.43301323135793207,-0.007311492057144642,-0.48753947905451056
1761132797299396600,4.625396728515625,-0.7382908941626548,0.12810323282182215,-0.49848867002688346
1761132797319244500,4.64524462890625,-0.6431354066967964,0.10860533614754676,-0.42990569379664956
1761132797339092500,4.665092529296875,-0.7640490202754735,0.2014659906744957,-0.43845374191142616
1761132797358940700,4.684940673828125,-0.885950475847721,0.28918402161598206,-0.5559618213629349
1761132797378789600,4.70478955078125,-0.7838345017194748,0.3241466139256954,-0.6935797919072211
1761132797398637600,4.724637451171875,-0.5941179855495691,0.30982071306183934,-0.8401333120465279
1761132797418485800,4.74448583984375,-0.4897276367485523,0.5152763578943907,-0.5832264795811847
1761132797438333400,4.76433349609375,-0.4831529345333576,0.7971607240214943,0.09772778563927859
1761132797458181600,4.784181640625,-0.11920154896378517,0.9731526662215589,0.8334187629692256
1761132797478029600,4.804029541015625,0.26525661806166173,1.1720271790981291,1.4690695129990576
1761132797497877200,4.823877197265625,0.43709085606038567,1.5107324797302484,1.6989960206128656
1761132797517725200,4.84372509765625,0.323311916667223,1.7371033406890928,1.5410834865912795
1761132797537573000,4.863572998046875,0.14211188443005085,1.7404345309384166,1.2483908723324537
1761132797557421300,4.88342138671875,-0.12395897262394427,1.765249530982226,1.0308889620058237
1761132797577269000,4.90326904296875,-0.42175183263123034,1.8862778569817542,0.827035053281486
1761132797597117200,4.9231171875,-0.8011036164283752,1.9508863766230642,0.5198395741567016
1761132797616965400,4.94296533203125,-1.075478191447258,1.8376620023727417,0.21793642928637563
1761132797636813000,4.96281298828125,-1.1576871035784482,1.6497143955715,-0.06566409310884773
1761132797656661200,4.9826611328125,-1.113321307629347,1.4014949831590056,-0.24958485554680226
1761132797676509200,5.00250927734375,-0.6676619451880454,1.182776390518993,-0.18402473426908253
1761132797696357400,5.022357421875,0.046644262275099754,0.8819871251747011,-0.13149945113137362
1761132797716205000,5.042205078125,0.02909165444970131,0.7152589781433344,-0.10760536532476543
1761132797736053200,5.06205322265625,-0.3395534418940544,1.0957818515464663,-0.009682458972185849
1761132797755901200,5.081901123046875,-0.539335425004363,1.086662433284521,-0.6571390898689627
1761132797775749000,5.1017490234375,0.060851651325821876,0.7797799656316637,-0.27097813751362265
1761132797795597000,5.12159716796875,1.1261848808556794,0.00066314008384943,-0.08787395215556025
1761132797815445200,5.1414453125,2.6860066779255867,-0.8637696236997843,-0.30282880834788084
1761132797835293200,5.161293212890625,3.561440435934067,-1.5087459820881486,-0.317336349388957
1761132797855141000,5.18114111328125,3.6109056008487936,-1.8003198214501142,-0.10310074738189577
1761132797874989300,5.2009892578125,2.746950683709979,-1.9145736848786472,-0.20928981616795062
1761132797894837200,5.220837158203125,1.0740262390732764,-1.801275953131169,-0.5842262677408755
1761132797914685200,5.240685302734375,-0.5160241075217723,-1.489255684198439,-0.8656301568746566
1761132797934533000,5.260533203125,-1.6195307081013917,-1.1571736010983587,-1.2521477406479418
1761132797954381300,5.28038134765625,-1.8995225384801626,-1.1350754587978125,-1.3174867665208876
1761132797974229000,5.30022900390625,-1.3666338053971527,-1.1718461234427988,-0.8683467223569751
1761132797994077200,5.3200771484375,-0.4091559704303741,-1.2160862471856175,-0.4547559843495488
1761132798013925000,5.339925048828125,0.2435498131662607,-1.4554551214054225,-0.2115608298398554
1761132798033773000,5.35977294921875,0.12552490676641465,-1.3171825228773058,-0.049260582253336904
1761132798053621200,5.379621337890625,-0.2854769837915897,-1.0710144900366663,0.012828063521534204
1761132798073469200,5.39946923828125,-0.25383622938096523,-0.9677624976158141,0.3248967016406357
1761132798093317400,5.4193173828125,0.2168763257741928,-0.8770689579948783,0.6051520052611827
1761132798113165000,5.4391650390625,0.46918870658874506,-0.9594967735737562,0.6246545781105757
1761132798133013200,5.45901318359375,0.21950901236534118,-1.0558867712706326,0.429689932154119
1761132798152861200,5.478861083984375,-0.4921761989444494,-1.030017001476884,0.18612652885392308
1761132798172709000,5.498709228515625,-0.8407377076804637,-0.9058844258517026,-0.2862044212833047
1761132798192557000,5.51855712890625,-0.5786503673046827,-0.7716605181924998,-0.5335536267325282
1761132798212405200,5.5384052734375,-0.28385552006959913,-0.4300146340638399,-0.5501119628235698
1761132798232253200,5.558253173828125,-0.5218856930315494,-0.0321551336735487,0.038748394458740947
1761132798252101000,5.57810107421875,-0.609530658736825,0.40459582290798424,0.3340335094287991
1761132798271949300,5.59794921875,0.10456512084603309,0.39577304950505493,0.27680443251430986
1761132798291797200,5.61779736328125,1.319907710057497,0.10921090082526207,0.3384589246556163
1761132798311645200,5.637645263671875,1.7172446478784082,-0.022756752339750528,0.05343976763412356
1761132798331493000,5.6574931640625,1.7471762602835892,0.06835121330097317,-0.356503407651186
1761132798351341300,5.67734130859375,1.5199784469813107,0.29394568305984137,-0.6334650765538216
1761132798371189000,5.69718896484375,0.9699632225304842,0.5492065384164452,-0.890073985518515
1761132798391037200,5.717037109375,0.030342531293630598,0.663349050424993,-0.953646586240828
1761132798410885000,5.736885009765625,-0.6080483112245798,0.6343145329900085,-0.9732765848621725
1761132798430733300,5.7567333984375,-0.9216384598225354,0.5699928674660623,-0.673420070323348
1761132798450581000,5.7765810546875,-1.1506401076763868,0.5615395118974149,-0.3852212603524327
1761132798470429200,5.79642919921875,-1.4499141461521385,0.6264435073539615,-0.13798895928114652
1761132798490278000,5.81627783203125,-2.0389351008236405,0.7421690507702529,0.27157281547114254
1761132798510125600,5.83612548828125,-2.3943694179385897,0.7098465977057814,0.6955933236867189
1761132798529973800,5.855973876953125,-2.036665402325988,0.6635720455259084,0.9241254543326795
1761132798549822500,5.875822509765625,-1.4537170455664394,0.8510840373888612,0.8750902052678168
1761132798569669600,5.895669677734375,-0.8410422435849905,0.9680405839048325,0.9004682460218667
1761132798589518800,5.915518798828125,-0.6043979720234871,1.114864299287647,1.10316509366557
1761132798609366500,5.935366455078125,-0.4135609273910522,1.2217761293902993,1.2797399503201246
1761132798629214700,5.955214599609375,-0.10374386759102344,1.249739802723378,1.3583870783165097
1761132798649062700,5.975062744140625,0.5740887584775686,1.0446018455378712,1.3950715259827673
1761132798668910800,5.994910888671875,1.1437649612098932,1.0190566315233707,1.5000684623748064
1761132798688758500,6.014758544921875,0.9439256949543953,0.8095483502991497,1.0849456924945116
1761132798708606700,6.034606689453125,0.6846107419013977,-0.09553148117139935,0.6261804725036024
1761132798728454700,6.05445458984375,0.21720248898863792,-0.779248050712049,-0.009471592700481415
1761132798748302600,6.074302490234375,0.7988993843823671,-1.3304976392634211,-0.6783955206483602
1761132798768150500,6.094150634765625,1.6988380535721779,-1.4425050389394163,-1.3991361450731754
1761132798787998700,6.113998779296875,1.715848225083947,-1.3386071498304604,-1.4669460911042986
1761132798807847000,6.133846923828125,1.4746107805132864,-1.2265981427192687,-1.461728940977901
1761132798827694600,6.153694580078125,1.2742892836987971,-1.1584208246804772,-1.5357240053847432
1761132798847542800,6.173542724609375,1.012215387326479,-1.0150232843540608,-1.307823450640589
1761132798867390700,6.193390625,0.6556897678434849,-0.9123765643499792,-1.16242538414672
1761132798887238700,6.21323876953125,0.11668050605356693,-0.8767425025194883,-0.978310341245681
1761132798907086600,6.233086669921875,-0.309960267663002,-0.8034089707612991,-0.8091888693369924
1761132798926934800,6.252934814453125,-0.6821423059612512,-0.8783733185917139,-0.6311098917298018
1761132798946782500,6.272782470703125,-0.9371867420881986,-1.020977078191936,-0.6045891106814145
1761132798966630700,6.292630615234375,-0.7622031001478433,-1.139312511845678,-0.38269890226796266
1761132798986478600,6.312478515625,-0.43356443549990653,-1.0524927449181676,-0.29554537334144115
1761132799006326800,6.332326904296875,-0.4339654175162315,-0.7703859682120382,-0.13014336034730076
1761132799026174700,6.3521748046875,-0.5890086797118187,-0.4897540863640606,0.052845308872312306
1761132799046022700,6.372022705078125,-0.37707916269004343,-0.39865298885554074,0.34898543323650955
1761132799065870800,6.391870849609375,-0.08660568578541278,-0.36795477599203585,0.38558395618498326
1761132799085718500,6.411718505859375,0.12272446239292621,-0.31768165569528933,0.3117917208738625
1761132799105566700,6.431566650390625,0.18203122236430644,-0.08823226407393812,-0.07073942361176014
1761132799125414700,6.45141455078125,0.5011328278601169,0.1569439812503755,-0.5648633956231176
1761132799145262600,6.4712626953125,0.7576075890511274,0.3551946631401777,-0.8825904978953302
1761132799165110500,6.491110595703125,1.3523439987599848,-0.00662424044534564,-0.49679552930817006
1761132799184958700,6.510958740234375,1.166570667257905,-0.0564259438380599,-0.11574585555195807
1761132799204806700,6.530806640625,0.22428572524785995,0.07075579022467136,0.16501286754608152
1761132799224654600,6.550654541015625,-0.06899521029293537,0.25502470851317044,0.329638927731663
1761132799244502800,6.570502685546875,-0.3066086191475391,0.39793548823595043,0.17399711512103674
1761132799264350700,6.590350830078125,-0.5395300707936287,0.3562511864557862,0.014867898786067962
1761132799284198700,6.61019873046875,-0.5961614740759134,0.22843261579424143,-0.28674422724843024
1761132799304046600,6.630046630859375,-0.5279015923202037,-0.08983487696498632,-0.6815250508457422
1761132799323894800,6.649894775390625,-0.5444587593674659,-0.36091099496036766,-0.8935812629871069
1761132799343742700,6.66974267578125,-0.7430044786810874,-0.30706454622149465,-0.8577993171185254
1761132799363590700,6.689590576171875,-0.9739800569564103,-0.17694222866222262,-0.6593862842738628
1761132799383438600,6.7094384765625,-1.1354711801171302,0.07220160511881113,-0.1752078060850501
1761132799403286800,6.729286865234375,-0.9646376435935496,0.4738124208666384,0.37306305891647934
1761132799423134500,6.749134521484375,-0.5588970345646143,0.7369669520825147,0.7953644882544875
1761132799442982700,6.768982666015625,-0.1964244893759489,0.7806311756335198,1.0953725400932133
1761132799462830800,6.788830810546875,0.11289455777406691,0.6885970350585877,1.277944152944535
1761132799482678000,6.808677978515625,0.4089326830685138,0.49937882379963994,1.3047288456261157
1761132799502526000,6.82852587890625,0.5108516733199358,0.32727263699173925,1.198851034746319
1761132799522374000,6.848373779296875,0.3813420808315277,0.3045189533919096,0.906792918998748
1761132799542222000,6.86822216796875,0.4128554094702005,0.32642084246799347,0.5145454132713377
1761132799562070000,6.888070068359375,0.22136370032131672,0.4465995659008622,0.2814021355681121
1761132799581918000,6.90791796875,-0.2542857267141342,0.6568493131421506,0.26374738254249097
1761132799601766000,6.927765869140625,-0.4378782070457935,0.8536899821035564,0.38093028516024346
1761132799621614000,6.947614013671875,-0.4232663288474083,1.2100332307569681,0.45283685285523534
1761132799641461800,6.967461669921875,-0.5168710797399282,0.9887675839826464,0.24708368638083336
1761132799661310000,6.98731005859375,0.35621933001279826,0.34436990226507186,0.25217136490866543
1761132799681158000,7.007157958984375,1.3473790698289871,-0.3806353938668966,0.22106442511379717
1761132799701005800,7.027005859375,1.6231383772045374,-0.8447897595502436,0.11345365296155213
1761132799720854000,7.04685400390625,0.9857353766798973,-0.821826086461544,-0.18585501843616364
1761132799740702000,7.066701904296875,0.42532267685532565,-0.6251299405373633,-0.29095556133314965
1761132799760550100,7.086550048828125,0.13732523467540741,-0.45396541849374766,-0.42652781486138697
1761132799780397800,7.106397705078125,-0.1413864927649498,-0.2975008913233876,-0.7245134940270334
1761132799800246000,7.12624609375,-0.6248059692800044,-0.21443843110278246,-0.9627245034486055
1761132799820094000,7.146093994140625,-0.4668348369389772,-0.22509251158609986,-1.0659637094531207
1761132799839942000,7.16594189453125,0.16115326950848102,-0.32970658614039416,-0.9747470958061516
1761132799859789800,7.185789794921875,0.6299643749564886,-0.6823772837609052,-0.8765349972486496
1761132799879638000,7.205637939453125,0.8933920240253209,-0.8961968523129821,-0.6928420522172004
1761132799899486000,7.22548583984375,0.7638362543076276,-0.9999735992603004,-0.4834655076138675
1761132799919334000,7.245333984375,0.3140028210520744,-0.94501699732244,-0.30392464076057074
1761132799939182000,7.26518212890625,-0.1262368544280529,-0.803141405866295,-0.17797690547220407
1761132799959030000,7.285030029296875,-0.3611708149403333,-0.5847606668785215,-0.16959603061787784
1761132799978878000,7.3048779296875,-0.36117023041844365,-0.4132235121302306,-0.21034034813418984
1761132799998726000,7.324725830078125,-0.23282792814373968,-0.2597287945508957,-0.3723898358300328
1761132800018574000,7.344573974609375,-0.2285048042476177,-0.12348901702463626,-0.42778797099031507
1761132800038421800,7.364421875,0.021021160718798636,-0.07240911038964987,-0.3918022461779415
1761132800058270000,7.38427001953125,0.34041619620323177,-0.0477719511307776,-0.22726612929813564
1761132800078118000,7.404117919921875,0.6339402928501368,0.02915931285843253,-0.0763667619742453
1761132800097966000,7.423966064453125,0.7529074485361575,0.16492781961113215,0.037699250731989736
1761132800117813800,7.443813720703125,0.5532306793659925,0.2852380604691803,0.16298048493564127
1761132800137662000,7.463661865234375,0.33881928240060805,0.22146248452067374,0.2680721869390458
1761132800157511000,7.483510986328125,0.20411796648800373,0.05481558603197336,0.4478390445679426
1761132800177358800,7.50335888671875,-0.11688976489007473,0.03411605848297477,0.5451448419354856
1761132800197207000,7.52320703125,-0.6080220077395438,0.1335981769762933,0.5178806951738893
1761132800217054700,7.5430546875,-1.0412082575768231,0.2969856352776289,0.2991404752239585
1761132800236903000,7.56290283203125,-0.875562352824211,0.44693435081318017,-0.011823124262690544
1761132800256750800,7.582750732421875,-0.49355450156033037,0.35132863536179065,-0.3764874804072082
1761132800276599000,7.60259912109375,-0.38020693932175637,0.1981305626414716,-0.8804038015060126
1761132800296447000,7.622447021484375,-0.5205103130251169,0.017699176689237355,-1.3119614272281526
1761132800316295000,7.642294921875,-0.2796785266458988,-0.09784808755069971,-1.5063476887747644
1761132800336143000,7.66214306640625,-0.15698212130367756,-0.3116366764426231,-1.399281544893235
1761132800355990800,7.68199072265625,-0.12004618309438228,-0.38927550417929885,-1.0180490619160234
1761132800375839000,7.7018388671875,-0.264424258890748,-0.13798501375839115,-0.599092266830802
1761132800395687000,7.72168701171875,-0.42200843774080277,0.09044716364443302,-0.039561172146350146
1761132800415534800,7.741534912109375,-0.5771446389168501,0.3081305680178106,0.3804056767642498
1761132800435382800,7.7613828125,-0.6569646100848913,0.5116682503998279,0.6238670809946953
1761132800455231000,7.78123095703125,-0.6850579011470079,0.6361439403742551,0.785155375059694
1761132800475079000,7.801078857421875,-0.6428244410514831,0.680593761344999,0.8009718067422509
1761132800494927400,7.82092724609375,-0.5096189166545868,0.6893551599495112,0.7945375359110534
1761132800514775300,7.840775390625,-0.3607505437016487,0.6504172342680394,0.8991757219932973
1761132800534623500,7.86062353515625,-0.15091829122006892,0.49463221379444,1.0165816197119653
1761132800554471200,7.88047119140625,0.1401923145443201,0.4281377342760563,1.1280392034854738
1761132800574319400,7.9003193359375,0.5191390246719122,0.5215564610771835,1.2293351664677261
1761132800594167300,7.920167236328125,0.5872387474298477,0.6239668881073593,1.2796896814376115
1761132800614015200,7.94001513671875,0.43149464348852634,0.7125808449752629,1.3146576805748045
1761132800633863200,7.95986328125,0.40177053635418414,0.9140665632635354,1.3381718271531164
1761132800653711400,7.97971142578125,0.3900608093380928,1.183707241628319,1.4484443658605217
1761132800673559300,7.999559326171875,0.3035042233914137,1.2092746674746275,1.2299414617978035
1761132800693407200,8.0194072265625,0.7749778260469437,0.9145444099083543,1.170608909798041
1761132800713255400,8.03925537109375,1.201103051456809,0.4712989767409861,1.0555480408355593
1761132800733103400,8.059103271484375,1.1407973435759544,0.20525208508446813,0.9261636090967804
1761132800752951300,8.078951416015625,0.5824018287926912,0.2200356665879488,0.7661665969513356
1761132800772799200,8.09879931640625,0.05872165355980396,0.26363047816455365,0.49599290768839416
1761132800792647400,8.1186474609375,-0.0389648136883974,0.1797423807747662,0.31287958917580544
1761132800812495000,8.1384951171875,-0.11812485964298247,0.14748583255335687,0.08357610883116721
1761132800832343300,8.15834326171875,-0.173214294180274,0.07298150345012545,-0.1564673767145723
1761132800852191200,8.178191162109375,-0.061976855963468545,-0.016383271785080433,-0.32719635688513515
1761132800872039400,8.198039306640625,-0.2717734526097774,-0.20323095452040432,-0.6159967129457742
1761132800891887000,8.21788720703125,-0.16994857038259506,-0.5613856365099549,-0.688357965605706
1761132800911735300,8.2377353515625,0.40580256834924217,-0.8421240474723279,-0.5547217216413468
1761132800931583500,8.25758349609375,0.8227256656497717,-0.9586256898276507,-0.23080153688266872
1761132800951431200,8.27743115234375,0.6078934129238128,-0.8954672228641808,0.10040171755626798
1761132800971279400,8.297279296875,-0.1336912620872259,-0.7721499091446399,0.23504735775887964
1761132800991127300,8.317127197265625,-0.8571148419857024,-0.5829596088059246,0.2360224864013493
1761132801010975500,8.3369755859375,-1.0161439589470624,-0.533225709952414,0.1878456077314913
1761132801030823200,8.3568232421875,-0.8953285450458526,-0.5290244588702917,0.12486658898815511
1761132801050671400,8.37667138671875,-0.8361024490952491,-0.42001419518366456,0.13832155223637818
1761132801070519300,8.396519287109374,-0.8391834639757871,-0.4093247511260211,0.13398001590073108
1761132801090367200,8.4163671875,-0.5454401716202497,-0.4355385120518505,0.0076629358433187005
1761132801110215200,8.436215087890625,0.0012713351100683212,-0.5975779167450964,-0.130701432621479
1761132801130063400,8.4560634765625,0.46358372618854043,-0.8163057156048714,-0.2579794666655362
1761132801149911300,8.475911376953125,0.774796039739251,-1.0224965428441761,-0.5269806780830025
1761132801169759200,8.49575927734375,0.6983300551742315,-1.0749689267508684,-0.9457000111505388
1761132801189607400,8.515607421875,0.239850958648324,-1.0090452328577637,-1.3057061662256717
1761132801209455400,8.535455322265625,-0.5690080942124128,-0.6779002844773232,-1.4153475674226879
1761132801229303300,8.55530322265625,-0.7798153292059898,-0.32108298857137557,-1.3271746323205529
1761132801249151200,8.575151123046876,-0.7686310873687267,-0.16100845421031115,-1.0409744488209485
1761132801268999400,8.59499951171875,-0.6843681653171777,0.018462708407640457,-0.811470550533384
1761132801288847000,8.61484716796875,-0.4025865289121866,0.09907646030187606,-0.655180357016623
1761132801308695300,8.6346953125,0.09808277308940887,0.1334739660747349,-0.5223195544041693
1761132801328543200,8.654543212890625,0.6389210038721561,0.13217793491482735,-0.2428071781054139
1761132801348391200,8.67439111328125,0.990334979429841,0.12199614811837672,0.2321994209818542
1761132801368239400,8.6942392578125,1.1355161883026361,0.13740867517516017,0.8483107732832431
1761132801388087300,8.71408740234375,1.0873574298113584,0.21217004777938125,1.2960912195317447
1761132801407935500,8.733935546875,1.1556517983585595,0.2697241188645363,1.7142464889757334
1761132801427783200,8.753783203125,1.2130647074073553,0.12481821980178355,1.83649003598392
1761132801447631400,8.77363134765625,1.1831512151807546,-0.0044505496680736535,1.7401628743901847
1761132801467479300,8.793479248046875,1.0477145707309246,-0.2423953824341297,1.9545073435992002
1761132801487327000,8.813326904296876,1.0272872842520475,-0.41722134959474205,2.0825660066269336
1761132801507174700,8.833174560546874,1.0175357055664063,-0.6980687738895416,2.1012680767484007
1761132801527022800,8.85302294921875,0.8540022629231214,-0.8299713989943266,1.7610051714107393
1761132801546871000,8.87287109375,0.6765420017361641,-1.0310694331392645,1.266174950826168
1761132801566718700,8.89271875,-0.011422726768255233,-1.2305547713905571,0.7094193122044206
1761132801586567000,8.91256689453125,-0.7458592835903167,-1.457783564352989,0.28182036098018287
1761132801606414800,8.932414794921876,-1.3527338748604059,-1.577675725929439,0.10968260999023914
1761132801626262800,8.9522626953125,-1.7224106523394584,-1.7294453732818365,0.1711870261363685
1761132801646110700,8.97211083984375,-1.8509125290900468,-1.6587565108135343,0.3692157358385622
1761132801665959000,8.991958984375,-1.688901181447506,-1.3744754588082433,0.48275560577884313
1761132801685806800,9.011806884765624,-1.1061176598608493,-1.1447945965185762,0.6590599749289453
1761132801705654800,9.03165478515625,-0.6015180326730013,-0.8818345649614929,0.7795626696191728
1761132801725502700,9.051502685546875,-0.24505554155409334,-0.7144494153261184,0.7456228444859385
1761132801745351000,9.071350830078124,0.18120237032473085,-0.5608645352452993,0.5720978769212961
1761132801765198800,9.09119873046875,0.3288724734038114,-0.46583384320288895,0.3868193431988358
1761132801785046800,9.111046875,0.43695992315709586,-0.34475890158265826,0.2257436689712107
1761132801804895000,9.13089501953125,0.3189028680533171,-0.3085530312135815,-0.10123261542245746
1761132801824743000,9.150742919921875,-0.13014847491383552,-0.1947381437242031,-0.30249738443642854
1761132801844590800,9.1705908203125,-0.62313599024117,0.019772329701483248,-0.42987741755023595
1761132801864438800,9.190438720703124,-0.8064408858031034,0.1902919779703021,-0.4178377279274165
1761132801884287000,9.210286865234375,-0.5933148524731398,0.24151772281676528,-0.3252503373838961
1761132801904134700,9.230134765625,-0.17302023291289806,0.14782880077213048,-0.27544001229330894
1761132801923982800,9.24998291015625,0.14037760798335075,0.08424977030903101,-0.09701090607419609
1761132801943831800,9.269831787109375,0.26624972075223924,0.17074030528217554,-0.011102993294596672
1761132801963679700,9.2896796875,0.49068742169141766,0.13257862467020748,0.09962634926959872
1761132801983528000,9.30952783203125,0.755803169977665,0.09045710051655768,0.11208185315169393
1761132802003375900,9.3293759765625,0.8697077815771103,0.07131283958554267,0.0005130640886723995
1761132802023223800,9.349223876953126,0.581387683314085,0.15752835700958967,-0.22446802301220595
1761132802043071700,9.36907177734375,0.32400048345327376,0.2755786901116371,-0.538950371209532
1761132802062920000,9.388919921875,0.33116905990839,0.12030395724773406,-0.500787667684257
1761132802082767600,9.408767578125,0.4786205518007278,0.0033227146819233893,-0.50227410684973
1761132802102615800,9.42861572265625,0.7393506323486566,-0.30367782639265056,-0.28591208727322515
1761132802122464000,9.448464111328125,0.6363116981565952,-0.34133477235287424,-0.09009491614066063
1761132802142312000,9.46831201171875,0.4340402363181114,-0.15031155749857425,0.15407982399091125
1761132802162159900,9.488159912109374,0.34953532220423217,-0.08826572795212269,0.30836678792648015
1761132802182007800,9.5080078125,0.2412579028367996,-0.04952361710369586,0.34489315895419564
1761132802201856000,9.52785595703125,0.20545067639648912,-0.16608634199649094,0.40800179542656984
1761132802221703700,9.54770361328125,0.4123182338535785,-0.39701808113008735,0.46614458965249356
1761132802241552000,9.5675517578125,0.3724146780103445,-0.5627756295636296,0.5660715658364818
1761132802261399800,9.58739990234375,-0.010427870512008667,-0.6004679390981793,0.5589362340638414
1761132802281247700,9.607247802734374,-0.5897545296430587,-0.5325497103869915,0.44865704641994086
1761132802301095700,9.627095703125,-0.9929933849841356,-0.5049512171044945,0.3040454175960272
1761132802320943900,9.64694384765625,-0.9611901334881782,-0.6240218331649899,0.3041976855482906
1761132802340792000,9.6667919921875,-0.676187781471014,-0.7757961566925048,0.2744654316401109
1761132802360639700,9.6866396484375,-0.3232750917881727,-0.9029439884856343,0.45282424910198893
1761132802380488000,9.706488037109375,-0.16187515404224395,-0.7618222841367125,0.6043679056787863
1761132802400336000,9.7263359375,-0.2763590268343687,-0.5825748472720385,0.6399993736933917
1761132802420183800,9.746183837890625,-0.2510737789303064,-0.5555152831718325,0.7663665034376085
1761132802440031700,9.76603173828125,0.03516074523031711,-0.42589843091666696,0.7445959856562316
