time,seconds_elapsed,z,y,x
1761131588875095600,0.151095458984375,7.080033302307129,-2.949937343597412,-0.59943687915802
1761131588905095200,0.18109521484375,7.147618293762207,-3.06337833404541,-0.601253867149353
1761131588915095600,0.191095458984375,7.1683244705200195,-3.0992298126220703,-0.596697211265564
1761131588925095400,0.201095458984375,7.137298583984375,-3.062662124633789,-0.5540796518325806
1761131588935095800,0.211095703125,7.108121871948242,-3.036755084991455,-0.4864264726638794
1761131588945096200,0.22109619140625,7.085923194885254,-3.0239109992980957,-0.4109383821487427
1761131588955096300,0.231096435546875,7.073383331298828,-3.0254831314086914,-0.3375821113586426
1761131588965096400,0.241096435546875,7.072214126586914,-3.0413622856140137,-0.27729129791259766
1761131588975096300,0.251096435546875,7.082210540771484,-3.06931734085083,-0.23805439472198486
1761131588985096400,0.261096435546875,7.102362632751465,-3.1064743995666504,-0.22506844997406006
1761131588995096600,0.2710966796875,7.1301069259643555,-3.149256706237793,-0.23565459251403809
1761131589005096400,0.281096435546875,7.162421226501465,-3.193769931793213,-0.2647744417190552
1761131589015096300,0.291096435546875,7.196963310241699,-3.2377452850341797,-0.3056989908218384
1761131589025096400,0.301096435546875,7.231508255004883,-3.2797579765319824,-0.35023415088653564
1761131589035096300,0.311096435546875,7.264120101928711,-3.3187379837036133,-0.3916640281677246
1761131589045096400,0.321096435546875,7.294098854064941,-3.3547091484069824,-0.42687153816223145
1761131589055095000,0.331094970703125,7.321747779846191,-3.3883776664733887,-0.4558424949645996
1761131589065094700,0.3410947265625,7.34718132019043,-3.419450283050537,-0.4806828498840332
1761131589075094500,0.351094482421875,7.369482040405273,-3.445875644683838,-0.504014253616333
1761131589085094700,0.3610947265625,7.38669490814209,-3.463890552520752,-0.5289162397384644
1761131589095094500,0.371094482421875,7.395890235900879,-3.4676012992858887,-0.5605589151382446
1761131589105094700,0.3810947265625,3.149947166442871,-0.4145660400390625,-3.070430278778076
1761131589115094800,0.3910947265625,4.238709449768066,-0.8919501304626465,-2.898270606994629
1761131589125094700,0.4010947265625,4.993326187133789,-1.2683072090148926,-2.8277060985565186
1761131589135094800,0.4110947265625,5.269510269165039,-1.5000970363616943,-2.8428101539611816
1761131589145094400,0.421094482421875,4.9788665771484375,-1.5626766681671143,-2.843714714050293
1761131589155094500,0.431094482421875,4.097084999084473,-1.3974933624267578,-2.8351168632507324
1761131589165094400,0.441094482421875,3.101151466369629,-1.1842355728149414,-2.8005993366241455
1761131589175094500,0.451094482421875,2.1176767349243164,-1.09808349609375,-2.794808864593506
1761131589185094400,0.461094482421875,1.4027442932128906,-1.079667091369629,-2.7771501541137695
1761131589195093800,0.47109375,1.024775505065918,-1.246699333190918,-2.794578790664673
1761131589205094000,0.481093994140625,0.8319249153137207,-1.629957914352417,-2.7341182231903076
1761131589215094000,0.491093994140625,0.8133955001831055,-2.0713343620300293,-2.5587949752807617
1761131589225094000,0.501093994140625,0.7740316390991211,-2.321336030960083,-2.4041802883148193
1761131589235093800,0.51109375,0.6107549667358398,-2.365385055541992,-2.2406370639801025
1761131589245094000,0.521093994140625,0.27535057067871094,-2.364952325820923,-2.115396738052368
1761131589255093000,0.531093017578125,-0.15041875839233398,-2.380869150161743,-2.0804927349090576
1761131589265093000,0.541093017578125,-0.6864666938781738,-2.397381544113159,-2.061005115509033
1761131589275093000,0.551093017578125,-1.2121505737304688,-2.47225284576416,-2.275419235229492
1761131589285093000,0.561093017578125,-1.6481332778930664,-2.447174310684204,-2.488354444503784
1761131589295093000,0.571093017578125,-2.038059711456299,-2.485341787338257,-2.5974905490875244
1761131589305093000,0.581093017578125,-2.3483242988586426,-2.545372247695923,-2.6689133644104004
1761131589315093200,0.59109326171875,-2.563443660736084,-2.613278388977051,-2.6457343101501465
1761131589325093000,0.601093017578125,-2.727421283721924,-2.706862449645996,-2.458765745162964
1761131589335093200,0.61109326171875,-2.9134135246276855,-2.7101798057556152,-2.3823397159576416
1761131589345093000,0.621093017578125,-2.9062414169311523,-2.636836290359497,-2.436784505844116
1761131589355094000,0.631093994140625,-2.8244476318359375,-2.6323649883270264,-2.474119186401367
1761131589365094100,0.64109423828125,-2.6897459030151367,-2.705472230911255,-2.4834847450256348
1761131589375094300,0.65109423828125,-2.4308853149414062,-2.7498977184295654,-2.4465878009796143
1761131589385094400,0.661094482421875,-2.11683988571167,-2.8587300777435303,-2.3269405364990234
1761131589395094300,0.67109423828125,-1.8258028030395508,-2.9191808700561523,-2.203371286392212
1761131589405094400,0.681094482421875,-1.5621442794799805,-3.0102200508117676,-2.1397862434387207
1761131589415094300,0.69109423828125,-1.252976894378662,-2.9778404235839844,-2.219754934310913
1761131589425094400,0.701094482421875,-0.8087105751037598,-2.8762195110321045,-2.306710958480835
1761131589435094300,0.71109423828125,-0.36646366119384766,-2.8362619876861572,-2.2425811290740967
1761131589445094700,0.7210947265625,0.14144134521484375,-2.7239768505096436,-2.163540840148926
1761131589455093800,0.73109375,0.8231854438781738,-2.532400131225586,-2.0463857650756836
1761131589465094000,0.741093994140625,0.8037853240966797,-2.5023584365844727,-2.0614778995513916
1761131589475093800,0.75109375,1.5719575881958008,-2.1338069438934326,-1.8437435626983643
1761131589485094000,0.761093994140625,1.620898723602295,-1.893721103668213,-1.9207829236984253
1761131589495094500,0.771094482421875,1.616276741027832,-1.6507139205932617,-2.186638832092285
1761131589505094400,0.781094482421875,1.8414340019226074,-1.4050145149230957,-2.538558006286621
1761131589515094300,0.79109423828125,2.1725964546203613,-1.3090415000915527,-2.7802321910858154
1761131589525094400,0.801094482421875,2.137190341949463,-1.2576375007629395,-2.789196014404297
1761131589535094300,0.81109423828125,2.7322726249694824,-1.254371166229248,-3.044213056564331
1761131589545094400,0.821094482421875,2.927298069000244,-1.0375394821166992,-3.13335919380188
1761131589555095300,0.83109521484375,3.1003613471984863,-0.7450804710388184,-3.0701730251312256
1761131589565095200,0.84109521484375,3.359567165374756,-0.4730687141418457,-2.825538158416748
1761131589575095000,0.851094970703125,3.6022605895996094,-0.22321367263793945,-2.708784580230713
1761131589585095200,0.86109521484375,3.8560304641723633,0.032989501953125,-2.671433925628662
1761131589595094300,0.87109423828125,4.111819267272949,0.27513790130615234,-2.712561845779419
1761131589605093400,0.88109326171875,4.4187116622924805,0.4717874526977539,-2.740142345428467
1761131589615092500,0.891092529296875,4.873781204223633,0.6134829521179199,-2.7710161209106445
1761131589625091600,0.901091552734375,5.477285385131836,0.5812931060791016,-2.6207869052886963
1761131589635090700,0.911090576171875,6.033231735229492,0.5076351165771484,-2.5069844722747803
1761131589645089800,0.92108984375,6.531757354736328,0.4934577941894531,-2.4264166355133057
1761131589655089200,0.931089111328125,6.894800186157227,0.47018957138061523,-2.352809429168701
1761131589665088300,0.941088134765625,6.936552047729492,0.4220890998840332,-2.270538568496704
1761131589675087400,0.95108740234375,6.757601737976074,0.4744391441345215,-2.1389172077178955
1761131589685086500,0.96108642578125,6.261082649230957,0.5085716247558594,-1.972769021987915
1761131589695085600,0.97108544921875,5.861677169799805,0.5215725898742676,-1.8636767864227295
1761131589705085400,0.98108544921875,5.667263984680176,0.35384082794189453,-1.7388668060302734
1761131589715085600,0.99108544921875,5.721592903137207,-0.07505655288696289,-1.6181200742721558
1761131589725085400,1.00108544921875,5.834291458129883,-0.5702700614929199,-1.3276163339614868
1761131589735085600,1.01108544921875,5.665879249572754,-1.155184268951416,-0.9925196170806885
1761131589745085400,1.02108544921875,5.205847263336182,-1.6302251815795898,-0.7601747512817383
1761131589755086300,1.03108642578125,4.452646255493164,-1.9290344715118408,-0.686439037322998
1761131589765086200,1.041086181640625,3.495828151702881,-2.1344826221466064,-0.6721410751342773
1761131589775086300,1.05108642578125,2.5051393508911133,-2.2091214656829834,-0.6679353713989258
1761131589785086500,1.06108642578125,1.5847721099853516,-2.2305891513824463,-0.7651543617248535
1761131589795086300,1.07108642578125,0.7484040260314941,-2.3231961727142334,-0.9665912389755249
1761131589805086200,1.081086181640625,0.20262861251831055,-2.51828932762146,-1.1383938789367676
1761131589815086300,1.09108642578125,-0.15645122528076172,-2.774507999420166,-1.3286163806915283
1761131589825086500,1.10108642578125,-0.3667759895324707,-3.0310590267181396,-1.5514819622039795
1761131589835086300,1.11108642578125,-0.5747942924499512,-3.3122973442077637,-1.6754318475723267
1761131589845086500,1.12108642578125,-0.8792209625244141,-3.575098991394043,-1.8149731159210205
1761131589855085600,1.13108544921875,-1.2818927764892578,-3.7493607997894287,-1.9612042903900146
1761131589865085400,1.14108544921875,-1.6533761024475098,-3.806945562362671,-2.138428211212158
1761131589875085600,1.15108544921875,-1.9158244132995605,-3.908435106277466,-2.4224131107330322
1761131589885085400,1.16108544921875,-2.0436487197875977,-3.799715042114258,-2.4797840118408203
1761131589895086300,1.17108642578125,-2.162431240081787,-3.7646284103393555,-2.3984739780426025
1761131589905087200,1.181087158203125,-2.1844539642333984,-3.739816665649414,-2.345189094543457
1761131589915088100,1.191088134765625,-2.1730265617370605,-3.6192896366119385,-2.3466649055480957
1761131589928089900,1.20408984375,-2.130920886993408,-3.3954873085021973,-2.309398889541626
1761131589938090800,1.2140908203125,-2.220494270324707,-3.33156418800354,-2.1539297103881836
1761131589948091600,1.224091552734375,-2.4138598442077637,-3.28879714012146,-2.1089797019958496
1761131589958092500,1.234092529296875,-2.57784366607666,-3.244650363922119,-2.215303659439087
1761131589968093400,1.244093505859375,-2.5542006492614746,-3.0671730041503906,-2.3838038444519043
1761131589978094000,1.254093994140625,-2.1449670791625977,-2.9200966358184814,-2.6273674964904785
1761131589988095000,1.264094970703125,-1.5855870246887207,-2.8009157180786133,-2.705233573913574
1761131589998096000,1.274095947265625,-0.9426946640014648,-2.683438301086426,-2.6299469470977783
1761131590008096000,1.284095947265625,-0.37065792083740234,-2.505265235900879,-2.6080403327941895
1761131590018095900,1.294095947265625,0.08855724334716797,-2.265324115753174,-2.6820411682128906
1761131590028096000,1.304095947265625,0.3464541435241699,-2.0552453994750977,-2.759533166885376
1761131590038096100,1.31409619140625,0.43474864959716797,-1.8595027923583984,-2.910804510116577
1761131590048096000,1.324095947265625,0.40732908248901367,-1.6468520164489746,-2.9870376586914062
1761131590058095000,1.33409521484375,0.3334822654724121,-1.520219326019287,-3.2096590995788574
1761131590068095200,1.34409521484375,0.3563828468322754,-1.526033878326416,-3.2430219650268555
1761131590078095000,1.35409521484375,0.5863432884216309,-1.1812963485717773,-3.869839668273926
1761131590088095200,1.36409521484375,0.6606760025024414,-1.089796543121338,-4.124953269958496
1761131590098095000,1.37409521484375,0.7210755348205566,-0.8745031356811523,-4.299070835113525
1761131590108095200,1.38409521484375,0.9552807807922363,-0.4343714714050293,-4.289288520812988
1761131590118095000,1.39409521484375,1.207289218902588,-0.17886829376220703,-3.9218177795410156
1761131590128095000,1.404094970703125,1.636559009552002,-0.033525943756103516,-3.4384310245513916
1761131590138095000,1.41409521484375,2.1724624633789062,0.10545015335083008,-3.072096824645996
1761131590148095200,1.42409521484375,2.744028091430664,0.18343400955200195,-2.9710500240325928
1761131590158096000,1.434095947265625,3.13358736038208,0.1453566551208496,-3.2079391479492188
1761131590168096000,1.444095947265625,3.4445323944091797,0.11876678466796875,-3.5705149173736572
1761131590178095900,1.454095947265625,3.661437511444092,0.19021081924438477,-3.829772472381592
1761131590188096000,1.464095947265625,3.933859348297119,0.4115147590637207,-3.877758026123047
1761131590198096100,1.47409619140625,4.270147323608398,0.6036968231201172,-3.9231369495391846
1761131590208096000,1.484095947265625,4.6116461753845215,0.6074113845825195,-3.9495127201080322
1761131590218095000,1.49409521484375,4.905588626861572,0.47080087661743164,-4.024333953857422
1761131590228095200,1.50409521484375,5.171323299407959,0.13220787048339844,-4.093286037445068
1761131590238095000,1.51409521484375,5.355440139770508,-0.23314952850341797,-4.198559284210205
1761131590248095200,1.52409521484375,5.34191370010376,-0.4990048408508301,-4.412201404571533
1761131590258095000,1.53409521484375,5.043634414672852,-0.6297297477722168,-4.757961750030518
1761131590268095200,1.54409521484375,4.566498279571533,-0.5620121955871582,-4.992098331451416
1761131590278095400,1.554095458984375,3.966442108154297,-0.3906130790710449,-4.946524620056152
1761131590288095200,1.56409521484375,3.348867416381836,-0.21934175491333008,-4.630485534667969
1761131590298095000,1.57409521484375,2.8429441452026367,0.03564262390136719,-4.349445343017578
1761131590308095200,1.58409521484375,2.7804760932922363,0.3858780860900879,-4.353999137878418
1761131590318095400,1.594095458984375,3.3466148376464844,0.5179176330566406,-4.482909679412842
1761131590328095200,1.60409521484375,4.396037578582764,0.31643104553222656,-4.543115139007568
1761131590338095000,1.61409521484375,5.357480049133301,-0.17386722564697266,-4.417322158813477
1761131590348095200,1.62409521484375,5.939793109893799,-0.8802275657653809,-4.197763442993164
1761131590358096100,1.63409619140625,6.279569625854492,-1.405156135559082,-4.004368305206299
1761131590368096000,1.644095947265625,6.315145015716553,-1.7669963836669922,-3.803678512573242
1761131590378096000,1.65409619140625,5.7750630378723145,-2.152188777923584,-3.569807767868042
1761131590388096000,1.664095947265625,4.857046604156494,-2.3674638271331787,-3.3451147079467773
1761131590398096100,1.67409619140625,3.7731823921203613,-2.3275811672210693,-3.1413488388061523
1761131590408096000,1.684095947265625,2.662318706512451,-2.1553778648376465,-2.996032953262329
1761131590418096000,1.69409619140625,1.7669854164123535,-1.9761638641357422,-2.8437423706054688
1761131590428096000,1.704095947265625,1.1377902030944824,-1.8657894134521484,-2.907468318939209
1761131590438096100,1.71409619140625,0.6596641540527344,-2.0385708808898926,-3.0589120388031006
1761131590448096000,1.724095947265625,0.28992557525634766,-2.307544231414795,-3.258134126663208
1761131590458095000,1.73409521484375,-0.11090803146362305,-2.4449405670166016,-3.4716906547546387
1761131590468095200,1.74409521484375,-0.4936866760253906,-2.4368205070495605,-3.6800272464752197
1761131590478095000,1.75409521484375,-0.8252015113830566,-2.3338446617126465,-3.9458441734313965
1761131590488095200,1.76409521484375,-0.9897794723510742,-2.157648801803589,-4.264477729797363
1761131590498095000,1.77409521484375,-1.085179328918457,-2.0936243534088135,-4.474037170410156
1761131590508095200,1.78409521484375,-1.1553683280944824,-2.0603792667388916,-4.475435733795166
1761131590518096000,1.794095947265625,-1.235722541809082,-1.9160959720611572,-4.410974979400635
1761131590528096000,1.804095947265625,-1.2472648620605469,-1.5977704524993896,-4.427183151245117
1761131590538095900,1.814095947265625,-1.2798733711242676,-1.3100905418395996,-4.427593231201172
1761131590548096000,1.824095947265625,-1.1651291847229004,-1.0210306644439697,-4.48268461227417
1761131590558096100,1.83409619140625,-0.8356127738952637,-0.7335031032562256,-4.534799098968506
1761131590568096000,1.844095947265625,-0.26331186294555664,-0.4772677421569824,-4.384265899658203
1761131590578096000,1.85409619140625,0.38196611404418945,-0.34407806396484375,-4.188580513000488
1761131590588096000,1.864095947265625,0.9934883117675781,-0.3109722137451172,-4.094720363616943
1761131590598095000,1.87409521484375,1.449620246887207,-0.31317663192749023,-3.9418747425079346
1761131590608094200,1.88409423828125,1.7922091484069824,-0.20392084121704102,-3.7169365882873535
1761131590618093300,1.89409326171875,2.1209115982055664,0.11491513252258301,-3.372751235961914
1761131590628092400,1.904092529296875,2.247191905975342,0.5343465805053711,-3.0559122562408447
1761131590638091800,1.914091796875,2.2118663787841797,0.8122701644897461,-2.744861364364624
1761131590648090600,1.924090576171875,2.1128883361816406,0.957465648651123,-2.4738473892211914
1761131590658090000,1.934090087890625,2.0544357299804688,1.1219303607940674,-2.459390163421631
1761131590668089000,1.944089111328125,2.0892271995544434,1.2722830772399902,-2.5565080642700195
1761131590678088200,1.954088134765625,2.099355697631836,1.4059224128723145,-2.6890830993652344
1761131590688087300,1.96408740234375,2.030268669128418,1.5097734928131104,-2.7411088943481445
1761131590698086400,1.97408642578125,1.886655330657959,1.6336698532104492,-2.7413668632507324
1761131590708085500,1.98408544921875,1.8092799186706543,1.8041877746582031,-2.8569109439849854
1761131590718084600,1.994084716796875,1.9209070205688477,2.0001235008239746,-3.124581813812256
1761131590728083700,2.004083740234375,2.3633456230163574,2.1321933269500732,-3.5122997760772705
1761131590738083000,2.0140830078125,2.920588493347168,2.1400437355041504,-3.749999523162842
1761131590748083200,2.024083251953125,3.4504947662353516,1.951716423034668,-3.7892541885375977
1761131590758083300,2.034083251953125,3.8497567176818848,1.712087869644165,-3.784862518310547
1761131590768083500,2.04408349609375,4.101091384887695,1.5106525421142578,-3.782665252685547
1761131590778083300,2.054083251953125,4.1777143478393555,1.2633616924285889,-3.6684820652008057
1761131590788082700,2.064082763671875,4.182747840881348,1.3478543758392334,-3.7085201740264893
1761131590798082800,2.074082763671875,3.6902575492858887,0.852414608001709,-3.3116180896759033
1761131590808082700,2.084082763671875,3.1922478675842285,0.7589821815490723,-3.2062199115753174
1761131590818082800,2.094082763671875,2.4939050674438477,0.799788236618042,-3.071019172668457
1761131590828083000,2.1040830078125,1.6888227462768555,0.9635722637176514,-2.9244062900543213
1761131590838082800,2.114082763671875,0.9137225151062012,1.2461647987365723,-2.7830536365509033
1761131590848083000,2.1240830078125,0.9268074035644531,1.3009264469146729,-2.8155171871185303
1761131590858082000,2.13408203125,0.734560489654541,1.7212581634521484,-2.664034366607666
1761131590868082000,2.14408203125,1.1802387237548828,1.7777085304260254,-2.6196212768554688
1761131590878082000,2.15408203125,1.7823033332824707,1.7096024751663208,-2.477944850921631
1761131590888082000,2.16408203125,2.4445981979370117,1.6051939725875854,-2.3377814292907715
1761131590898082800,2.174082763671875,3.021021842956543,1.4086872339248657,-2.0436954498291016
1761131590908083700,2.184083740234375,3.269242763519287,1.2207998037338257,-1.808215618133545
1761131590918084600,2.194084716796875,2.7475481033325195,0.6651082038879395,-1.420891284942627
1761131590928085500,2.20408544921875,2.3577046394348145,1.057329535484314,-1.8449673652648926
1761131590938086400,2.21408642578125,2.0208888053894043,1.1497406959533691,-1.9853558540344238
1761131590948087300,2.22408740234375,1.573054313659668,1.391656517982483,-2.3379130363464355
1761131590958088000,2.234087890625,1.1774744987487793,1.4884496927261353,-2.510931968688965
1761131590968088800,2.2440888671875,0.7463545799255371,1.5765265226364136,-2.7465062141418457
1761131590978089700,2.25408984375,0.2857818603515625,1.6835654973983765,-3.1092145442962646
1761131590988090600,2.264090576171875,-0.0460515022277832,1.8607183694839478,-3.357287883758545
1761131590998091500,2.274091552734375,-0.24416065216064453,1.9490094184875488,-3.329711437225342
1761131591008092400,2.284092529296875,-0.5044283866882324,1.9283980131149292,-3.109693765640259
1761131591018092300,2.29409228515625,-0.8787107467651367,2.0285277366638184,-2.7457799911499023
1761131591028093200,2.30409326171875,-1.4079680442810059,2.228233814239502,-2.5176491737365723
1761131591038094000,2.314093994140625,-1.919583797454834,2.471863269805908,-2.5831823348999023
1761131591048094000,2.324093994140625,-2.2183961868286133,2.6881418228149414,-2.780900478363037
1761131591058093800,2.33409375,-2.409872055053711,2.7921509742736816,-2.9550893306732178
1761131591068093700,2.34409375,-2.2669267654418945,2.8242056369781494,-3.1187028884887695
1761131591078093800,2.35409375,-1.9098048210144043,2.7706589698791504,-3.2692856788635254
1761131591088094500,2.364094482421875,-1.392110824584961,2.6925010681152344,-3.2679409980773926
1761131591098094300,2.37409423828125,-1.4222512245178223,2.654129981994629,-3.2246718406677246
1761131591108094500,2.384094482421875,-0.48175477981567383,2.456803798675537,-3.364295244216919
1761131591118094300,2.39409423828125,-0.05614662170410156,2.4648706912994385,-3.495893955230713
1761131591128094200,2.40409423828125,0.41671037673950195,2.5025296211242676,-3.618675947189331
1761131591138094300,2.41409423828125,0.7432913780212402,2.5262339115142822,-3.496091842651367
1761131591148094200,2.42409423828125,0.93804931640625,2.52543306350708,-3.3102307319641113
1761131591158095000,2.43409521484375,0.9970226287841797,2.547542095184326,-3.2167911529541016
1761131591168095000,2.444094970703125,0.793060302734375,2.507344961166382,-3.096864700317383
1761131591178095000,2.45409521484375,0.7602057456970215,2.455923557281494,-3.0391860008239746
1761131591188095200,2.46409521484375,-0.3399672508239746,2.59613299369812,-2.6963210105895996
1761131591198095400,2.474095458984375,-0.7877664566040039,2.8295905590057373,-2.5679898262023926
1761131591208095200,2.48409521484375,-0.8951206207275391,3.0719962120056152,-2.6240651607513428
1761131591218095600,2.494095703125,-0.7090706825256348,3.206540822982788,-2.60201096534729
1761131591228095700,2.504095703125,-0.23619508743286133,3.2016632556915283,-2.5342037677764893
1761131591238095600,2.514095703125,0.40370655059814453,3.1407711505889893,-2.3220624923706055
1761131591248095700,2.524095703125,1.2462177276611328,3.066511869430542,-1.9634523391723633
1761131591258094800,2.5340947265625,1.8954548835754395,2.973554849624634,-1.6852874755859375
1761131591268095000,2.544094970703125,2.330686569213867,2.8904645442962646,-1.4269661903381348
1761131591278094800,2.5540947265625,2.425473213195801,2.8143744468688965,-1.242171287536621
1761131591288094700,2.5640947265625,2.107440948486328,2.759690284729004,-1.2063422203063965
1761131591298094800,2.5740947265625,1.574385643005371,2.926332950592041,-1.347747802734375
1761131591308095000,2.584094970703125,0.9246430397033691,3.232969284057617,-1.5283422470092773
1761131591318095600,2.594095703125,0.4591054916381836,3.4431986808776855,-1.623300552368164
1761131591328095700,2.604095703125,0.2978372573852539,3.4400551319122314,-1.8252716064453125
1761131591338095600,2.614095703125,0.5311555862426758,3.2200205326080322,-2.143669605255127
1761131591348095700,2.624095703125,1.119436264038086,3.0124497413635254,-2.441455602645874
1761131591358096400,2.634096435546875,1.754654884338379,2.9306747913360596,-2.6133346557617188
1761131591368096500,2.644096435546875,1.879478931427002,2.8247578144073486,-2.8092968463897705
1761131591378096400,2.654096435546875,1.503035545349121,2.7857327461242676,-3.061213493347168
1761131591388096500,2.664096435546875,0.7701611518859863,2.8843889236450195,-3.371150493621826
1761131591398096000,2.674095947265625,0.028020858764648438,3.116838216781616,-3.7386884689331055
1761131591408095700,2.684095703125,-0.6551313400268555,3.4087090492248535,-3.8652870655059814
1761131591418095900,2.694095947265625,-1.3237266540527344,3.5069937705993652,-3.6649465560913086
1761131591428096000,2.704095947265625,-1.6473851203918457,3.9268345832824707,-3.878084182739258
1761131591438096000,2.714095947265625,-1.485239028930664,4.1739606857299805,-4.197472095489502
1761131591448095700,2.724095703125,-0.579460620880127,3.9476544857025146,-4.105581760406494
1761131591458094800,2.7340947265625,0.5820150375366211,3.2846343517303467,-3.311981678009033
1761131591468095000,2.744094970703125,1.6071529388427734,2.5289864540100098,-2.5283730030059814
1761131591478094800,2.7540947265625,2.3987951278686523,1.8543469905853271,-2.1976659297943115
1761131591488095000,2.764094970703125,2.6049299240112305,1.518911361694336,-2.2922000885009766
1761131591498094800,2.7740947265625,2.3610029220581055,1.4001469612121582,-2.5041344165802
1761131591508095000,2.784094970703125,1.9885988235473633,1.5696194171905518,-2.9786808490753174
1761131591518094300,2.79409423828125,1.778768539428711,1.7795953750610352,-3.5891966819763184
1761131591528094500,2.804094482421875,1.6505470275878906,1.7100911140441895,-3.9431512355804443
1761131591538094300,2.81409423828125,1.4877710342407227,1.444192886352539,-3.862537145614624
1761131591548094500,2.824094482421875,1.2008056640625,1.194094181060791,-3.5173168182373047
1761131591558095400,2.834095458984375,0.7970170974731445,1.1482272148132324,-3.2519075870513916
1761131591568095200,2.84409521484375,0.3079833984375,1.246798038482666,-3.1386666297912598
1761131591578095400,2.854095458984375,-0.29322242736816406,1.2929461002349854,-2.89169979095459
1761131591588095200,2.86409521484375,-1.0662341117858887,1.2996013164520264,-2.5622754096984863
1761131591598094600,2.874094482421875,-1.8189034461975098,1.2746620178222656,-2.357715129852295
1761131591608093400,2.884093505859375,-2.263556480407715,1.3890876770019531,-2.3076629638671875
1761131591618092500,2.894092529296875,-2.6036839485168457,1.3478143215179443,-2.2178831100463867
1761131591628092000,2.904091796875,-2.942286968231201,1.2187221050262451,-2.0900232791900635
1761131591638091000,2.914091064453125,-2.9432291984558105,1.1692044734954834,-2.060009241104126
1761131591648090000,2.924090087890625,-3.2924294471740723,0.9112124443054199,-2.219813346862793
1761131591658089200,2.934089111328125,-3.171961784362793,1.0362765789031982,-2.26273775100708
1761131591668088300,2.94408837890625,-2.9909181594848633,1.1369926929473877,-2.236274242401123
1761131591678087400,2.95408740234375,-2.7886805534362793,1.1727232933044434,-2.2846274375915527
1761131591688086500,2.96408642578125,-2.5934877395629883,1.182643175125122,-2.3506104946136475
1761131591698086400,2.97408642578125,-2.3466620445251465,1.2410404682159424,-2.3779680728912354
1761131591708086300,2.984086181640625,-1.9702301025390625,1.2300589084625244,-2.218517780303955
1761131591718086400,2.99408642578125,-1.7451434135437012,1.1525542736053467,-1.911924123764038
1761131591728086300,3.004086181640625,-1.5852198600769043,1.137979507446289,-1.6647567749023438
1761131591738086100,3.014086181640625,-1.5801100730895996,1.1243963241577148,-1.6665172576904297
1761131591748086300,3.024086181640625,-1.3215279579162598,1.2904343605041504,-1.3316214084625244
1761131591758087200,3.034087158203125,-1.134035587310791,1.3532366752624512,-1.2308504581451416
1761131591768087000,3.044087158203125,-0.8275456428527832,1.2834253311157227,-1.041520595550537
1761131591778087200,3.054087158203125,-0.538421630859375,1.28395676612854,-0.9135358333587646
1761131591788086500,3.06408642578125,-0.10765743255615234,1.455784559249878,-0.8962867259979248
1761131591798086700,3.074086669921875,0.5719184875488281,1.6130526065826416,-0.8780438899993896
1761131591808086500,3.08408642578125,1.4804182052612305,1.681389570236206,-0.8783328533172607
1761131591818086700,3.094086669921875,2.577747344970703,1.6556246280670166,-0.6447820663452148
1761131591828086500,3.10408642578125,3.8909502029418945,1.726259469985962,-0.09246826171875
1761131591838086700,3.114086669921875,4.770496368408203,1.7569518089294434,0.3990178108215332
1761131591848086500,3.12408642578125,5.279600143432617,1.827824354171753,0.5103611946105957
1761131591858085600,3.134085693359375,5.549505233764648,1.983119010925293,0.3404359817504883
1761131591868085800,3.144085693359375,5.639552116394043,2.1895647048950195,0.023517131805419922
1761131591878085600,3.154085693359375,5.417325019836426,2.315943956375122,-0.1633777618408203
1761131591888085800,3.164085693359375,4.8169660568237305,2.3049447536468506,-0.44434428215026855
1761131591898086400,3.17408642578125,4.042421340942383,2.2120211124420166,-0.6107711791992188
1761131591908087300,3.18408740234375,3.0294876098632812,2.0544469356536865,-0.5748968124389648
1761131591918088200,3.194088134765625,1.7134571075439453,1.8665952682495117,-0.30907392501831055
1761131591928089000,3.204089111328125,0.3659181594848633,1.8011479377746582,0.03805351257324219
1761131591938090000,3.214090087890625,0.3936643600463867,1.716282844543457,0.030692100524902344
1761131591948091000,3.2240908203125,-1.3122286796569824,2.1852965354919434,0.40303993225097656
1761131591958091800,3.234091796875,-1.2804903984069824,2.1336071491241455,0.37030553817749023
1761131591968092700,3.2440927734375,-0.8180379867553711,2.3268585205078125,0.3478507995605469
1761131591978093600,3.254093505859375,-0.10764884948730469,2.149296760559082,0.12008905410766602
1761131591988094500,3.264094482421875,0.5577487945556641,1.9356224536895752,-0.22892236709594727
1761131591998094600,3.274094482421875,0.997406005859375,1.8060894012451172,-0.727386474609375
1761131592008094500,3.284094482421875,1.1729154586791992,1.8062975406646729,-1.390549659729004
1761131592018094600,3.294094482421875,1.15216064453125,1.81333589553833,-1.3530235290527344
1761131592028094700,3.3040947265625,0.7789974212646484,1.754526138305664,-2.130506992340088
1761131592038094600,3.314094482421875,0.3058195114135742,1.68233323097229,-2.140778064727783
1761131592048094700,3.3240947265625,-0.3630485534667969,1.6564807891845703,-2.0805649757385254
1761131592058093800,3.33409375,-1.09539794921875,1.6795432567596436,-2.0679564476013184
1761131592068094000,3.344093994140625,-1.657526969909668,1.6683335304260254,-2.1047239303588867
1761131592078093800,3.35409375,-2.043282985687256,1.5957958698272705,-2.152484893798828
1761131592088094500,3.364094482421875,-2.278197765350342,1.4667797088623047,-2.159886121749878
1761131592098094600,3.374094482421875,-2.407958507537842,1.3249764442443848,-2.1851754188537598
1761131592108094500,3.384094482421875,-2.437598705291748,1.2392356395721436,-2.276932716369629
1761131592118094600,3.394094482421875,-2.19224214553833,1.0623891353607178,-2.3189306259155273
1761131592128094500,3.404094482421875,-1.8045268058776855,1.018688440322876,-2.325401782989502
1761131592138094600,3.414094482421875,-1.3027420043945312,0.9489388465881348,-2.284163236618042
1761131592148094500,3.424094482421875,-0.8317360877990723,0.859198808670044,-2.168332099914551
1761131592158095400,3.434095458984375,-0.3037538528442383,0.7657470703125,-1.8830443620681763
1761131592168095200,3.44409521484375,0.09634017944335938,0.6949176788330078,-1.430239200592041
1761131592178095400,3.454095458984375,0.46962833404541016,0.5331861972808838,-0.9087963104248047
1761131592188095500,3.464095458984375,0.7155046463012695,0.43715643882751465,-0.5912013053894043
1761131592198095400,3.474095458984375,0.8739042282104492,0.4683701992034912,-0.5816938877105713
1761131592208095500,3.484095458984375,0.8720283508300781,0.48032641410827637,-0.8976869583129883
1761131592218095400,3.494095458984375,0.7501773834228516,0.5359444618225098,-1.3001396656036377
1761131592228095500,3.504095458984375,0.5907659530639648,0.48731040954589844,-1.603956699371338
1761131592238095400,3.514095458984375,0.38027000427246094,0.32288122177124023,-1.614571213722229
1761131592248095500,3.524095458984375,0.11888408660888672,0.08051395416259766,-1.4513722658157349
1761131592258094600,3.534094482421875,-0.251190185546875,-0.12388849258422852,-1.1834089756011963
1761131592268094700,3.5440947265625,-0.7081408500671387,-0.14684438705444336,-1.1143038272857666
1761131592278094600,3.554094482421875,-1.188504695892334,-0.03190326690673828,-1.1691546440124512
1761131592288094700,3.5640947265625,-1.7607803344726562,-0.05544233322143555,-1.2274295091629028
1761131592298095400,3.574095458984375,-2.081735610961914,0.1330881118774414,-1.5871219635009766
1761131592308095200,3.58409521484375,-2.3844571113586426,0.21394968032836914,-1.8846522569656372
1761131592318095400,3.594095458984375,-2.6111607551574707,0.33391284942626953,-2.084047555923462
1761131592328095200,3.60409521484375,-2.7764334678649902,0.41184186935424805,-2.1614320278167725
1761131592338095000,3.61409521484375,-2.7971792221069336,0.573737621307373,-2.27018666267395
1761131592348095200,3.62409521484375,-2.7887978553771973,0.7702317237854004,-2.4807682037353516
1761131592358096000,3.634095947265625,-2.6027493476867676,0.9609909057617188,-2.642920970916748
1761131592368096000,3.644095947265625,-2.352725028991699,1.0714073181152344,-2.837163209915161
1761131592378095900,3.654095947265625,-1.9450359344482422,1.13132905960083,-3.021341323852539
1761131592388096000,3.664095947265625,-1.5833702087402344,1.167025089263916,-3.1853232383728027
1761131592398096100,3.67409619140625,-1.5127925872802734,1.3586101531982422,-3.377382278442383
1761131592408096000,3.684095947265625,-1.5680532455444336,1.6820220947265625,-3.606107234954834
1761131592418096000,3.69409619140625,-1.5665969848632812,1.649646282196045,-3.432504653930664
1761131592428096000,3.704095947265625,-1.6279211044311523,1.7092952728271484,-3.4179768562316895
1761131592438096100,3.71409619140625,-1.2436890602111816,1.4529023170471191,-3.4758195877075195
1761131592448096000,3.724095947265625,0.06013774871826172,1.1282143592834473,-3.761284351348877
1761131592458095400,3.734095458984375,2.724033832550049,0.6378593444824219,-3.738450050354004
1761131592468095200,3.74409521484375,6.423010349273682,-0.40700244903564453,-3.6332764625549316
1761131592478095400,3.754095458984375,8.796670913696289,-1.4150543212890625,-3.7260549068450928
1761131592488095200,3.76409521484375,9.742734909057617,-2.0696732997894287,-3.9230597019195557
1761131592498095000,3.77409521484375,9.12411880493164,-2.298520565032959,-3.7886857986450195
1761131592508095200,3.78409521484375,7.466030120849609,-1.8157243728637695,-3.060668706893921
1761131592518095000,3.79409521484375,5.1905412673950195,-1.0609917640686035,-1.7349311113357544
1761131592528095200,3.80409521484375,3.4004745483398438,-0.68511962890625,-0.5508401393890381
1761131592538095000,3.81409521484375,2.146517753601074,-0.7788457870483398,0.23069587349891663
1761131592548095200,3.82409521484375,1.630007266998291,-0.9819283485412598,0.33497458696365356
1761131592558096100,3.83409619140625,1.7077889442443848,-1.3577990531921387,0.2955271005630493
1761131592568096000,3.844095947265625,1.7341928482055664,-1.7063679695129395,0.10650837421417236
1761131592578096000,3.85409619140625,1.7277607917785645,-1.9953875541687012,-0.08826690912246704
1761131592588096000,3.864095947265625,2.069981575012207,-1.9559736251831055,-0.2875109314918518
1761131592598095400,3.874095458984375,2.8387274742126465,-2.015338897705078,-0.4032334089279175
1761131592608094500,3.884094482421875,3.4561009407043457,-2.2378501892089844,-0.15017521381378174
1761131592618093600,3.894093505859375,3.4173154830932617,-2.1880922317504883,-0.14055001735687256
1761131592628092700,3.9040927734375,3.431572437286377,-2.7300572395324707,0.5906934142112732
1761131592638092000,3.914092041015625,2.4753756523132324,-2.811945676803589,0.7543696761131287
1761131592648091100,3.924091064453125,1.21474027633667,-2.586620330810547,0.4461154341697693
1761131592658090200,3.93409033203125,-0.11974954605102539,-2.2296066284179688,-0.08376705646514893
1761131592668089300,3.94408935546875,-1.36958646774292,-1.9521918296813965,-0.6969624757766724
1761131592678088400,3.95408837890625,-2.363908290863037,-1.8073968887329102,-1.0689294338226318
1761131592688087600,3.964087646484375,-3.2161788940429688,-1.8193974494934082,-1.2440026998519897
1761131592698086700,3.974086669921875,-3.871584892272949,-1.8649730682373047,-1.0853463411331177
1761131592708085800,3.984085693359375,-4.1874680519104,-1.7768125534057617,-0.7642054557800293
1761131592718084900,3.9940849609375,-4.087483882904053,-1.9070959091186523,-0.9334133267402649
1761131592728084000,4.004083984375,-3.785219430923462,-1.4346809387207031,0.3985964059829712
1761131592738083800,4.014083740234375,-3.181536912918091,-1.248640537261963,0.866606593132019
1761131592748084000,4.024083984375,-2.5833358764648438,-1.3923401832580566,1.4737863540649414
1761131592758084600,4.034084716796875,-2.14290189743042,-1.4412894248962402,1.9246339797973633
1761131592768084700,4.044084716796875,-1.7338719367980957,-1.4377398490905762,1.9803327322006226
1761131592778084600,4.054084716796875,-1.2865867614746094,-1.4480257034301758,1.9686579704284668
1761131592788084000,4.064083984375,-0.8085885047912598,-1.4578533172607422,1.923422932624817
1761131592798084000,4.074083984375,-0.42931127548217773,-1.4786376953125,1.787219762802124
1761131592808084000,4.084083984375,-0.028922080993652344,-1.4562225341796875,1.4048112630844116
1761131592818084000,4.094083984375,-0.034412384033203125,-1.4472765922546387,1.3619343042373657
1761131592828084200,4.104084228515625,0.41002941131591797,-1.426435947418213,0.23966187238693237
1761131592838084000,4.114083984375,0.49278879165649414,-1.6065998077392578,-0.143585205078125
1761131592848084200,4.124084228515625,0.6611471176147461,-1.7951745986938477,-0.4813808798789978
1761131592858083300,4.134083251953125,0.9557976722717285,-1.9052600860595703,-0.847200334072113
1761131592868083500,4.14408349609375,1.1476263999938965,-2.056509017944336,-1.2261265516281128
1761131592878083300,4.154083251953125,1.0719294548034668,-2.3010387420654297,-1.3012406826019287
1761131592888083200,4.164083251953125,0.6716628074645996,-2.5254979133605957,-1.4539685249328613
1761131592898084000,4.174083984375,0.1849827766418457,-2.61849308013916,-1.5577571392059326
1761131592908085000,4.1840849609375,-0.35969018936157227,-2.625242233276367,-1.8746103048324585
1761131592918086000,4.1940859375,-0.825899600982666,-2.639432907104492,-2.142860174179077
1761131592928086500,4.20408642578125,-1.1396708488464355,-2.718935966491699,-2.1842005252838135
1761131592938087400,4.21408740234375,-1.1628265380859375,-2.8447184562683105,-2.036600351333618
1761131592948088300,4.22408837890625,-1.0631041526794434,-2.8043508529663086,-1.8191059827804565
1761131592958089200,4.234089111328125,-0.7678699493408203,-2.6208853721618652,-1.6272830963134766
1761131592968090000,4.244090087890625,-0.08635807037353516,-2.28663969039917,-1.1950929164886475
1761131592978091000,4.254091064453125,1.1034207344055176,-2.1209049224853516,-0.4952479898929596
1761131592988092000,4.264091796875,2.644989490509033,-2.2063088417053223,-0.12641552090644836
1761131592998092800,4.2740927734375,3.954993724822998,-2.6299281120300293,-0.030157625675201416
1761131593008093700,4.28409375,5.214809417724609,-2.9300780296325684,-0.1050475537776947
1761131593018093800,4.29409375,6.265639781951904,-3.069577217102051,-0.26958149671554565
1761131593028094700,4.3040947265625,6.967518329620361,-3.1868958473205566,-0.31596052646636963
1761131593038094800,4.3140947265625,7.241083145141602,-3.4745640754699707,-0.10773831605911255
1761131593048094700,4.3240947265625,6.755908966064453,-3.683960199356079,-0.23856887221336365
1761131593058093800,4.33409375,7.605912685394287,-3.6206858158111572,-0.11021599173545837
1761131593068094000,4.344093994140625,7.6807050704956055,-3.451413631439209,-0.27861565351486206
1761131593078093800,4.35409375,7.272858142852783,-3.137033700942993,-0.5412407517433167
1761131593088094500,4.364094482421875,6.694756031036377,-2.852501392364502,-0.4118577241897583
1761131593098094600,4.374094482421875,5.957380294799805,-2.7225656509399414,-0.18032105267047882
1761131593108094500,4.384094482421875,4.898782253265381,-2.7949986457824707,-0.1001712754368782
1761131593118094600,4.394094482421875,4.913858413696289,-2.811655044555664,-0.07757497578859329
1761131593128094500,4.404094482421875,2.458998680114746,-2.7094831466674805,-0.6026814579963684
1761131593138094300,4.41409423828125,1.7285075187683105,-2.518798351287842,-0.9926962852478027
1761131593148094500,4.424094482421875,1.3946328163146973,-2.4653868675231934,-1.164245843887329
1761131593158095000,4.43409521484375,1.4540495872497559,-2.6175332069396973,-0.8852287530899048
1761131593168095200,4.44409521484375,1.755749225616455,-2.9007139205932617,-0.3980441987514496
1761131593178095400,4.454095458984375,1.8474702835083008,-3.104438543319702,-0.1620548963546753
1761131593188095200,4.46409521484375,1.865462303161621,-3.1258702278137207,-0.42267581820487976
1761131593198095400,4.474095458984375,1.631455898284912,-2.894915819168091,-0.9656049013137817
1761131593208095200,4.48409521484375,1.302886962890625,-2.7057933807373047,-1.5200896263122559
1761131593218095400,4.494095458984375,0.9327220916748047,-2.4966530799865723,-2.095813751220703
1761131593228095500,4.504095458984375,0.5200037956237793,-2.4078259468078613,-2.447359085083008
1761131593238095400,4.514095458984375,0.12137031555175781,-2.3357720375061035,-2.564847469329834
1761131593248095200,4.52409521484375,-0.21355676651000977,-2.155796527862549,-2.4399969577789307
1761131593258094600,4.534094482421875,-0.5539126396179199,-1.9025163650512695,-2.2867836952209473
1761131593268094500,4.544094482421875,-0.7905430793762207,-1.6445798873901367,-2.130906820297241
1761131593278094600,4.554094482421875,-0.9876818656921387,-1.477646827697754,-2.1347293853759766
1761131593288094500,4.564094482421875,-1.047166347503662,-1.5768985748291016,-2.1620125770568848
1761131593298094600,4.574094482421875,-1.0287961959838867,-1.9481391906738281,-2.10174560546875
1761131593308094500,4.584094482421875,-1.1165008544921875,-2.30908203125,-2.0026748180389404
1761131593318095400,4.594095458984375,-1.1661224365234375,-2.5879483222961426,-2.0345065593719482
1761131593328095200,4.60409521484375,-1.0143074989318848,-2.696406364440918,-2.1977620124816895
1761131593338095000,4.61409521484375,-0.8264670372009277,-2.760582685470581,-2.292649745941162
1761131593348095200,4.62409521484375,-0.7113461494445801,-2.7916853427886963,-2.3142027854919434
1761131593358096000,4.634095947265625,-0.5397768020629883,-2.770522356033325,-2.394054889678955
1761131593368096000,4.644095947265625,-0.30249643325805664,-2.73520565032959,-2.474268913269043
1761131593378095900,4.654095947265625,-0.028472423553466797,-2.695178508758545,-2.536513090133667
1761131593388096000,4.664095947265625,0.24904966354370117,-2.681964874267578,-2.5599536895751953
1761131593398096100,4.67409619140625,0.4604911804199219,-2.554530143737793,-2.670119524002075
1761131593408096000,4.684095947265625,0.6003918647766113,-2.2885847091674805,-2.937431573867798
1761131593418096000,4.69409619140625,0.6966114044189453,-1.840395450592041,-3.3759334087371826
1761131593428096000,4.704095947265625,0.7938094139099121,-1.407698631286621,-3.769272565841675
1761131593438096100,4.71409619140625,0.8114943504333496,-1.2529997825622559,-3.9688377380371094
1761131593448096000,4.724095947265625,0.7195758819580078,-1.216543197631836,-3.948498249053955
1761131593458095000,4.73409521484375,0.6531744003295898,-1.143843650817871,-3.893162488937378
1761131593468095200,4.74409521484375,0.5498251914978027,-0.9844188690185547,-3.8845808506011963
1761131593478095000,4.75409521484375,0.36782217025756836,-0.8041586875915527,-3.8847639560699463
1761131593488095000,4.764094970703125,0.28769493103027344,-0.6373257637023926,-3.790496826171875
1761131593498095000,4.77409521484375,0.4322381019592285,-0.4196152687072754,-3.665353775024414
1761131593508095000,4.784094970703125,0.9528040885925293,-0.23241853713989258,-3.3856282234191895
1761131593518095000,4.79409521484375,1.592048168182373,-0.1915445327758789,-3.060068130493164
1761131593528095000,4.804094970703125,2.25978946685791,-0.3121662139892578,-2.7330033779144287
1761131593538095000,4.81409521484375,2.7140235900878906,-0.35981035232543945,-2.618325710296631
1761131593548095000,4.824094970703125,2.7833642959594727,-0.3673834800720215,-2.5821146965026855
1761131593558096000,4.834095947265625,2.4867544174194336,-0.2782883644104004,-2.657616138458252
1761131593568095700,4.844095703125,2.41591739654541,-0.12982606887817383,-2.6463003158569336
1761131593578095900,4.854095947265625,2.5053248405456543,0.07634162902832031,-2.6957039833068848
1761131593588096000,4.864095947265625,2.6584887504577637,0.22687530517578125,-2.684570789337158
1761131593598095000,4.87409521484375,2.7987213134765625,0.3121676445007324,-2.642925977706909
1761131593618093300,4.89409326171875,3.3269810676574707,0.4605574607849121,-2.677668809890747
1761131593628092400,4.904092529296875,3.7524352073669434,0.3885459899902344,-2.7059340476989746
1761131593638091500,4.914091552734375,4.1336140632629395,0.27785348892211914,-2.743116617202759
1761131593648090600,4.924090576171875,4.386489391326904,0.23830223083496094,-2.8284878730773926
1761131593658089700,4.93408984375,4.596385955810547,0.3348884582519531,-2.89454984664917
1761131593668088800,4.9440888671875,4.736965179443359,0.42861413955688477,-2.885383129119873
1761131593678088000,4.954087890625,4.861979961395264,0.4588613510131836,-2.757594108581543
1761131593688087000,4.964087158203125,4.837658882141113,0.4906477928161621,-2.7441489696502686
1761131593698086100,4.974086181640625,5.694161891937256,0.11458206176757812,-2.002265214920044
1761131593708086300,4.984086181640625,5.978207588195801,-0.293304443359375,-1.4148520231246948
1761131593718086400,4.99408642578125,6.056035995483398,-0.6930251121520996,-0.8271205425262451
1761131593728086300,5.004086181640625,5.899471282958984,-1.01472806930542,-0.3198438286781311
1761131593738086100,5.014086181640625,5.690771579742432,-1.0868401527404785,-0.1244293674826622
1761131593748086300,5.024086181640625,5.3840155601501465,-1.2693324089050293,0.044684797525405884
1761131593758087200,5.034087158203125,5.379018306732178,-1.2617278099060059,0.0281679630279541
1761131593768087000,5.044087158203125,3.966092109680176,-1.9794423580169678,0.5351253747940063
1761131593778087200,5.054087158203125,2.9854531288146973,-2.280099391937256,0.5650450587272644
1761131593788087300,5.06408740234375,1.9187278747558594,-2.5169661045074463,0.5203112363815308
1761131593798087200,5.074087158203125,0.5739059448242188,-2.7968215942382812,0.5567148923873901
1761131593808087300,5.08408740234375,-0.5480942726135254,-3.10099458694458,0.5553852319717407
1761131593818087200,5.094087158203125,-1.5839176177978516,-3.281336545944214,0.5355433821678162
1761131593828087300,5.10408740234375,-2.4933271408081055,-3.385944128036499,0.532191276550293
1761131593838087200,5.114087158203125,-3.2427797317504883,-3.4077391624450684,0.5246602892875671
1761131593848087300,5.12408740234375,-3.7848289012908936,-3.4932312965393066,0.5284277200698853
1761131593858086400,5.13408642578125,-4.231195449829102,-3.444059371948242,0.32203853130340576
1761131593868086500,5.14408642578125,-4.303041458129883,-3.349370241165161,-0.040564361959695816
1761131593878086400,5.15408642578125,-4.179308891296387,-3.4041941165924072,-0.43774962425231934
1761131593888086300,5.164086181640625,-3.921025514602661,-3.679746627807617,-0.6692558526992798
1761131593898087200,5.174087158203125,-3.636490821838379,-4.049115180969238,-0.7784600853919983
1761131593908088000,5.184088134765625,-3.228933811187744,-4.288763046264648,-0.8407787680625916
1761131593918089000,5.1940888671875,-2.79307222366333,-4.316315650939941,-0.9422330856323242
1761131593928089900,5.20408984375,-2.5213541984558105,-4.281914710998535,-1.1231822967529297
1761131593938090800,5.2140908203125,-2.28720760345459,-4.211734771728516,-1.3417701721191406
1761131593948091600,5.224091552734375,-1.851750373840332,-4.04514217376709,-1.4648321866989136
1761131593958092500,5.234092529296875,-1.2610869407653809,-3.8490984439849854,-1.706235647201538
1761131593968093200,5.24409326171875,-0.5794034004211426,-3.8630964756011963,-1.9777356386184692
1761131593978094300,5.25409423828125,-0.2748599052429199,-4.021273136138916,-2.094357967376709
1761131593988095200,5.26409521484375,-0.34803009033203125,-4.045415878295898,-2.335771083831787
1761131593998096100,5.27409619140625,-0.5203471183776855,-3.725731611251831,-2.626749277114868
1761131594008096000,5.284095947265625,-0.5987105369567871,-3.336679697036743,-2.856121778488159
1761131594018095900,5.294095947265625,-0.5892496109008789,-3.3413984775543213,-2.913025379180908
1761131594028096000,5.304095947265625,-0.44739198684692383,-2.9179234504699707,-2.9255056381225586
1761131594038096100,5.31409619140625,0.9462056159973145,-2.388235569000244,-2.480813503265381
1761131594048096000,5.324095947265625,2.2195281982421875,-2.261826992034912,-2.4071271419525146
1761131594058095000,5.33409521484375,3.815648078918457,-2.2892966270446777,-2.3882875442504883
1761131594068095200,5.34409521484375,5.266278266906738,-2.4902429580688477,-2.3198435306549072
1761131594078095000,5.35409521484375,6.332322120666504,-2.66428804397583,-2.392284393310547
1761131594088095200,5.36409521484375,7.133117198944092,-2.620307445526123,-2.6124584674835205
1761131594098095000,5.37409521484375,7.437357425689697,-2.3501076698303223,-2.768629550933838
1761131594108095200,5.38409521484375,7.317753314971924,-2.0575618743896484,-2.7668659687042236
1761131594118095000,5.39409521484375,6.841235637664795,-1.8391623497009277,-2.469625234603882
1761131594128095000,5.404094970703125,6.322295188903809,-1.6186165809631348,-2.0256106853485107
1761131594138095000,5.41409521484375,5.936413288116455,-1.3813462257385254,-1.4777476787567139
1761131594148095200,5.42409521484375,5.8929972648620605,-1.3331084251403809,-1.4399302005767822
1761131594158096000,5.434095947265625,5.707034111022949,-1.1898283958435059,-0.6243990659713745
1761131594168095700,5.444095703125,5.600175857543945,-1.2395453453063965,-0.47344768047332764
1761131594178095900,5.454095947265625,5.147438049316406,-1.2869982719421387,-0.34112030267715454
1761131594188096000,5.464095947265625,4.441211223602295,-1.3321642875671387,-0.20820507407188416
1761131594198096000,5.474095947265625,3.5187630653381348,-1.3020358085632324,0.1741499900817871
1761131594208096000,5.484095947265625,2.730648994445801,-1.1220426559448242,0.6114355325698853
1761131594218095900,5.494095947265625,2.2727761268615723,-0.6339759826660156,0.7168228626251221
1761131594228096000,5.504095947265625,2.397886276245117,-0.33612871170043945,0.6591621041297913
1761131594238096000,5.514095947265625,2.739579677581787,-0.5624699592590332,0.8359065055847168
1761131594248096000,5.524095947265625,3.0263142585754395,-1.051832675933838,1.2041354179382324
1761131594258095000,5.53409521484375,3.2442455291748047,-1.4900031089782715,1.5195780992507935
1761131594268095200,5.54409521484375,3.4196205139160156,-1.6358318328857422,1.6720263957977295
1761131594278095000,5.55409521484375,3.3393735885620117,-1.8247723579406738,1.7058851718902588
1761131594288095000,5.564094970703125,3.016683578491211,-2.0804288387298584,1.680413842201233
1761131594298095000,5.57409521484375,2.342662811279297,-2.246856689453125,1.5641344785690308
1761131594308095200,5.58409521484375,1.4016571044921875,-2.301331043243408,1.3877383470535278
1761131594318095000,5.59409521484375,0.23641586303710938,-2.1934564113616943,1.2076020240783691
1761131594328095000,5.604094970703125,-0.9235882759094238,-2.152297258377075,1.1134588718414307
1761131594338095000,5.61409521484375,-2.058349132537842,-2.1485486030578613,1.0688484907150269
1761131594348095000,5.624094970703125,-3.0200300216674805,-2.0934629440307617,0.992005467414856
1761131594358096000,5.634095947265625,-3.735400676727295,-1.8581933975219727,0.7772049903869629
1761131594368095700,5.644095703125,-3.6680760383605957,-1.9401302337646484,0.7869725227355957
1761131594378095900,5.654095947265625,-4.420429229736328,-1.6884660720825195,0.10844364762306213
1761131594388095700,5.664095703125,-4.4443039894104,-1.8158111572265625,-0.13475251197814941
1761131594398096000,5.674095947265625,-4.208837509155273,-1.9897942543029785,-0.2741382122039795
1761131594408095700,5.684095703125,-3.806304693222046,-2.1303586959838867,-0.28555017709732056
1761131594418095900,5.694095947265625,-3.25372314453125,-2.237349033355713,-0.28623396158218384
1761131594428096000,5.704095947265625,-2.5686917304992676,-2.173551559448242,-0.3874056041240692
1761131594438096000,5.714095947265625,-1.7106914520263672,-2.175699234008789,-0.4916512966156006
1761131594448096000,5.724095947265625,-1.0207171440124512,-2.291598320007324,-0.5261406898498535
1761131594458095000,5.73409521484375,-0.3356504440307617,-2.4282398223876953,-0.4784214496612549
1761131594468095000,5.744094970703125,0.27982091903686523,-2.463629722595215,-0.5532835721969604
1761131594478095000,5.75409521484375,0.920708179473877,-2.423358917236328,-0.8336249589920044
1761131594488095000,5.764094970703125,1.5813264846801758,-2.5364508628845215,-1.1049413681030273
1761131594498095000,5.77409521484375,2.1138877868652344,-2.6412222385406494,-1.2775942087173462
1761131594508095000,5.784094970703125,2.516805648803711,-2.7174222469329834,-1.4022542238235474
1761131594518095000,5.79409521484375,2.6743412017822266,-2.867567539215088,-1.5134093761444092
1761131594528095000,5.804094970703125,2.511054515838623,-3.0020384788513184,-1.5649665594100952
1761131594538095000,5.81409521484375,2.144585132598877,-2.9559788703918457,-1.6818777322769165
1761131594548095000,5.824094970703125,1.5221061706542969,-2.71960186958313,-1.9098291397094727
1761131594558096000,5.834095947265625,0.9107131958007812,-2.5214767456054688,-2.0796284675598145
1761131594568095700,5.844095703125,0.2431812286376953,-2.4112629890441895,-2.142892599105835
1761131594578095900,5.854095947265625,-0.31600427627563477,-2.2130188941955566,-2.1491281986236572
1761131594588095700,5.864095703125,-0.565335750579834,-1.9433073997497559,-2.1645171642303467
1761131594598095000,5.87409521484375,-0.42333173751831055,-1.697434902191162,-2.064833879470825
1761131594608094200,5.88409423828125,0.07033586502075195,-1.6891183853149414,-1.8320175409317017
1761131594618093300,5.89409326171875,0.6009817123413086,-1.7040281295776367,-1.557748556137085
1761131594628092400,5.904092529296875,1.1571450233459473,-1.735262393951416,-1.433411717414856
1761131594638091500,5.914091552734375,1.766885757446289,-1.7317266464233398,-1.4265726804733276
1761131594648090600,5.924090576171875,2.41845703125,-1.7584214210510254,-1.5308759212493896
1761131594658089700,5.93408984375,2.8045334815979004,-1.8461966514587402,-1.6387606859207153
1761131594668088800,5.9440888671875,2.7281999588012695,-1.7754583358764648,-1.9564660787582397
1761131594678088000,5.954087890625,2.153123378753662,-1.4899239540100098,-2.309135675430298
1761131594688087000,5.964087158203125,1.3492693901062012,-0.9678306579589844,-2.6776628494262695
1761131594698086100,5.974086181640625,0.5538187026977539,-0.5637869834899902,-2.9946513175964355
1761131594708085500,5.98408544921875,0.06787490844726562,-0.2540931701660156,-3.127484083175659
1761131594718084600,5.994084716796875,0.05126953125,-0.2332921028137207,-3.092433214187622
1761131594728084500,6.00408447265625,0.0265350341796875,0.10613870620727539,-2.956348419189453
1761131594738084400,6.01408447265625,0.46436405181884766,0.1465435028076172,-2.7514548301696777
1761131594748084500,6.02408447265625,1.105949878692627,0.01659536361694336,-2.4941890239715576
1761131594758085400,6.03408544921875,1.760477066040039,-0.1915760040283203,-2.2657594680786133
1761131594768085200,6.044085205078125,2.4059524536132812,-0.34926509857177734,-2.2031755447387695
1761131594778085400,6.05408544921875,2.872530937194824,-0.4605088233947754,-2.106081247329712
1761131594788085500,6.06408544921875,3.0042037963867188,-0.4404158592224121,-1.9398125410079956
1761131594798085400,6.07408544921875,2.8656625747680664,-0.3310203552246094,-1.7970530986785889
1761131594808085200,6.084085205078125,2.5482683181762695,-0.09738636016845703,-1.744473934173584
1761131594818085400,6.09408544921875,2.2368555068969727,0.18616914749145508,-1.7666187286376953
1761131594828085500,6.10408544921875,2.0114498138427734,0.3667149543762207,-1.6297729015350342
1761131594838085400,6.11408544921875,2.014039993286133,0.5169029235839844,-1.3575763702392578
1761131594848085500,6.12408544921875,2.2075514793395996,0.5386271476745605,-1.1214652061462402
1761131594858084600,6.134084716796875,2.670219898223877,0.6875672340393066,-0.9142820835113525
1761131594868084500,6.14408447265625,3.299039363861084,0.5097436904907227,-0.6831768751144409
1761131594878084600,6.154084716796875,3.895076274871826,0.03897666931152344,-0.3963468372821808
1761131594888084500,6.16408447265625,4.420046806335449,-0.5580048561096191,-0.19406893849372864
1761131594898085400,6.17408544921875,4.650078773498535,-1.0898332595825195,-0.018442600965499878
1761131594908086300,6.184086181640625,4.580988883972168,-1.4111742973327637,0.15688058733940125
1761131594918087200,6.194087158203125,4.350714206695557,-1.6776127815246582,0.43034520745277405
1761131594928088000,6.204088134765625,4.011335849761963,-1.9605484008789062,0.5950556397438049
1761131594938089000,6.2140888671875,3.5546112060546875,-2.2302801609039307,0.5133248567581177
1761131594948089600,6.224089599609375,3.0376758575439453,-2.419996738433838,0.2671760618686676
1761131594958090500,6.234090576171875,2.4462037086486816,-2.579465866088867,-0.050142258405685425
1761131594968091400,6.24409130859375,1.8100647926330566,-2.785649061203003,-0.2005195915699005
1761131594978092300,6.25409228515625,1.043266773223877,-3.0914254188537598,-0.23351949453353882
1761131594988093200,6.26409326171875,0.18593358993530273,-3.321031332015991,-0.17023110389709473
1761131594998094000,6.274093994140625,-0.7420082092285156,-3.3595454692840576,-0.08445340394973755
1761131595008095000,6.284094970703125,-1.7327642440795898,-3.212862968444824,-0.023177534341812134
1761131595018095900,6.294095947265625,-2.6631364822387695,-3.0680644512176514,0.03196611627936363
1761131595028096000,6.304095947265625,-3.3723926544189453,-2.888214588165283,0.0659327507019043
1761131595038096000,6.314095947265625,-3.8832316398620605,-2.588559627532959,0.0012203305959701538
1761131595048095700,6.324095703125,-4.196279525756836,-2.3237695693969727,-0.11331088840961456
1761131595058095000,6.33409521484375,-4.345817565917969,-2.1674880981445312,-0.3052750825881958
1761131595068095000,6.344094970703125,-4.418177604675293,-2.136793613433838,-0.3316292464733124
1761131595078094800,6.3540947265625,-4.352908134460449,-2.125044345855713,-0.3302643597126007
1761131595088095000,6.364094970703125,-4.16132116317749,-2.0852713584899902,-0.37011224031448364
1761131595098094800,6.3740947265625,-3.784728765487671,-2.05954647064209,-0.5446280241012573
1761131595108095000,6.384094970703125,-3.255702257156372,-2.041718006134033,-0.767682671546936
1761131595118094800,6.3940947265625,-2.65584135055542,-2.1250391006469727,-0.9449061155319214
1761131595128095000,6.404094970703125,-1.5894660949707031,-2.283555507659912,-1.039520502090454
1761131595138094800,6.4140947265625,-0.5491762161254883,-2.460904121398926,-1.0159391164779663
1761131595148095000,6.424094970703125,0.27274370193481445,-2.6104536056518555,-1.1288034915924072
1761131595158096000,6.434095947265625,0.8747849464416504,-2.6565637588500977,-1.3271089792251587
1761131595168095700,6.444095703125,1.1922507286071777,-2.6355080604553223,-1.531266450881958
1761131595178095900,6.454095947265625,1.3371624946594238,-2.6214585304260254,-1.7352021932601929
1761131595188095700,6.464095703125,1.372849464416504,-2.5445618629455566,-1.9638134241104126
1761131595198096000,6.474095947265625,1.2999248504638672,-2.4147377014160156,-2.261146068572998
1761131595208095700,6.484095703125,1.1872997283935547,-2.262392520904541,-2.4925343990325928
1761131595218095900,6.494095947265625,1.1060986518859863,-2.0935330390930176,-2.5901894569396973
1761131595228096000,6.504095947265625,1.2273740768432617,-1.8198871612548828,-2.6107068061828613
1761131595238096000,6.514095947265625,1.6300253868103027,-1.5645852088928223,-2.5149364471435547
1761131595248096000,6.524095947265625,2.521235466003418,-1.378875732421875,-2.354959487915039
1761131595258095000,6.53409521484375,3.6859383583068848,-1.3818588256835938,-2.271198272705078
1761131595268095000,6.544094970703125,4.710362434387207,-1.5236382484436035,-2.117459774017334
1761131595278095000,6.55409521484375,5.445450782775879,-1.6338977813720703,-2.029374837875366
1761131595288095000,6.564094970703125,5.782383441925049,-1.5671963691711426,-1.9992327690124512
1761131595298095000,6.57409521484375,5.558995246887207,-1.2609519958496094,-1.907307505607605
1761131595308095200,6.58409521484375,4.804414749145508,-0.9369997978210449,-1.6606385707855225
1761131595318095000,6.59409521484375,3.8295135498046875,-0.7038655281066895,-1.3009226322174072
1761131595328095000,6.604094970703125,2.9636526107788086,-0.3249034881591797,-0.9877606630325317
1761131595338095000,6.61409521484375,2.6611971855163574,0.16837644577026367,-1.0747783184051514
1761131595348095000,6.624094970703125,2.907494068145752,0.2532057762145996,-1.090079665184021
1761131595358096000,6.634095947265625,3.429966926574707,-0.24012422561645508,-0.8664606809616089
1761131595368095700,6.644095703125,3.763235092163086,-0.7890262603759766,-0.6970451474189758
1761131595378095900,6.654095947265625,3.865630626678467,-1.114396572113037,-0.5225124955177307
1761131595388096000,6.664095947265625,3.7670326232910156,-1.2665009498596191,-0.2650633454322815
1761131595398096000,6.674095947265625,3.635167121887207,-1.2064714431762695,-0.013659536838531494
1761131595408096000,6.684095947265625,3.5593767166137695,-1.1701741218566895,0.2851138710975647
1761131595418095900,6.694095947265625,3.446392059326172,-1.270312786102295,0.5554021596908569
1761131595428096000,6.704095947265625,3.3417797088623047,-1.5138020515441895,0.6273989677429199
1761131595438096000,6.714095947265625,3.02890682220459,-1.8928453922271729,0.6870543360710144
1761131595448096000,6.724095947265625,2.474410057067871,-2.2352256774902344,0.7834088206291199
1761131595458095000,6.73409521484375,1.7683000564575195,-2.513542413711548,0.8152335286140442
1761131595468095000,6.744094970703125,0.946601390838623,-2.655683994293213,0.7496950626373291
1761131595478095000,6.75409521484375,0.07773447036743164,-2.5878875255584717,0.5096138119697571
1761131595488095000,6.764094970703125,0.12061452865600586,-2.6476619243621826,0.5148901343345642
1761131595498095000,6.77409521484375,-1.0647120475769043,-2.3908638954162598,0.048750102519989014
1761131595508095000,6.784094970703125,-1.4578447341918945,-2.36676025390625,-0.25651979446411133
1761131595518094800,6.7940947265625,-1.4324398040771484,-2.4057517051696777,-0.22118425369262695
1761131595528095000,6.804094970703125,-1.7996177673339844,-2.339014768600464,-0.8145528435707092
1761131595538094800,6.8140947265625,-1.8316631317138672,-2.369490385055542,-1.0098475217819214
1761131595548095000,6.824094970703125,-1.821803092956543,-2.3541100025177,-1.2049849033355713
1761131595558096000,6.834095947265625,-1.7421565055847168,-2.282562017440796,-1.5327684879302979
1761131595568095700,6.844095703125,-1.7281913757324219,-2.304346799850464,-1.4980791807174683
1761131595578095900,6.854095947265625,-1.4986553192138672,-2.2939512729644775,-2.00063419342041
1761131595588095700,6.864095703125,-1.3783345222473145,-2.393564462661743,-2.005681037902832
1761131595598095000,6.87409521484375,-1.2447013854980469,-2.3786184787750244,-1.9622255563735962
1761131595608094200,6.88409423828125,-1.097703456878662,-2.397728681564331,-1.9051613807678223
1761131595618093300,6.89409326171875,-0.9614028930664062,-2.326343536376953,-1.7589788436889648
1761131595628092400,6.904092529296875,-0.8074955940246582,-2.2812814712524414,-1.5753967761993408
1761131595638091800,6.914091796875,-0.6868300437927246,-2.2955307960510254,-1.392864465713501
1761131595648091000,6.9240908203125,-0.647484302520752,-2.278212070465088,-1.2534006834030151
1761131595658090000,6.934090087890625,-0.7232513427734375,-2.215487003326416,-1.2862467765808105
1761131595668089000,6.944089111328125,-0.7043795585632324,-2.235975742340088,-1.3038372993469238
1761131595678088200,6.954088134765625,-0.898618221282959,-1.9935393333435059,-1.4922488927841187
1761131595688087300,6.96408740234375,-0.8957886695861816,-1.893120288848877,-1.4726026058197021
1761131595698086400,6.97408642578125,-0.7333507537841797,-1.76285982131958,-1.4875273704528809
1761131595708085500,6.98408544921875,-0.34959983825683594,-1.6260299682617188,-1.5398647785186768
1761131595718085400,6.99408544921875,0.05309581756591797,-1.5291504859924316,-1.6296254396438599
1761131595728085500,7.00408544921875,0.44846105575561523,-1.505833625793457,-1.6596107482910156
1761131595738085400,7.01408544921875,0.7581944465637207,-1.5114879608154297,-1.6377503871917725
1761131595748085500,7.02408544921875,0.9440889358520508,-1.4267563819885254,-1.6571580171585083
1761131595758086400,7.03408642578125,0.9267735481262207,-1.3354110717773438,-1.7062163352966309
1761131595768086300,7.044086181640625,0.5852518081665039,-1.2277355194091797,-1.7843432426452637
1761131595778086400,7.05408642578125,0.14641571044921875,-1.0812363624572754,-1.8334753513336182
1761131595788086500,7.06408642578125,-0.3053574562072754,-0.9367027282714844,-1.756255030632019
1761131595798086400,7.07408642578125,-0.509986400604248,-0.7590789794921875,-1.677380084991455
1761131595808086300,7.084086181640625,-0.46671009063720703,-0.6275649070739746,-1.5985301733016968
1761131595818086400,7.09408642578125,-0.21919536590576172,-0.6751708984375,-1.4269750118255615
1761131595828086500,7.10408642578125,0.027630329132080078,-0.7994918823242188,-1.0788320302963257
1761131595838086400,7.11408642578125,0.29245424270629883,-0.805722713470459,-0.7795348167419434
1761131595848086500,7.12408642578125,0.5360708236694336,-0.6832633018493652,-0.647627592086792
1761131595858085600,7.134085693359375,0.6829009056091309,-0.5794696807861328,-0.6077374815940857
1761131595868085800,7.144085693359375,0.7488031387329102,-0.6497235298156738,-0.5904562473297119
1761131595878085600,7.154085693359375,0.6972956657409668,-0.5897951126098633,-0.5731232762336731
1761131595888085500,7.16408544921875,1.1280460357666016,-0.6651296615600586,-1.168047308921814
1761131595898086100,7.174086181640625,1.8032135963439941,-0.5521621704101562,-1.6667075157165527
1761131595908087000,7.184087158203125,2.5845513343811035,-0.6473231315612793,-2.0917482376098633
1761131595918088000,7.194087890625,3.3528075218200684,-0.8742575645446777,-2.4065747261047363
1761131595928088800,7.2040888671875,4.047972679138184,-1.009202003479004,-2.7233450412750244
1761131595938089700,7.21408984375,4.702005386352539,-1.0905637741088867,-3.0666651725769043
1761131595948090600,7.224090576171875,4.925283432006836,-1.1770076751708984,-3.268342971801758
1761131595958091500,7.234091552734375,4.960088729858398,-1.1453380584716797,-3.2988710403442383
1761131595968092400,7.244092529296875,4.723706245422363,-1.0494914054870605,-3.134549856185913
1761131595978093300,7.25409326171875,4.237221717834473,-1.005141258239746,-2.8289434909820557
1761131595988094200,7.26409423828125,3.7013731002807617,-0.8769559860229492,-2.432016372680664
1761131595998095000,7.27409521484375,3.1996612548828125,-0.8245925903320312,-1.7695101499557495
1761131596008095700,7.284095703125,2.951486587524414,-0.9133038520812988,-1.0373380184173584
1761131596018095900,7.294095947265625,2.936892509460449,-0.921515941619873,-0.5621304512023926
1761131596028096000,7.304095947265625,3.3069887161254883,-1.0273990631103516,-0.5558053255081177
1761131596038096000,7.314095947265625,3.8637094497680664,-1.31522536277771,-0.6738148927688599
1761131596048096000,7.324095947265625,4.357305526733398,-1.7037818431854248,-0.8031871318817139
1761131596058095000,7.33409521484375,4.614621162414551,-2.081505298614502,-0.9468328356742859
1761131596068095200,7.34409521484375,4.557300567626953,-2.18147873878479,-1.225278377532959
1761131596078095000,7.35409521484375,4.24317741394043,-2.098417043685913,-1.4766972064971924
1761131596088095000,7.364094970703125,3.817418098449707,-1.9659183025360107,-1.5773087739944458
1761131596098095000,7.37409521484375,3.136066436767578,-1.984205961227417,-1.389315128326416
1761131596118095000,7.39409521484375,0.6401424407958984,-2.2697854042053223,-1.22442626953125
1761131596128095000,7.404094970703125,0.6781721115112305,-2.337355136871338,-1.2038594484329224
1761131596138095000,7.41409521484375,-1.974980354309082,-2.2409870624542236,-1.2217605113983154
1761131596148095000,7.424094970703125,-2.926790714263916,-2.071035385131836,-1.274898648262024
1761131596168095700,7.444095703125,-4.073555946350098,-1.9887449741363525,-1.099522352218628
1761131596178095900,7.454095947265625,-4.251462459564209,-2.2670865058898926,-1.2359066009521484
1761131596188096000,7.464095947265625,-4.123443603515625,-2.5860908031463623,-1.4185571670532227
1761131596198096000,7.474095947265625,-3.925344944000244,-3.4372916221618652,-0.36255234479904175
1761131596208096000,7.484095947265625,-3.471186637878418,-2.8658151626586914,-0.25217634439468384
1761131596218095900,7.494095947265625,-3.0364198684692383,-2.0800540447235107,-0.6050854921340942
1761131596228096000,7.504095947265625,-1.7870597839355469,-1.6791393756866455,-1.0670161247253418
1761131596238096100,7.51409619140625,-0.5313735008239746,-1.6752841472625732,-1.3078899383544922
1761131596248096000,7.524095947265625,0.07747268676757812,-2.0649254322052,-1.1350857019424438
1761131596258095000,7.53409521484375,0.37195587158203125,-2.8869967460632324,-0.9320075511932373
1761131596268095200,7.54409521484375,0.5400285720825195,-3.6197314262390137,-0.5745036005973816
1761131596278095000,7.55409521484375,0.7912712097167969,-3.8646225929260254,-0.24158966541290283
1761131596288095200,7.56409521484375,1.1071805953979492,-3.6883907318115234,-0.09545457363128662
1761131596298095000,7.57409521484375,1.3779029846191406,-3.209507465362549,-0.13422954082489014
1761131596308095200,7.58409521484375,1.5906391143798828,-2.5955488681793213,-0.3128843307495117
1761131596318095000,7.59409521484375,1.5523948669433594,-2.192331075668335,-0.5104647874832153
1761131596328095000,7.604094970703125,1.589212417602539,-2.251751661300659,-0.49792611598968506
1761131596338095000,7.61409521484375,2.00209903717041,-2.5657739639282227,0.1555551290512085
1761131596348095000,7.624094970703125,2.329318046569824,-2.8150928020477295,0.6325451135635376
1761131596358096000,7.634095947265625,2.2451491355895996,-2.731776714324951,0.5565372705459595
1761131596368095700,7.644095703125,2.3108620643615723,-2.829437732696533,0.5848675966262817
1761131596378095900,7.654095947265625,1.395972728729248,-2.0155820846557617,-1.1196502447128296
1761131596388096000,7.664095947265625,1.3244147300720215,-1.9251112937927246,-1.325955867767334
1761131596398096000,7.674095947265625,1.605316162109375,-2.1498944759368896,-1.089869499206543
1761131596408096000,7.684095947265625,2.180368423461914,-2.190850019454956,-0.5763136744499207
1761131596418095900,7.694095947265625,2.7661614418029785,-1.9942350387573242,-0.1900174617767334
1761131596428096000,7.704095947265625,3.3193483352661133,-1.592024326324463,-0.198561429977417
1761131596438096000,7.714095947265625,3.4754276275634766,-1.2669134140014648,0.15063130855560303
1761131596448095700,7.724095703125,3.6981019973754883,-1.1429896354675293,0.26287150382995605
1761131596458095000,7.73409521484375,3.760122776031494,-0.9829545021057129,0.18873703479766846
1761131596468095000,7.744094970703125,3.7614850997924805,-0.7423539161682129,-0.023794054985046387
1761131596478095000,7.75409521484375,3.8011903762817383,-0.6443114280700684,-0.14883875846862793
1761131596488095000,7.764094970703125,3.6885557174682617,-0.7691850662231445,-0.08375310897827148
1761131596498095000,7.77409521484375,3.3594956398010254,-0.9774494171142578,0.09168112277984619
1761131596508095000,7.784094970703125,3.063114643096924,-1.1337895393371582,0.24374234676361084
1761131596518094800,7.7940947265625,2.777250289916992,-1.2117338180541992,0.3944413661956787
1761131596528095000,7.804094970703125,2.4637231826782227,-1.3022212982177734,0.6070200204849243
1761131596538094800,7.8140947265625,2.1502223014831543,-1.3913993835449219,0.8318771123886108
1761131596548095000,7.824094970703125,1.840837001800537,-1.4417343139648438,0.9058724641799927
1761131596558096000,7.834095947265625,1.8558692932128906,-1.4642481803894043,0.9141577482223511
1761131596568095700,7.844095703125,1.160205364227295,-1.6201982498168945,0.7277872562408447
1761131596578095900,7.854095947265625,0.9020199775695801,-1.7075324058532715,0.4711519479751587
1761131596588096000,7.864095947265625,0.6631131172180176,-1.866323471069336,0.32648932933807373
1761131596598095000,7.87409521484375,0.411649227142334,-2.123987913131714,0.3137410879135132
1761131596608094200,7.88409423828125,0.23228740692138672,-2.246222496032715,0.30886077880859375
1761131596618093300,7.89409326171875,0.18485021591186523,-2.192800521850586,0.3195875883102417
1761131596628092400,7.904092529296875,0.10016584396362305,-2.181283473968506,0.3676292896270752
1761131596638091500,7.914091552734375,-0.05866527557373047,-2.1976523399353027,0.4354466199874878
1761131596648090600,7.924090576171875,-0.21385765075683594,-2.0129306316375732,0.3992345333099365
1761131596658089700,7.93408984375,-0.32526206970214844,-1.8504726886749268,0.21046209335327148
1761131596668088800,7.9440888671875,-0.5493593215942383,-1.7319598197937012,0.061756253242492676
1761131596678088000,7.954087890625,-0.8268508911132812,-1.7223575115203857,-0.09707200527191162
1761131596688087000,7.964087158203125,-1.1495132446289062,-1.7197840213775635,-0.30855417251586914
1761131596698086100,7.974086181640625,-1.4330487251281738,-1.6451659202575684,-0.5662316679954529
1761131596708085500,7.98408544921875,-1.6516780853271484,-1.5657505989074707,-0.6987305879592896
1761131596718084400,7.99408447265625,-1.846445083618164,-1.4796671867370605,-0.7434863448143005
1761131596728084500,8.00408447265625,-1.9912843704223633,-1.3810715675354004,-0.7185637354850769
1761131596738084400,8.01408447265625,-2.0942535400390625,-1.373915672302246,-0.5532922148704529
1761131596748084500,8.02408447265625,-2.139756679534912,-1.3561763763427734,-0.2972232699394226
1761131596758085400,8.03408544921875,-2.0887365341186523,-1.3351926803588867,-0.1294395923614502
1761131596768085200,8.044085205078124,-2.0339808464050293,-1.2349700927734375,0.006766080856323242
1761131596778085400,8.05408544921875,-1.8811326026916504,-1.1408519744873047,-0.08158600330352783
1761131596788085200,8.064085205078126,-1.6698336601257324,-1.092954158782959,-0.23244887590408325
1761131596798085400,8.07408544921875,-1.4536657333374023,-1.157578468322754,-0.3281610608100891
1761131596808085200,8.084085205078125,-1.16790771484375,-1.259810447692871,-0.36764466762542725
1761131596818085400,8.09408544921875,-0.8265609741210938,-1.2303900718688965,-0.41864269971847534
1761131596828085200,8.104085205078125,-0.47470808029174805,-1.1809005737304688,-0.5892499685287476
1761131596838085400,8.11408544921875,-0.16934967041015625,-1.15989351272583,-0.6755099296569824
1761131596848085200,8.124085205078124,0.1404552459716797,-1.137312412261963,-0.6643190383911133
1761131596858084400,8.13408447265625,0.39117908477783203,-1.2614507675170898,-0.4894987940788269
1761131596868084500,8.14408447265625,0.7084751129150391,-0.914553165435791,-0.7885366678237915
1761131596878084400,8.15408447265625,0.947758674621582,-0.6111545562744141,-1.0887664556503296
1761131596888084500,8.16408447265625,1.0551433563232422,-0.43853282928466797,-1.259687900543213
1761131596898085400,8.17408544921875,1.074906349182129,-0.45092201232910156,-1.2528091669082642
1761131596908086300,8.184086181640625,1.022242546081543,-0.5600252151489258,-1.1655902862548828
1761131596918087200,8.194087158203125,0.9784908294677734,-0.6395359039306641,-0.9718040227890015
1761131596928087800,8.204087890625,0.9858884811401367,-0.7140741348266602,-0.8139331936836243
1761131596938089000,8.2140888671875,1.1264724731445312,-0.7139310836791992,-0.673129677772522
1761131596948089900,8.22408984375,1.445967674255371,-0.7392778396606445,-0.7898790240287781
1761131596958090500,8.234090576171875,1.7049455642700195,-0.6987872123718262,-1.0765191316604614
1761131596968091400,8.24409130859375,1.692173957824707,-0.6765923500061035,-1.0940998792648315
1761131596978092300,8.25409228515625,1.243861198425293,-0.7532358169555664,-1.1763018369674683
1761131596988093200,8.26409326171875,0.8469696044921875,-0.574345588684082,-1.4095842838287354
1761131596998094000,8.274093994140625,0.7393712997436523,-0.19866943359375,-1.7550145387649536
1761131597008095000,8.284094970703125,1.2180757522583008,0.2109370231628418,-2.1446497440338135
1761131597018095900,8.294095947265625,2.0133018493652344,0.11359739303588867,-2.184439182281494
1761131597028096000,8.304095947265624,2.88320255279541,-0.36690664291381836,-1.9396073818206787
1761131597038096000,8.314095947265624,3.7036657333374023,-0.9728841781616211,-1.7118101119995117
1761131597048096000,8.324095947265626,4.3089599609375,-1.3681535720825195,-1.697175145149231
1761131597058095000,8.33409521484375,4.714847564697266,-1.4787487983703613,-1.8056674003601074
1761131597068095200,8.34409521484375,4.830442428588867,-1.7765755653381348,-1.6904457807540894
1761131597078095000,8.35409521484375,4.683411598205566,-2.0190746784210205,-1.5335729122161865
1761131597088095000,8.364094970703125,4.288448333740234,-2.192525863647461,-1.279547095298767
1761131597098095000,8.37409521484375,3.848905563354492,-2.186802387237549,-1.09212064743042
1761131597108095000,8.384094970703124,3.5874080657958984,-1.9392540454864502,-1.1094847917556763
1761131597118094800,8.3940947265625,3.319899559020996,-1.5793612003326416,-1.2421629428863525
1761131597128095000,8.404094970703126,2.8768014907836914,-1.2988033294677734,-1.3741881847381592
1761131597138095000,8.41409521484375,2.4462060928344727,-1.168125867843628,-1.2856242656707764
1761131597148095000,8.424094970703125,2.042363166809082,-1.2373838424682617,-1.037207007408142
1761131597158096000,8.434095947265625,1.7647247314453125,-1.4891729354858398,-0.7717742919921875
1761131597168096000,8.444095947265625,1.6749019622802734,-1.8248353004455566,-0.5166460275650024
1761131597178095900,8.454095947265625,1.7040510177612305,-1.848555088043213,-0.616506814956665
1761131597188096000,8.464095947265625,1.5256195068359375,-2.4365901947021484,-0.28075671195983887
1761131597198096000,8.474095947265624,1.546269416809082,-2.447392463684082,-0.3614453077316284
1761131597208095700,8.484095703125,0.9564609527587891,-2.7044379711151123,-0.33770859241485596
1761131597218094800,8.4940947265625,0.5772905349731445,-2.6108477115631104,-0.5487203598022461
1761131597228095000,8.504094970703125,0.3593711853027344,-2.4696097373962402,-0.9247201085090637
1761131597238094800,8.5140947265625,0.04507732391357422,-2.478335380554199,-1.1942906379699707
1761131597248094700,8.5240947265625,-0.36574792861938477,-2.585611343383789,-1.3094871044158936
1761131597258094000,8.534093994140624,-0.8582925796508789,-2.6757586002349854,-1.3798469305038452
1761131597268094000,8.544093994140624,-1.4344053268432617,-2.62844181060791,-1.3694418668746948
1761131597278093800,8.55409375,-1.4240264892578125,-2.6584630012512207,-1.32658851146698
1761131597288094000,8.564093994140626,-2.2007369995117188,-2.2185161113739014,-1.5124425888061523
1761131597298093800,8.57409375,-2.509343147277832,-2.048802375793457,-1.4503697156906128
1761131597308094000,8.584093994140625,-2.7965784072875977,-1.9021284580230713,-1.391610026359558
1761131597318093800,8.59409375,-2.94273042678833,-1.7364883422851562,-1.5386714935302734
1761131597328094000,8.604093994140625,-2.905416488647461,-1.7676410675048828,-1.6437164545059204
1761131597338094000,8.614093994140624,-2.8590164184570312,-2.0442841053009033,-1.643702507019043
1761131597348094000,8.624093994140624,-2.6882119178771973,-2.2489914894104004,-1.5372772216796875
1761131597358094800,8.6340947265625,-2.390824794769287,-2.2603421211242676,-1.4146637916564941
1761131597368094700,8.6440947265625,-2.060798168182373,-2.165637731552124,-1.322214126586914
1761131597378094800,8.6540947265625,-1.7210664749145508,-2.034467935562134,-1.3383748531341553
1761131597388094700,8.6640947265625,-1.726740837097168,-2.0245754718780518,-1.3425719738006592
1761131597398094800,8.6740947265625,-0.8837475776672363,-1.890516757965088,-1.6274303197860718
1761131597408094700,8.6840947265625,-0.4759669303894043,-1.8390522003173828,-1.7637420892715454
1761131597418094800,8.6940947265625,0.04372406005859375,-1.8733940124511719,-1.7551913261413574
1761131597428095000,8.704094970703125,0.4338493347167969,-1.9149835109710693,-1.6496882438659668
1761131597438094800,8.7140947265625,0.7809038162231445,-1.9238216876983643,-1.575538992881775
1761131597448094700,8.7240947265625,1.0972204208374023,-1.804398536682129,-1.2981932163238525
1761131597458094000,8.734093994140625,1.2086057662963867,-1.7032146453857422,-1.1347908973693848
1761131597468094000,8.744093994140625,1.086141586303711,-1.760446548461914,-1.2503845691680908
1761131597478093800,8.75409375,0.8432588577270508,-1.8195631504058838,-1.3097902536392212
1761131597488095200,8.76409521484375,0.8310270309448242,-1.8112061023712158,-1.27225661277771
1761131597498095000,8.77409521484375,1.013484001159668,-1.9959156513214111,-1.1497416496276855
1761131597508095200,8.78409521484375,0.30515003204345703,-1.856419324874878,-1.9892209768295288
1761131597518096000,8.794095947265625,-0.30419349670410156,-1.3665807247161865,-2.678284168243408
1761131597528096000,8.804095947265624,-0.3716392517089844,-0.8261899948120117,-2.8598971366882324
1761131597538096000,8.81409619140625,-0.010523796081542969,-0.7840099334716797,-2.0827407836914062
1761131597548096300,8.82409619140625,0.7912864685058594,-0.9691891670227051,-0.918700098991394
1761131597558097200,8.83409716796875,1.9679641723632812,-1.1535019874572754,-0.06680917739868164
1761131597568097000,8.844096923828126,2.7075510025024414,-1.0770936012268066,0.0381542444229126
