time,seconds_elapsed,z,y,x
1761129466643703800,0.111703857421875,-0.0002609502989798784,-0.0006779632531106472,-0.0005210964009165764
1761129466663548700,0.131548583984375,0.0005190895753912628,-0.0005932745989412069,-0.0009759641252458096
1761129466683394600,0.15139453125,0.0006028175703249872,0.0013399235904216766,0.001152707263827324
1761129466703239700,0.17123974609375,-0.0001237100805155933,0.0020020275842398405,-0.0014840075746178627
1761129466723085600,0.19108544921875,-0.0003697507781907916,0.000008301809430122375,-0.0005888128653168678
1761129466742930700,0.2109306640625,-0.0020747387316077948,-0.0024320469237864017,0.002093866001814604
1761129466762776600,0.230776611328125,0.00026145047741010785,0.0008060128893703222,-0.00043069757521152496
1761129466782621700,0.25062158203125,0.00035310914972797036,0.0014075841754674911,0.0013977536000311375
1761129466802466600,0.270466552734375,0.0037186099216341972,-0.00012088194489479065,0.000284398440271616
1761129466822312700,0.290312744140625,-0.0020722912158817053,-0.00008708029054105282,-0.00024880561977624893
1761129466842157600,0.310157470703125,0.0013775676488876343,0.0012900405563414097,-0.0027268771082162857
1761129466862004000,0.33000390625,-0.001826219609938562,-0.0001393682323396206,-0.00022369157522916794
1761129466881849000,0.34984912109375,-0.0005582452286034822,0.0005831581074744463,-0.000299826730042696
1761129466901695000,0.369695068359375,0.00042385741835460067,0.0012017956469208002,0.000019451137632131577
1761129466921540000,0.3895400390625,-0.0011084337020292878,-0.0006094940472394228,0.00030612386763095856
1761129466941386000,0.409385986328125,0.0009288845467381179,-0.0020044578704982996,-0.0022699516266584396
1761129466961231000,0.429231201171875,-0.0007153830956667662,0.00312842451967299,-0.0011007478460669518
1761129466981077000,0.449076904296875,-0.0021020083222538233,-0.000605978537350893,0.005124425515532494
1761129467000921900,0.468921875,-0.0005182396853342652,0.0016048431862145662,0.002967264037579298
1761129467020767000,0.48876708984375,0.0021071177907288074,0.0023985998705029488,0.00004018470644950867
1761129467040612900,0.50861279296875,0.00023876765044406056,-0.0012914559338241816,-0.0012721819803118706
1761129467060458000,0.5284580078125,-0.0001977509818971157,-0.0002530922647565603,-0.0003366153687238693
1761129467080304000,0.54830419921875,-0.0007128254510462284,-0.0006448035128414631,0.0016797413118183613
1761129467100149200,0.568149169921875,0.0006640065112151206,-0.0008544425945729017,-0.002987554296851158
1761129467119995100,0.5879951171875,-0.0011294675059616566,0.004199733026325703,-0.001317685004323721
1761129467139840000,0.607840087890625,-0.0014029151061549783,-0.002108931541442871,0.000016218051314353943
1761129467159686100,0.62768603515625,0.002509599318727851,0.0007411055266857147,0.0032930842135101557
1761129467179531000,0.647531005859375,-0.004543755203485489,-0.002859218046069145,0.002936756704002619
1761129467199377200,0.667377197265625,-0.00025480741169303656,0.001343549694865942,0.001172484364360571
1761129467219222000,0.687221923828125,-0.0014012069441378117,-0.0022440687753260136,-0.0011755088344216347
1761129467239068000,0.70706787109375,-0.00022945547243580222,-0.0014561761636286974,-0.000833295751363039
1761129467258913000,0.7269130859375,0.00004135956987738609,0.00016821781173348427,-0.0003926912322640419
1761129467278758100,0.746758056640625,-0.003466089954599738,0.0017237511929124594,0.001884425524622202
1761129467298604000,0.76660400390625,-0.000676720286719501,-0.00040922872722148895,-0.0013060709461569786
1761129467318449000,0.786448974609375,-0.00013496348401531577,0.0010777786374092102,0.0018654237501323223
1761129467338295000,0.806294921875,-0.0008118049008771777,-0.0005100888665765524,0.0015195468440651894
1761129467358140000,0.826139892578125,-0.0014934372156858444,-0.000757178058847785,0.003905167570337653
1761129467377986000,0.845986083984375,-0.0017013249453157187,0.00019782991148531437,0.0008296864107251167
1761129467397831000,0.865830810546875,-0.00033397856168448925,0.0016621225513517857,-0.000867537222802639
1761129467417677000,0.885677001953125,-0.0006926274509169161,0.0021378020755946636,0.0004526148550212383
1761129467437522200,0.905522216796875,0.0016200391110032797,-0.0018482520245015621,-0.0005398876965045929
1761129467457368000,0.9253681640625,-0.0003038713475689292,0.00012564565986394882,-0.0022347643971443176
1761129467477213200,0.945213134765625,-0.000009863288141787052,-0.0007105974946171045,0.0016656001098453999
1761129467497059000,0.96505908203125,-0.0022070715203881264,-0.0016480425838381052,-0.0005919826216995716
1761129467516904200,0.984904296875,0.0005964314914308488,0.0022914602886885405,-0.002053481061011553
1761129467536750000,1.00475,-0.0013346743071451783,0.0005816854536533356,0.0013781380839645863
1761129467556595200,1.02459521484375,0.002220909111201763,0.0009460826404392719,-0.0010198461823165417
1761129467576440000,1.044440185546875,0.0017642799066379666,0.001375657506287098,0.0003282022662460804
1761129467596286000,1.064285888671875,-0.0035864305682480335,0.00031845271587371826,0.0019781826995313168
1761129467616131000,1.084131103515625,0.0007649180479347706,-0.0009900659788399935,0.0017922264523804188
1761129467635977000,1.10397705078125,0.0007997411303222179,-0.001941744121722877,-0.0016934783197939396
1761129467655822000,1.123822021484375,0.0007669261540286243,-0.001796753378584981,-0.000491902232170105
1761129467675668000,1.14366796875,0.0015849580522626638,0.0030014843214303255,-0.00207224627956748
1761129467695513000,1.16351318359375,-0.0001064653042703867,0.001382629619911313,-0.0014957273378968239
1761129467715359000,1.18335888671875,-0.00010263168951496482,-0.0014639600412920117,0.000011937692761421204
1761129467735204000,1.2032041015625,0.0013162470422685146,0.0002192340325564146,0.0014756596647202969
1761129467755050000,1.223050048828125,0.00038362236227840185,0.00021212617866694927,-0.00026956386864185333
1761129467774894800,1.242894775390625,0.00003162183566018939,0.00019907718524336815,0.0017909794114530087
1761129467794741200,1.2627412109375,-0.0002693390706554055,0.001705946633592248,-0.0013088020496070385
1761129467814586000,1.282586181640625,-0.00025912432465702295,0.0008320116903632879,0.0006606988608837128
1761129467834431200,1.30243115234375,0.0003634512540884316,0.0017915109638124704,0.0011923261918127537
1761129467854277000,1.322277099609375,-0.0014772717840969563,0.0005287982057780027,0.0020893379114568233
1761129467874122000,1.3421220703125,0.0026637897826731205,-0.0024774931371212006,0.0026808385737240314
1761129467893968000,1.3619677734375,-0.000620105885900557,0.000023860018700361252,0.002273609396070242
1761129467913813000,1.38181298828125,0.0015294128097593784,0.0018920681905001402,-0.0005414676852524281
1761129467933659000,1.401658935546875,0.0009857057593762875,-0.000648121815174818,-0.0013723946176469326
1761129467953503700,1.421503662109375,0.002285755705088377,0.0014959387481212616,-0.0028655356727540493
1761129467973350100,1.44135009765625,-0.0008204293553717434,0.0016927113756537437,0.00016996962949633598
1761129467993194800,1.46119482421875,-0.001378659624606371,-0.002008817158639431,0.0013761655427515507
1761129468013041000,1.481041015625,-0.001586252823472023,0.00334075721912086,-0.0005128467455506325
1761129468032886000,1.500885986328125,0.0010653443168848753,-0.00043259141966700554,0.00045450031757354736
1761129468052732000,1.52073193359375,-0.0010516442125663161,-0.0006631882861256599,0.0012507601641118526
1761129468072577000,1.540576904296875,-0.001964305527508259,0.0002765101380646229,0.0004661567509174347
1761129468092423000,1.5604228515625,-0.0000987974344752729,-0.001468408852815628,-0.0005456991493701935
1761129468112268000,1.58026806640625,-0.0008978717960417271,-0.00009201769717037678,0.00041953474283218384
1761129468132113000,1.60011279296875,0.0011446119751781225,-0.0015099955489858985,0.0011870418675243855
1761129468151959000,1.619958984375,-0.00010535039473325014,-0.0007692817598581314,-0.0006753019988536835
1761129468171804000,1.639803955078125,0.0013050106354057789,0.0003258674405515194,0.0009195292368531227
1761129468191649800,1.65964990234375,-0.0001814129645936191,-0.00041455961763858795,0.0015870523639023304
1761129468211495000,1.679494873046875,-0.0012002233415842056,0.0012707009445875883,0.00003097951412200928
1761129468231340800,1.6993408203125,0.00023602397413924336,0.00015261303633451462,0.0009222552180290222
1761129468251186000,1.71918603515625,-0.000549430726096034,-0.00001854519359767437,-0.0013687899336218834
1761129468271031800,1.73903173828125,-0.0005899384268559515,-0.002080483827739954,-0.00010422151535749435
1761129468290877000,1.758876953125,-0.0012541074538603425,0.0012762024998664856,0.000482907984405756
1761129468310722800,1.778722900390625,0.0014628635253757238,0.0031136430334299803,0.0014159977436065674
1761129468330568000,1.79856787109375,-0.0003129980177618563,-0.001397472806274891,0.001600080169737339
1761129468350414000,1.8184140625,-0.0000690582673996687,0.0002047338057309389,0.0008370401337742805
1761129468370259000,1.838259033203125,0.0017249349039047956,0.00016669905744493008,0.0013985149562358856
1761129468390103800,1.858103759765625,-0.001167984097264707,0.0004138869699090719,-0.0008621839806437492
1761129468409950000,1.877949951171875,-0.00003122584894299507,0.00039344863034784794,-0.0013932185247540474
1761129468429795000,1.897795166015625,0.003012583125382662,-0.0014622302260249853,0.0007989155128598213
1761129468449641000,1.917640869140625,0.001296096364967525,-0.0010867246892303228,0.0016109738498926163
1761129468469486000,1.937486083984375,-0.0005064800498075783,-0.0019851229153573513,0.0012186826206743717
1761129468489332000,1.95733203125,0.0003390321508049965,-0.00042627938091754913,0.00009363237768411636
1761129468509177000,1.977177001953125,-0.0012062471359968185,0.0014150913339108229,0.0008346466347575188
1761129468529023000,1.99702294921875,-0.00007638288661837578,-0.0014062713598832488,-0.000018687918782234192
1761129468548867800,2.016867919921875,0.0009201460052281618,0.0027305767871439457,0.00026720110327005386
1761129468568714000,2.0367138671875,-0.0011977721005678177,0.0012073819525539875,-0.0016725962050259113
1761129468588558800,2.056558837890625,-0.00012783525744453073,-0.00158551090862602,0.0017646853812038898
1761129468608404000,2.076404052734375,-0.0012633759761229157,-0.0009228792041540146,-0.0012204935774207115
1761129468628249900,2.096249755859375,-0.0006313094636425376,-0.0002267519012093544,0.0009513669647276402
1761129468648095000,2.116094970703125,0.002531816251575947,0.001610402949154377,-0.0007784566842019558
1761129468667940900,2.13594091796875,-0.0023925509303808212,0.00258649792522192,-0.00007617752999067307
1761129468687786000,2.155785888671875,0.0012434548698365688,-0.003392836544662714,0.00046617956832051277
1761129468707631900,2.1756318359375,-0.000984228914603591,0.0016793855465948582,-0.001812000758945942
1761129468727476700,2.195476806640625,-0.0022981613874435425,-0.0019994364120066166,-0.0013390947133302689
1761129468747323100,2.2153232421875,-0.0006361685809679329,-0.0007058863993734121,0.00027754250913858414
1761129468767168000,2.23516796875,-0.000388937332900241,0.0003365115262567997,0.0004659402184188366
1761129468787014000,2.255013916015625,0.0012172689894214272,-0.00009659538045525551,0.00036914320662617683
1761129468806859000,2.27485888671875,-0.000577025581151247,0.0002327919937670231,-0.00069034518674016
1761129468826705000,2.294704833984375,0.0017910997848957777,-0.0009668862912803888,-0.0005938983522355556
1761129468846550000,2.314550048828125,-0.0008909209864214063,0.00012315274216234684,-0.0012492001987993717
1761129468866395600,2.334395751953125,0.00024707248667255044,0.00064264633692801,-0.0008592447265982628
1761129468886240800,2.35424072265625,-0.0003699502849485725,-0.0003783551510423422,0.0011040177196264267
1761129468906085600,2.374085693359375,0.0009224368259310722,-0.0011677941074594855,-0.0004528788849711418
1761129468925931800,2.393931884765625,0.00016862398479133844,0.0005100243724882603,0.001006005797535181
1761129468945776600,2.413776611328125,0.0007098849164322019,-0.00018475600518286228,0.002679500263184309
1761129468965622800,2.433622802734375,0.0020954194478690624,-0.0010368330404162407,0.0014665122143924236
1761129468985468000,2.453468017578125,0.0016954971943050623,-0.0004836726002395153,0.00012952648103237152
1761129469005313800,2.473313720703125,0.00018465216271579266,-0.000033602118492126465,-0.0023999447003006935
1761129469025159000,2.493158935546875,0.000548906740732491,0.0001305455807596445,0.0006847442127764225
1761129469045004800,2.5130048828125,-0.0009039355209097266,-0.001331760548055172,-0.0006881710141897202
1761129469064850000,2.532849853515625,0.001056875567883253,0.002237946493551135,-0.0007490175776183605
1761129469084695800,2.55269580078125,0.0000548925600014627,-0.0010813141707330942,-0.0007942356169223785
1761129469104541000,2.572541015625,0.0009623506339266896,-0.001019183313474059,-0.0008871881291270256
1761129469124385800,2.5923857421875,0.0006293742335401475,0.0034203696995973587,0.0010559768415987492
1761129469144231700,2.612231689453125,-0.000296142534352839,-0.00010265689343214035,-0.002101088874042034
1761129469164076800,2.632076904296875,0.0006705744890496135,-0.0006572182755917311,-0.0016082129441201687
1761129469183922700,2.651922607421875,0.0007713993545621634,-0.0025015021674335003,-0.0010733092203736305
1761129469203767800,2.671767822265625,0.0013254852965474129,0.0007624472491443157,0.0019613089971244335
1761129469223613700,2.69161376953125,-0.0000656446791253984,0.0014384544920176268,0.0002631605602800846
1761129469243458800,2.711458740234375,0.0011191499652341008,-0.00003860611468553543,-0.0011337115429341793
1761129469263304700,2.7313046875,0.0016285156598314643,-0.001048387261107564,-0.00023504206910729408
1761129469283149800,2.75114990234375,0.0017528298776596785,-0.00023744301870465279,-0.0010845665819942951
1761129469302996000,2.770995849609375,0.000582703563850373,-0.0025168710853904486,-0.0021017128601670265
1761129469322840600,2.790840576171875,0.0013423205818980932,-0.00021339859813451767,-0.0013768207281827927
1761129469342687000,2.81068701171875,-0.0011509106261655688,-0.00018238392658531666,0.0017475131899118423
1761129469362531800,2.83053173828125,-0.000581714091822505,-0.0008945437148213387,0.00025999732315540314
1761129469382377000,2.850376953125,-0.0022563980892300606,-0.0007872732821851969,-0.0019697840325534344
1761129469402222800,2.870222900390625,0.0004005755763500929,0.0022062980569899082,0.0024293730966746807
1761129469422068000,2.89006787109375,0.00041405658703297377,-0.001466477639041841,-0.0017458433285355568
1761129469441913900,2.909913818359375,-0.001284610596485436,0.0006766922306269407,0.0011241957545280457
1761129469461759000,2.929759033203125,-0.0016331309452652931,0.0012015129905194044,-0.0008364124223589897
1761129469481604900,2.94960498046875,0.0008631300297565758,0.00022590416483581066,0.00010295584797859192
1761129469501449700,2.96944970703125,0.0008363574161194265,0.0011482571717351675,0.0008607883937656879
1761129469521296000,2.9892958984375,-0.0012027634074911475,-0.0017485948046669364,-0.0006188885308802128
1761129469541140700,3.009140625,0.0017753385473042727,-0.0005006983410567045,-0.0005215904675424099
1761129469560987000,3.02898681640625,0.0018594834255054593,0.0004097635392099619,-0.0007910793647170067
1761129469580831700,3.048831787109375,0.003769615665078163,0.0002696907613426447,-0.00045151589438319206
1761129469600677600,3.068677734375,-0.0002915009390562773,0.0011741439811885357,-0.0011478019878268242
1761129469620522800,3.088522705078125,-0.0024755203630775213,-0.00015594996511936188,0.00015014223754405975
1761129469640367900,3.108367919921875,0.0004259390407241881,0.0004386084619909525,-0.0031638112850487232
1761129469660213800,3.1282138671875,-0.0020043428521603346,0.0006417315453290939,-0.0005283751524984837
1761129469680058600,3.14805859375,-0.0012140691978856921,-0.0009364420548081398,-0.00004696007817983627
1761129469699905000,3.167905029296875,0.0014616560656577349,0.00009731319732964039,-0.000038928817957639694
1761129469719749600,3.18774951171875,0.0007449887343682349,-0.0039050127379596233,-0.0024989419616758823
1761129469739595800,3.207595703125,0.002847726223990321,-0.001103308517485857,-0.0012961812317371368
1761129469759441000,3.22744091796875,0.0006799683906137943,0.00038173282518982887,0.0018818238750100136
1761129469779286800,3.247286865234375,-0.00029084004927426577,-0.0010634732898324728,-0.00020914897322654724
1761129469799132000,3.2671318359375,-0.00025107653345912695,0.0010126526467502117,0.0007928069680929184
1761129469818976800,3.286976806640625,0.0008765293750911951,0.00033389381133019924,-0.0011645019985735416
1761129469838823000,3.306822998046875,-0.0007113319006748497,-0.0008253760170191526,-0.00262050935998559
1761129469858668000,3.32666796875,0.002367929555475712,0.0027024690061807632,0.0017490428872406483
1761129469878514200,3.34651416015625,0.0016794113907963037,-0.000955166295170784,0.0014058384113013744
1761129469898359000,3.366359130859375,0.0023746094666421413,0.001352469902485609,-0.0017415182664990425
1761129469918205000,3.386204833984375,0.00023018964566290379,0.0003493274562060833,-0.0003533517010509968
1761129469938050000,3.406050048828125,0.0010326147312298417,0.0005813618190586567,0.0012369528412818909
1761129469957896000,3.42589599609375,-0.0012806560844182968,0.003173079341650009,0.0008500893600285053
1761129469977741000,3.445740966796875,-0.0021738947834819555,-0.0004879194311797619,0.00004986021667718887
1761129469997587000,3.4655869140625,0.0016372010577470064,0.0012416229583323002,0.0006462419405579567
1761129470017432000,3.48543212890625,-0.000034945085644721985,-0.002606600057333708,-0.0034070140682160854
1761129470037278000,3.50527783203125,0.0006599688204005361,-0.0008876333013176918,-0.0004644053988158703
1761129470057123000,3.525123046875,0.0005107141332700849,0.0007599140517413616,0.0007531940937042236
1761129470076968000,3.544968017578125,0.002702950267121196,0.001623648451641202,-0.0012639560736715794
1761129470096814000,3.56481396484375,0.0005724620423279703,0.0001945698168128729,-0.0005334047600626945
1761129470116659200,3.5846591796875,-0.0011205924674868584,-0.0014563148142769933,0.003010059706866741
1761129470136505000,3.604505126953125,-0.002422587014734745,0.000636156415566802,-0.00047422992065548897
1761129470156350200,3.62435009765625,-0.0009558904566802084,-0.0011173277162015438,-0.0007282807491719723
1761129470176196000,3.644196044921875,-0.0003147761453874409,0.0015903683379292488,0.00041312631219625473
1761129470196041200,3.664041259765625,-0.0003066491917707026,0.0009487417992204428,0.0009734267368912697
1761129470215887000,3.68388720703125,-0.00012591102859005332,-0.0006913496181368828,-0.001322383526712656
1761129470235732000,3.70373193359375,-0.0020004711113870144,-0.0013869520043954253,-0.0001805610954761505
1761129470255578000,3.723578125,0.000790353340562433,-0.001232092035934329,-0.0014196215197443962
1761129470275423000,3.743423095703125,0.0021558927837759256,0.0006316984072327614,-0.000681090634316206
1761129470295268000,3.76326806640625,0.0023057651706039906,-0.0003481095191091299,-0.00005615130066871643
1761129470315114000,3.783114013671875,0.0006515166023746133,0.0004738764837384224,-0.0031060283072292805
1761129470334959000,3.802958984375,-0.0012587758246809244,-0.0004100364167243242,0.0010256837122142315
1761129470354805000,3.822804931640625,-0.0014453732874244452,0.0013861465267837048,0.0013813707046210766
1761129470374650000,3.842650146484375,0.0007895454182289541,0.0005248924717307091,0.0021155551075935364
1761129470394496000,3.86249609375,0.00109311961568892,-0.0008265350479632616,-0.00015096645802259445
1761129470414340900,3.8823408203125,-0.0009254353353753686,0.0018343024421483278,0.000443075317889452
1761129470434187300,3.902187255859375,-0.00041632342617958784,-0.0012868029298260808,0.0004144599661231041
1761129470454032000,3.922031982421875,-0.0016501897480338812,0.0002727715764194727,-0.0006572366692125797
1761129470473878300,3.941878173828125,0.0015811192570254207,0.0021290448494255543,-0.00022315094247460365
1761129470493723100,3.96172314453125,-0.00011128193000331521,0.0007043010555207729,0.000045598484575748444
1761129470513568300,3.981568359375,0.0009642913355492055,-0.0016283395234495401,-0.00006485590711236
1761129470533414100,4.0014140625,-0.00016235164366662502,-0.0012466378975659609,0.00010008690878748894
1761129470553259000,4.021259033203125,0.0009479318396188319,-0.00007656705565750599,0.0007678689435124397
1761129470573104000,4.041104248046875,0.00005175004480406642,0.0020219211000949144,0.0011259461753070354
1761129470592950000,4.060949951171875,-0.0031736749224364758,0.00023564323782920837,-0.0004588356241583824
1761129470612795100,4.080795166015625,-0.0030954848043620586,-0.0007080801296979189,0.00045235175639390945
1761129470632641000,4.10064111328125,0.0019399079028517008,-0.000017005251720547676,0.0026439824141561985
1761129470652486100,4.120486083984375,0.0023908873554319143,-0.00042956857942044735,-0.00006158929318189621
1761129470672332000,4.14033203125,0.00046706548891961575,0.00008455850183963776,-0.0010384772904217243
1761129470692177200,4.16017724609375,0.0008344131638295949,0.0006650188006460667,-0.00004308158531785011
1761129470712023000,4.18002294921875,0.0002731739077717066,0.0011364298406988382,-0.00018318649381399155
1761129470731868000,4.199867919921875,0.0007791097741574049,-0.002101460937410593,-0.0000956263393163681
1761129470751714000,4.219714111328125,0.0024886704050004482,0.0025224967394024134,-0.0007536318153142929
1761129470771559000,4.239558837890625,-0.0001920777140185237,-0.0019671134650707245,0.001195163931697607
1761129470791404000,4.259404052734375,-0.0021600243635475636,0.00040484918281435966,0.00025143474340438843
1761129470811250000,4.27925,0.0017038469668477774,-0.0005002140533179045,-0.0028412621468305588
1761129470831095000,4.299094970703125,-0.0002751830033957958,0.001475006341934204,0.00023573590442538261
1761129470850941000,4.31894091796875,-0.002387961372733116,-0.00006203982047736645,0.0002953391522169113
1761129470870786000,4.3387861328125,0.0008856556960381567,0.0013409436214715242,-0.0019535874016582966
1761129470890632200,4.358632080078125,0.0006114275311119854,0.0001861676573753357,-0.0008720117621123791
1761129470910477000,4.37847705078125,0.0007191185723058879,-0.0002524498850107193,0.00013585807755589485
1761129470930323200,4.3983232421875,-0.00041758647421374917,-0.0006238236092031002,-0.0003302660770714283
1761129470950168000,4.41816796875,0.0008427739376202226,0.0014573116786777973,-0.0007194238714873791
1761129470970014200,4.43801416015625,-0.00031824212055653334,0.0036254017613828182,-0.002576759085059166
1761129470989859000,4.457859130859375,-0.0007811035611666739,0.0016544417012482882,-0.002164545003324747
1761129471009704200,4.4777041015625,0.0005063374410383403,0.00016810675151646137,0.0021798633970320225
1761129471029550000,4.497550048828125,-0.0021840683184564114,-0.00017607957124710083,-0.0011125290766358376
1761129471049395200,4.517395263671875,-0.001271638786420226,0.0014875298365950584,0.0013032183051109314
1761129471069241000,4.537240966796875,-0.0015569166280329227,0.0016244244761765003,0.00043181469663977623
1761129471089086000,4.5570859375,0.001077375840395689,-0.0010751693043857813,0.000807478092610836
1761129471108932000,4.57693212890625,-0.00017146742902696133,0.0019999416545033455,-0.0022973562590777874
1761129471128777000,4.59677685546875,-0.0012895716354250908,0.00010861176997423172,-0.00023940298706293106
1761129471148623000,4.616623046875,-0.0007322885794565082,0.002017635852098465,-0.0004656934179365635
1761129471168468000,4.636468017578125,0.00010599696543067694,0.0015846211463212967,0.0003257161006331444
1761129471188313900,4.65631396484375,-0.00016301765572279692,0.00026350095868110657,0.0017610909417271614
1761129471208159000,4.676158935546875,0.00012006395263597369,-0.0005504516884684563,0.0010712258517742157
1761129471228004000,4.696004150390625,-0.001002654549665749,-0.0004234020598232746,-0.0013708891347050667
1761129471247850000,4.71585009765625,-0.0006481866003014147,-0.00041353050619363785,0.0007299664430320263
1761129471267694800,4.73569482421875,0.0011602723971009254,-0.0013508633710443974,-0.0016512544825673103
1761129471287541200,4.755541259765625,-0.001009932137094438,-0.0014499808894470334,-0.0007841195911169052
1761129471307386000,4.77538623046875,0.00048147194320335984,0.001933026360347867,0.0003098342567682266
1761129471327232000,4.79523193359375,0.0002975636743940413,0.00037082843482494354,-0.00020692916586995125
1761129471347077000,4.8150771484375,-0.0013234183425083756,-0.00038675754331052303,-0.00004377774894237518
1761129471366923000,4.834923095703125,-0.0008931139018386602,0.0010463856160640717,0.00013143708929419518
1761129471386768100,4.85476806640625,0.00020839466014876962,-0.002003285102546215,-0.000984500627964735
1761129471406614000,4.874614013671875,0.0004191382904537022,-0.0013538675848394632,0.0005110339261591434
1761129471426459100,4.894459228515625,-0.0009206886170431972,-0.0007740072906017303,-0.0011018551886081696
1761129471446304000,4.914303955078125,0.0006033677491359413,-0.0002988323103636503,-0.0015833000652492046
1761129471466150100,4.934150146484375,0.0027256417088210583,0.0006743869744241238,-0.000861121341586113
1761129471485995000,4.9539951171875,0.00044260447612032294,0.0005171240773051977,0.0026613175868988037
1761129471505841000,4.9738408203125,0.00023576192324981093,0.0006943978369235992,-0.0031010271050035954
1761129471525686000,4.99368603515625,0.00035339558962732553,-0.0024878564290702343,0.0015204115770757198
1761129471545532000,5.013531982421875,0.0011107856407761574,0.00045980350114405155,-0.0005108802579343319
1761129471565377000,5.033376953125,0.0005282158381305635,-0.0007633664645254612,-0.0003137029707431793
1761129471585223000,5.053222900390625,0.0009056109702214599,-0.0013093003071844578,-0.0007196692749857903
1761129471605068000,5.073068115234375,-0.00009338260861113667,-0.0007291771471500397,-0.001027989201247692
1761129471624914200,5.0929140625,-0.0008646721253171563,-0.003482529893517494,0.0003357823006808758
1761129471644759000,5.112759033203125,-0.0012949977535754442,0.002294481499120593,-0.0018891324289143085
1761129471664604000,5.13260400390625,-0.0012117072474211454,-0.0012585062067955732,-0.00045031681656837463
1761129471684450000,5.152449951171875,0.0005004920531064272,-0.0008543571457266808,-0.0011502979323267937
1761129471704295200,5.172295166015625,0.0007324359030462801,0.00024000671692192554,0.0008097183890640736
1761129471724141000,5.19214111328125,-0.002026964444667101,-0.0001812996342778206,-0.0007664430886507034
1761129471743986200,5.211986083984375,0.0016605035634711385,0.0009730905294418335,0.0012260228395462036
1761129471763832000,5.23183203125,-0.001444555353373289,-0.0015855792444199324,0.0017753802239894867
1761129471783677200,5.25167724609375,0.0005107388715259731,-0.00037767086178064346,0.0016631619073450565
1761129471803523000,5.271523193359375,0.0006307390285655856,0.0002618820872157812,0.0022350032813847065
1761129471823368200,5.2913681640625,-0.001159018836915493,0.00013361265882849693,0.0014280076138675213
1761129471843213000,5.311213134765625,-0.001518807839602232,0.0012909709475934505,-0.0020386003889143467
1761129471863058700,5.33105859375,0.0023859450593590736,-0.000025823712348937988,0.00032570958137512207
1761129471882903600,5.350903564453125,0.0012285809498280287,0.0012442434672266245,0.0004135468043386936
1761129471902749400,5.37074951171875,-0.0002760714269243181,0.00033941050060093403,-0.00010054744780063629
1761129471922594600,5.390594482421875,0.00031179841607809067,-0.0017436575144529343,-0.00022715749219059944
1761129471942440400,5.4104404296875,0.0008525620214641094,-0.0014441469684243202,-0.002223942894488573
1761129471962285600,5.43028564453125,-0.0013944272650405765,0.00048310449346899986,0.002054153475910425
1761129471982131500,5.45013134765625,0.0006473134853877127,0.00021895114332437515,0.00032733194530010223
1761129472001976600,5.4699765625,-0.0014524353900924325,0.0002721648197621107,0.00007656868547201157
1761129472021822500,5.489822509765625,-0.0009772258345037699,-0.001330832950770855,-0.00037221284583210945
1761129472041667600,5.50966748046875,-0.0014658591244369745,-0.0004360014572739601,0.0005424176342785358
1761129472061512400,5.529512451171875,-0.0018002274446189404,0.0007771034725010395,-0.002363898791372776
1761129472081358300,5.5493583984375,0.0027654364239424467,0.0004257147666066885,0.000590939074754715
1761129472101203500,5.569203369140625,0.00022664351854473352,-0.0005011558532714844,-0.00035278918221592903
1761129472121049300,5.58904931640625,0.0027737515047192574,0.001883410383015871,-0.00038954801857471466
1761129472140894500,5.60889453125,-0.0024344888515770435,-0.0014366086106747389,0.0003447309136390686
1761129472160740400,5.628740234375,-0.00026380299823358655,0.00144954863935709,0.0003166031092405319
1761129472180585500,5.64858544921875,-0.0023285357747226954,-0.0008760280907154083,-0.0007778857834637165
1761129472200431600,5.668431640625,0.0001892796135507524,0.000010200543329119682,-0.00002277316525578499
1761129472220276500,5.6882763671875,-0.000011399737559258938,-0.0002765369135886431,0.000508572906255722
1761129472240121300,5.708121337890625,-0.000941951060667634,-0.0006474643014371395,0.0009444481693208218
1761129472259967500,5.727967529296875,0.001434439793229103,-0.001500608865171671,-0.0010721501894295216
1761129472279812600,5.7478125,0.0002834161859937012,-0.00040150154381990433,-0.003567327279597521
1761129472299658500,5.767658447265625,-0.00031157740158960223,0.0002670243848115206,-0.00115579878911376
1761129472319503600,5.787503662109375,0.00011771585559472442,-0.0007887606043368578,-0.0014028428122401237
1761129472339349500,5.807349609375,-0.0019900824408978224,-0.00037404499016702175,0.0022179107181727886
1761129472359194600,5.827194580078125,-0.0008173970272764564,-0.0006083000916987658,0.000915168784558773
1761129472379040500,5.84704052734375,-0.0025895272847265005,-0.00021437322720885277,0.0008207736536860466
1761129472398885400,5.866885498046875,-0.00025429390370845795,0.0010433944407850504,0.002743762917816639
1761129472418730500,5.88673046875,0.0016960653010755777,-0.00031569390557706356,0.0012498730793595314
1761129472438576400,5.906576416015625,0.0029701958410441875,-0.0013263478176668286,0.0023229429498314857
1761129472458421500,5.92642138671875,-0.0009436619002372026,-0.0014264690689742565,0.0008330619893968105
1761129472478267400,5.946267333984375,0.001509997295215726,0.0024892156943678856,0.0028042930644005537
1761129472498112500,5.966112548828125,-0.0010296201799064875,0.0011786024551838636,0.00034488411620259285
1761129472517958400,5.98595849609375,0.00013882748316973448,-0.0004634987562894821,-0.0009645349346101284
1761129472537803500,6.005803466796875,-0.0012925330083817244,0.0016603225376456976,0.00036961957812309265
1761129472557649400,6.0256494140625,-0.000028188631404191256,0.0016141522210091352,-0.0008388091810047626
1761129472577494300,6.045494384765625,-0.0015521787572652102,0.002334859222173691,0.0019591334275901318
1761129472597339400,6.06533935546875,-0.00030170829268172383,-0.0013855508295819163,0.00010148761793971062
1761129472617185300,6.085185302734375,-0.004536209627985954,0.0004918084014207125,0.000871964730322361
1761129472637030400,6.105030517578125,-0.0005480577237904072,-0.0007104878313839436,0.0035767192021012306
1761129472656876500,6.12487646484375,-0.0007673402433283627,-0.0024375536013394594,-0.0020495355129241943
1761129472676721700,6.1447216796875,0.002044557360932231,0.0004124916158616543,0.000570337288081646
1761129472696567600,6.164567626953125,-0.0003622350050136447,0.0005053873173892498,-0.001325750257819891
1761129472716412700,6.18441259765625,-0.0012057323474436998,-0.001142130233347416,0.0009886529296636581
1761129472736258600,6.204258544921875,0.0005979679408483207,-0.0019610817544162273,-0.0006163301877677441
1761129472756103400,6.224103515625,-0.0002689816174097359,-0.00019646831788122654,0.0008544409647583961
1761129472775949600,6.243949462890625,-0.0007454071892425418,-0.0010110957082360983,-0.0014527607709169388
1761129472795794400,6.26379443359375,0.001099956687539816,0.0017298387829214334,-0.00036602234467864037
1761129472815639600,6.2836396484375,0.001144154230132699,-0.0010163257829844952,-0.001868249848484993
1761129472835485400,6.3034853515625,-0.000573320547118783,-0.001485637971200049,-0.0008219452574849129
1761129472855330600,6.32333056640625,0.0008610790828242898,0.002594619058072567,0.000749458558857441
1761129472875177000,6.343177001953125,0.0025615773629397154,-0.0013007238740101457,-0.0014561000280082226
1761129472895021800,6.363021728515625,-0.00000371481291949749,-0.0014176482800394297,-0.0022269957698881626
1761129472914868000,6.382867919921875,-0.0002797440974973142,0.0016289267223328352,-0.0011305203661322594
1761129472934712800,6.402712890625,0.0007968018762767315,0.000327330082654953,-0.001100695226341486
1761129472954558000,6.422557861328125,0.0012258440256118774,0.00026142806746065617,0.000742659904062748
1761129472974403800,6.44240380859375,0.00028635049238801,0.001355642918497324,-0.0018739872612059116
1761129472994249000,6.4622490234375,0.0014453234616667032,-0.0009053668472915888,-0.0012771324254572392
1761129473014095000,6.48209521484375,0.0027796062640845776,0.0010336705017834902,0.004566083662211895
1761129473033940000,6.50193994140625,-0.00006109860260039568,-0.0005267728120088577,-0.0007232651114463806
1761129473053786000,6.5217861328125,0.001291297492571175,-0.00009518535807728767,0.000201529823243618
1761129473073631000,6.541630859375,-0.000500792171806097,0.0022759123239666224,0.0006396640092134476
1761129473093477000,6.56147705078125,0.00018396711675450206,0.0014724961947649717,0.00020945211872458458
1761129473113322000,6.581322021484375,0.002096791984513402,0.000495758606120944,0.0002849102020263672
1761129473133167900,6.60116796875,0.0005162055604159832,-0.0007914577145129442,-0.0016977721825242043
1761129473153013000,6.621012939453125,-0.0007464147638529539,-0.0006153569556772709,-0.002435293048620224
1761129473172858000,6.640858154296875,-0.002347138710319996,-0.001961479429155588,-0.000380663201212883
1761129473192704000,6.6607041015625,-0.00006134092109277844,0.0005494388751685619,0.0010577039793133736
1761129473212548900,6.680548828125,-0.0012892268132418394,0.001686897361651063,-0.0014073345810174942
1761129473232395000,6.70039501953125,0.0004243190633133054,-0.0008810530416667461,-0.0013605444692075253
1761129473252240000,6.720239990234375,-0.0013052616268396378,0.0016435075085610151,0.00198737857863307
1761129473272086000,6.7400859375,0.0006113463314250112,0.002260905457660556,-0.0008138869889080524
1761129473291931000,6.759930908203125,0.0007109223515726626,0.00021333037875592709,0.0015210029669106007
1761129473311776800,6.77977685546875,-0.00027723732637241483,0.0025578862987458706,-0.0011763102374970913
1761129473331622000,6.799621826171875,0.0017783018993213773,-0.00015305657871067524,0.00026500923559069633
1761129473351467000,6.819467041015625,-0.0017966937739402056,-0.0007283040322363377,-0.00074018444865942
1761129473371313000,6.83931298828125,0.000967024068813771,-0.001393042504787445,0.0008485410362482071
1761129473391157800,6.85915771484375,-0.00270521710626781,-0.0003284818958491087,-0.0009259912185370922
1761129473411004200,6.879004150390625,-0.0010692093055695295,0.0020497851073741913,0.0011450126767158508
1761129473430849000,6.89884912109375,-0.0007612912449985743,-0.0011344103841111064,0.00040080351755023
1761129473450695000,6.91869482421875,-0.0016980438958853483,-0.0011616155970841646,0.00005166791379451752
1761129473470540000,6.9385400390625,-0.0013234448852017522,0.0003382940776646137,0.0013547544367611408
1761129473490386000,6.958385986328125,-0.0019265565788373351,-0.0009642904624342918,0.0006561828777194023
1761129473510231000,6.97823095703125,0.00001565192360430956,-0.0007302521262317896,-0.001865774393081665
1761129473530076000,6.998075927734375,-0.000358977064024657,-0.0002529444172978401,0.0018133199773728848
1761129473549922000,7.017922119140625,-0.0032743478659540415,-0.001387406955473125,0.00013186736032366753
1761129473569767000,7.037766845703125,0.0015281783416867256,0.00048779393546283245,0.0007417383603751659
1761129473589613000,7.057613037109375,-0.0018124438356608152,-0.0002448882441967726,0.0016103214584290981
1761129473609458000,7.0774580078125,0.00013467005919665098,0.0013773171231150627,0.0025053913705050945
1761129473629303800,7.0973037109375,-0.0007744768518023193,0.0026425360701978207,-0.004396665841341019
1761129473649149000,7.11714892578125,0.004160533659160137,-0.010806270875036716,0.015511571429669857
1761129473668994000,7.136994140625,-0.0023370604030787945,0.0004389793612062931,0.0007319357246160507
1761129473688840000,7.15683984375,0.0035383272916078568,0.015751581639051437,0.015907879918813705
1761129473708684800,7.176684814453125,-0.001570545369759202,-0.002862032037228346,0.0016568098217248917
1761129473728531000,7.196531005859375,-0.0006978466990403831,-0.003632481675595045,-0.0013248631730675697
1761129473748375800,7.216375732421875,0.0012007018085569143,-0.002426639199256897,0.0009057261049747467
1761129473768222000,7.236221923828125,-0.001755488570779562,0.0009103426709771156,-0.0014814524911344051
1761129473788066800,7.25606689453125,0.002052200259640813,-0.0011750884586945176,0.0002471241168677807
1761129473807913000,7.275912841796875,-0.0018421267159283161,0.0008059260435402393,-0.0019195820204913616
1761129473827758000,7.295758056640625,0.0020510051399469376,-0.0008062161505222321,0.0009763408452272415
1761129473847603200,7.315603271484375,-0.0008418436627835035,0.00029271445237100124,-0.00020401319488883018
1761129473867449000,7.335448974609375,-0.0012714873300865293,-0.002234411658719182,-0.000756729394197464
1761129473887293700,7.355293701171875,-0.0006300695240497589,0.0006540322210639715,0.0004909220151603222
1761129473907140000,7.37514013671875,-0.001493901014328003,0.0003088708035647869,-0.000010319985449314117
1761129473926985000,7.39498486328125,0.00028485216898843646,-0.000495790271088481,-0.00004544109106063843
1761129473946831000,7.4148310546875,-0.00011539243860170245,0.0011718811001628637,-0.0008092354983091354
1761129473966676000,7.434676025390625,0.0004371886025182903,-0.0002493164502084255,0.002651540096849203
1761129473986521900,7.45452197265625,0.001597600057721138,-0.00004668673500418663,0.0006935093551874161
1761129474006367000,7.474366943359375,0.00269799935631454,0.00003675301559269428,0.0003961934708058834
1761129474026212000,7.494212158203125,-0.0014448217116296291,-0.000807641539722681,-0.002844418864697218
1761129474046058000,7.51405810546875,0.001492489711381495,-0.00046588480472564697,-0.0004974915646016598
1761129474065902800,7.53390283203125,0.0006305404240265489,0.0005774323362857103,0.0018035215325653553
1761129474085749000,7.5537490234375,-0.0020165289752185345,-0.000020550796762108803,-0.0006276099011301994
1761129474105593900,7.57359375,-0.0020195920951664448,0.0023777447640895844,-0.0007019452750682831
1761129474125440000,7.59343994140625,0.0007322747260332108,0.0008465375285595655,0.002052254043519497
1761129474145284900,7.613284912109375,0.0018797561060637236,-0.00031947228126227856,-0.0010020127519965172
1761129474165130800,7.633130859375,-0.001995391445234418,0.0018473900854587555,0.00016627833247184753
1761129474184976000,7.652975830078125,0.001345849595963955,-0.00028248713351786137,0.0015470944344997406
1761129474204821000,7.672821044921875,0.0013805041089653969,-0.0004481400828808546,-0.000661203172057867
1761129474224667000,7.6926669921875,-0.0014025554992258549,0.0009574191644787788,0.0005773184821009636
1761129474244511700,7.71251171875,-0.0008309221011586487,0.0015645148232579231,0.0008165175095200539
1761129474264358100,7.732358154296875,-0.0011441854294389486,-0.0003956505097448826,0.0005632122047245502
1761129474284202800,7.75220263671875,0.0008162574376910925,-0.00021840212866663933,-0.0025183474645018578
1761129474304049000,7.772048828125,-0.0018752609612420201,-0.000692782225087285,0.0010631154291331768
1761129474323894000,7.79189404296875,-0.0005797623889520764,-0.0005169447977095842,-0.00027903029695153236
1761129474343740000,7.811739990234375,-0.0005188734503462911,0.0011735705193132162,0.0003799791447818279
1761129474363585000,7.8315849609375,-0.00009898556163534522,-0.0006514941342175007,0.00193032156676054
1761129474383430000,7.851429931640625,0.0006455191178247333,-0.0015359371900558472,0.002466633915901184
1761129474403276000,7.871276123046875,-0.0007175017381086946,0.0014689266681671143,-0.0008673020638525486
1761129474423121000,7.891120849609375,0.0004161772667430341,0.00010691746138036251,0.0007699648849666119
1761129474442967000,7.910967041015625,-0.0009731557802297175,0.0004919227212667465,0.0007852292619645596
1761129474462812000,7.93081201171875,-0.000501610804349184,-0.00198234710842371,0.0013850554823875427
1761129474482657800,7.95065771484375,0.0008896941435523331,-0.00006647827103734016,0.0022183735854923725
1761129474502503000,7.9705029296875,-0.0001086860429495573,0.0014006546698510647,0.002466848585754633
1761129474522348000,7.99034814453125,0.0018673483282327652,-0.00007305643521249294,0.0010472023859620094
1761129474542194000,8.01019384765625,-0.0002147212508134544,0.00024114642292261124,0.0008190944790840149
1761129474562038800,8.030038818359374,-0.000028663373086601496,-0.00024045794270932674,-0.0008938279934227467
1761129474581885000,8.049885009765624,0.0010760689619928598,0.0008411107119172812,-0.000256506260484457
1761129474601729800,8.069729736328124,-0.0008800699142739177,0.0034195829648524523,0.0001733456738293171
1761129474621576000,8.089575927734375,0.00148901273496449,0.0003100563772022724,0.001471240073442459
1761129474641420800,8.1094208984375,0.000024435401428490877,0.0006008511409163475,0.0012306580320000648
1761129474661267000,8.129266845703125,-0.0005153469974175096,-0.001535168499685824,0.0003076666034758091
1761129474681111800,8.14911181640625,0.0008694467833265662,-0.0004419239703565836,0.0029797879979014397
1761129474700957000,8.16895703125,-0.000043383974116295576,-0.00008680811151862144,-0.0006675189360976219
1761129474720803000,8.188802978515625,0.0004680243437178433,-0.0026206914335489273,0.0006793146021664143
1761129474740648000,8.20864794921875,0.0007204592693597078,-0.0004086000844836235,0.001250450499355793
1761129474760494000,8.228494140625,-0.0013530495343729854,-0.000534621300175786,-0.0018207002431154251
1761129474780339000,8.2483388671875,-0.00010116148041561246,-0.0009494866244494915,-0.001944416668266058
1761129474800185000,8.26818505859375,0.0006048069917596877,-0.0012035457184538245,-0.001881773117929697
1761129474820030000,8.288030029296875,-0.00007793930126354098,-0.0018551676766946912,0.0015940694138407707
1761129474839875000,8.307875,0.0021956705022603273,0.0017916252836585045,0.0002955417148768902
1761129474859721000,8.327720947265625,-0.00006636104080826044,0.003135290229693055,-0.000413697212934494
1761129474879565600,8.347565673828125,0.0012518622679635882,0.00011637224815785885,-0.00034878263249993324
1761129474899411500,8.367411376953125,0.0003177819889970124,0.0005946245510131121,-0.00003207335248589516
1761129474919256600,8.387256591796875,0.00361141050234437,-0.0005545374006032944,0.0007599792443215847
1761129474939102500,8.4071025390625,-0.0007375412969850004,0.002653118222951889,-0.002106655389070511
1761129474958947300,8.426947265625,0.0012507329229265451,-0.00002442370168864727,-0.002284369897097349
1761129474978793500,8.44679345703125,-0.0006691431626677513,-0.002363363513723016,0.0007025781087577343
1761129474998638300,8.466638427734376,0.0007562072132714093,0.0004414173308759928,-0.000577184371650219
1761129475018483500,8.4864833984375,0.0003931371611543,-0.0013863827334716916,0.0018355329521000385
1761129475038329300,8.506329345703126,-0.00018677389016374946,0.00007340358570218086,0.0007586670108139515
1761129475058174500,8.526174560546876,0.0014495962532237172,0.002695013303309679,0.0006798803806304932
1761129475078020400,8.546020263671876,0.000643777777440846,-0.00045170029625296593,-0.0005417568609118462
1761129475097865200,8.565865234375,0.0014980726409703493,-0.00035145762376487255,0.0006004031747579575
1761129475117711600,8.585711669921874,-0.0016241967678070068,-0.0008087132591754198,0.0010590320453047752
1761129475137556200,8.60555615234375,0.0004124388797208667,0.0009787874296307564,0.0007386733777821064
1761129475157402600,8.625402587890624,0.0026246923953294754,-0.00010517495684325695,-0.0014152266085147858
1761129475177247500,8.64524755859375,-0.0021489951759576797,-0.0018675834871828556,0.00183199904859066
1761129475197092600,8.665092529296874,-0.0011696814326569438,0.0008499240502715111,0.000021096784621477127
1761129475216938500,8.6849384765625,-0.0008268500096164644,0.00016285176388919353,-0.00043749110773205757
1761129475236783600,8.70478369140625,-0.001133030978962779,0.000278885243460536,0.0015199030749499798
1761129475256629500,8.72462939453125,-0.00024946994381025434,0.0005750106647610664,0.0023342869244515896
1761129475276474400,8.744474365234375,-0.0014622696908190846,-0.0026392554864287376,-0.00015259161591529846
1761129475296320500,8.764320556640625,0.0007835128344595432,0.0013905654195696115,0.0008483780547976494
1761129475316165400,8.784165283203125,-0.00046413735253736377,0.00028256489895284176,-0.001801422331482172
1761129475336011500,8.804011474609375,0.000262807821854949,-0.0013440039474517107,0.0010915342718362808
1761129475355856400,8.8238564453125,-0.0015599268954247236,-0.0004088510759174824,-0.0002459706738591194
1761129475375701500,8.843701416015625,-0.000011412892490625381,-0.0002556114923208952,0.0007821996696293354
1761129475395547400,8.86354736328125,-0.0001656868844293058,-0.00021436996757984161,0.00022682128474116325
1761129475415392500,8.883392578125,-0.002620532177388668,-0.00037487223744392395,0.00148686021566391
1761129475435238400,8.90323828125,-0.0012478631688281894,-0.001957623055204749,0.0019243042916059494
1761129475455083300,8.923083251953125,0.0015067353378981352,-0.001366181648336351,-0.0021400069817900658
1761129475474929400,8.942929443359375,0.0005204402841627598,-0.00044894241727888584,0.0012360154651105404
1761129475494774300,8.962774169921875,0.000819066190160811,0.0004889620468020439,-0.00011573638767004013
1761129475514619400,8.982619384765625,-0.0016899219481274486,-0.001189968315884471,0.001964715775102377
1761129475534465300,9.00246533203125,-0.0007367274956777692,-0.0008879555389285088,0.000828408170491457
1761129475554310400,9.022310302734375,-0.0011568672489374876,-0.0013318494893610477,0.0012261602096259594
1761129475574156500,9.042156494140626,0.0010430460097268224,-0.0021212343126535416,0.0011592009104788303
1761129475594001400,9.06200146484375,0.0017990624764934182,-0.0003814874216914177,-0.001460446510463953
1761129475613847600,9.08184765625,-0.0004151139291934669,-0.00004769768565893173,0.0019770353101193905
1761129475633692400,9.1016923828125,-0.0014363588998094201,-0.00027079624123871326,0.001524199265986681
1761129475653538600,9.12153857421875,-0.0012566456571221352,-0.0023274936247617006,0.000025088433176279068
1761129475673383400,9.141383544921876,-0.0005285747465677559,0.0011642628815025091,0.0019261143170297146
1761129475693228500,9.161228515625,0.0015622093342244625,-0.0012233688030391932,0.00012102723121643066
1761129475713074400,9.181074462890624,-0.0004967318382114172,0.0013061091303825378,0.0015537072904407978
1761129475732919600,9.20091943359375,-0.0006613954901695251,-0.0003922961186617613,-0.0006614462472498417
1761129475752765400,9.220765380859374,0.0009312452748417854,0.0009705848060548306,-0.0022054235450923443
1761129475772610300,9.2406103515625,-0.0026384801603853703,0.001183507964015007,0.0016917302273213863
1761129475792456400,9.26045654296875,0.002669277135282755,-0.001562040881253779,0.0009078090079128742
1761129475812301300,9.28030126953125,-0.0018711753655225039,-0.002352430485188961,-0.0001752292737364769
1761129475832146400,9.300146484375,0.0003710794262588024,0.000048773130401968956,0.0020015761256217957
1761129475851992300,9.319992431640625,0.0019496940076351166,0.00083540054038167,0.0016404706984758377
1761129475871838000,9.339837890625,-0.002573692239820957,0.00043058115988969803,-0.0009365272708237171
1761129475891683800,9.359683837890625,0.0020709289237856865,-0.00046967784874141216,0.001941249705851078
1761129475911528700,9.37952880859375,-0.00045197532745078206,0.00019688508473336697,-0.0017586732283234596
1761129475931375000,9.399375,0.0014381528599187732,-0.0012836555251851678,0.001927330158650875
1761129475951220000,9.419219970703125,-0.0007487382972612977,-0.0008051004260778427,-0.0033612074330449104
1761129475971066000,9.439066162109375,0.000006227288395166397,-0.002193133346736431,0.00473887100815773
1761129475990911000,9.458910888671875,0.0011432613246142864,0.0021354903001338243,0.0004280628636479378
1761129476010756000,9.478756103515625,-0.000421634700614959,0.0008039872627705336,-0.0000010919757187366486
1761129476030602000,9.49860205078125,0.0003604581579566002,0.001062485622242093,0.0030037404503673315
1761129476050447000,9.518447021484375,0.0006090833339840174,0.0004401851911097765,0.0018585803918540478
1761129476070293000,9.53829296875,0.002163606695830822,0.001954364823177457,0.0050987559370696545
1761129476090137900,9.558137939453125,-0.0015898525016382337,0.0006528699304908514,0.0010665287263691425
1761129476109984000,9.57798388671875,-0.000495678570587188,0.00003952742554247379,0.0002521490678191185
1761129476129828900,9.597828857421876,0.0006626187823712826,-0.002713815774768591,-0.001088535413146019
1761129476149674000,9.617674072265626,0.0009165216470137239,-0.0012258206261321902,0.001973528880625963
1761129476169519900,9.637519775390626,-0.00016084901290014386,0.0010961941443383694,0.0014961943961679935
1761129476189365000,9.657364990234376,-0.0033742222003638744,0.000191219849511981,-0.0008641327731311321
1761129476209211000,9.6772109375,-0.0005843503749929368,-0.00034051481634378433,0.00034689297899603844
1761129476229056000,9.697055908203126,-0.0016184572596102953,-0.0018619938055053353,-0.0013242485001683235
