time,seconds_elapsed,z,y,x
1761131951491970300,0.13197021484375,0.7823419570922852,-1.5622150897979736,-2.0377941131591797
1761131951521975300,0.161975341796875,0.7823333740234375,-1.5621116161346436,-2.037891387939453
1761131951531975400,0.171975341796875,0.7823305130004883,-1.562087059020996,-2.0379111766815186
1761131951541975600,0.1819755859375,0.7819299697875977,-1.5608885288238525,-2.036848783493042
1761131951551975700,0.1919755859375,0.7811222076416016,-1.5583992004394531,-2.034797430038452
1761131951561975600,0.2019755859375,0.7800045013427734,-1.554861068725586,-2.032107353210449
1761131951571975700,0.2119755859375,0.7785730361938477,-1.5501620769500732,-2.0289130210876465
1761131951581975600,0.2219755859375,0.7768850326538086,-1.544538974761963,-2.025244951248169
1761131951591975700,0.2319755859375,0.775019645690918,-1.5382585525512695,-2.0212562084198
1761131951601975600,0.2419755859375,0.7729740142822266,-1.5313317775726318,-2.0168800354003906
1761131951611975700,0.2519755859375,0.7707805633544922,-1.5237689018249512,-2.0123584270477295
1761131951621973500,0.261973388671875,0.7684974670410156,-1.5157368183135986,-2.0078418254852295
1761131951631973400,0.271973388671875,0.7661018371582031,-1.507310390472412,-2.00301456451416
1761131951641973500,0.281973388671875,0.7636394500732422,-1.4985162019729614,-1.9981930255889893
1761131951651973400,0.291973388671875,0.7610969543457031,-1.489366054534912,-1.9932310581207275
1761131951661973500,0.301973388671875,0.7585420608520508,-1.4801493883132935,-1.9881954193115234
1761131951671973600,0.3119736328125,0.7559070587158203,-1.4705582857131958,-1.9830327033996582
1761131951681973500,0.321973388671875,0.753260612487793,-1.46083402633667,-1.9778845310211182
1761131951691973600,0.3319736328125,0.7505865097045898,-1.4509227275848389,-1.9727206230163574
1761131951701973500,0.341973388671875,0.7479104995727539,-1.440969705581665,-1.9674952030181885
1761131951711973600,0.3519736328125,0.7452192306518555,-1.4309465885162354,-1.9621531963348389
1761131951721973500,0.361973388671875,0.2708606719970703,-1.6865559816360474,-0.910545825958252
1761131951731973600,0.3719736328125,0.26097965240478516,-1.6572421789169312,-0.8859790563583374
1761131951741973500,0.381973388671875,0.25110530853271484,-1.656610131263733,-0.8733901977539062
1761131951751973600,0.3919736328125,0.2484140396118164,-1.6463288068771362,-0.8679945468902588
1761131951761973500,0.401973388671875,0.2696714401245117,-1.6431149244308472,-0.8674942255020142
1761131951771973600,0.4119736328125,0.2646036148071289,-1.6400219202041626,-0.876360297203064
1761131951781973500,0.421973388671875,0.23954486846923828,-1.564727544784546,-0.8372633457183838
1761131951791973600,0.4319736328125,0.22203826904296875,-1.5421335697174072,-0.8077008724212646
1761131951801973500,0.441973388671875,0.22643566131591797,-1.495510458946228,-0.7973390817642212
1761131951811973600,0.4519736328125,0.2001018524169922,-1.4346731901168823,-0.7630070447921753
1761131951821972700,0.46197265625,0.1980609893798828,-1.3953090906143188,-0.7382622957229614
1761131951831972900,0.471972900390625,0.1891937255859375,-1.3367646932601929,-0.6967103481292725
1761131951841972700,0.48197265625,0.17591381072998047,-1.2877496480941772,-0.6721272468566895
1761131951851972600,0.49197265625,0.1677989959716797,-1.231711983680725,-0.6450506448745728
1761131951861972700,0.50197265625,0.16242599487304688,-1.1659570932388306,-0.6108763217926025
1761131951871972600,0.51197265625,0.14783859252929688,-1.1241514682769775,-0.5887209177017212
1761131951881972700,0.52197265625,0.12882232666015625,-1.0608394145965576,-0.5593345165252686
1761131951891972600,0.53197265625,0.1157674789428711,-0.9914762377738953,-0.5172224044799805
1761131951901972700,0.54197265625,0.0909872055053711,-0.8725892305374146,-0.45774731040000916
1761131951911972900,0.551972900390625,0.078277587890625,-0.7866798639297485,-0.42946121096611023
1761131951921973500,0.561973388671875,0.07242202758789062,-0.7282736301422119,-0.3957686126232147
1761131951931973600,0.5719736328125,0.06345844268798828,-0.6508766412734985,-0.351302832365036
1761131951941973500,0.581973388671875,0.06308555603027344,-0.5825466513633728,-0.31266024708747864
1761131951951973600,0.5919736328125,0.051957130432128906,-0.527775764465332,-0.2749405801296234
1761131951961973500,0.601973388671875,0.03941535949707031,-0.4616878032684326,-0.25219419598579407
1761131951971973600,0.6119736328125,0.044472694396972656,-0.4127212166786194,-0.2274167239665985
1761131951981973500,0.621973388671875,0.05981254577636719,-0.3734336495399475,-0.17390581965446472
1761131951991973600,0.6319736328125,0.04224967956542969,-0.3504745662212372,-0.18065398931503296
1761131952001973500,0.641973388671875,0.03471851348876953,-0.31184327602386475,-0.15807881951332092
1761131952011973600,0.6519736328125,0.022798538208007812,-0.2860342562198639,-0.13974913954734802
1761131952021972700,0.66197265625,0.025726318359375,-0.2244722843170166,-0.12183400988578796
1761131952031972600,0.67197265625,0.02190399169921875,-0.23042802512645721,-0.12076851725578308
1761131952041972700,0.68197265625,0.03989601135253906,-0.20356842875480652,-0.11666545271873474
1761131952051972600,0.69197265625,0.019788742065429688,-0.2081623673439026,-0.09707567095756531
1761131952061972700,0.70197265625,0.03573131561279297,-0.1904812902212143,-0.10241040587425232
1761131952071972600,0.71197265625,0.015877723693847656,-0.1767851859331131,-0.08939120173454285
1761131952081972700,0.72197265625,0.024843215942382812,-0.17142875492572784,-0.07463958859443665
1761131952091972600,0.73197265625,0.036285400390625,-0.1384785771369934,-0.07970482110977173
1761131952101972700,0.74197265625,0.026258468627929688,-0.1426759511232376,-0.07814303040504456
1761131952111972600,0.75197265625,0.02346515655517578,-0.1356247216463089,-0.08179032802581787
1761131952121973500,0.761973388671875,0.020711898803710938,-0.1388256996870041,-0.06894835829734802
1761131952131973400,0.771973388671875,0.029966354370117188,-0.14016908407211304,-0.0683673620223999
1761131952141973500,0.781973388671875,0.02009296417236328,-0.12042246758937836,-0.08948585391044617
1761131952151973400,0.791973388671875,0.022200584411621094,-0.1248513013124466,-0.053076475858688354
1761131952161973500,0.801973388671875,0.026735305786132812,-0.09864559769630432,-0.07449150085449219
1761131952171973400,0.811973388671875,0.024112701416015625,-0.10164256393909454,-0.06736311316490173
1761131952181973500,0.821973388671875,0.02630329132080078,-0.10257162153720856,-0.0557255744934082
1761131952191973600,0.8319736328125,0.030900001525878906,-0.0965796560049057,-0.03695759177207947
1761131952201973500,0.841973388671875,0.009180068969726562,-0.10050149261951447,-0.04714152216911316
1761131952211973400,0.851973388671875,0.02099132537841797,-0.11181223392486572,-0.04303640127182007
1761131952221972700,0.86197265625,0.0136566162109375,-0.10879826545715332,-0.05590376257896423
1761131952231972600,0.87197265625,0.018301963806152344,-0.07242777943611145,-0.044850051403045654
1761131952241972700,0.88197265625,0.018172264099121094,-0.06985828280448914,-0.04346463084220886
1761131952251972600,0.89197265625,0.02044963836669922,-0.06979140639305115,-0.04473608732223511
1761131952261972700,0.90197265625,0.017943382263183594,-0.08194155991077423,-0.03874051570892334
1761131952271972600,0.91197265625,0.022624969482421875,-0.0845090001821518,-0.06398811936378479
1761131952281972700,0.92197265625,0.01773548126220703,-0.08003692328929901,-0.03900021314620972
1761131952291972600,0.93197265625,0.005664825439453125,-0.08517336845397949,-0.05225902795791626
1761131952301972700,0.94197265625,0.034295082092285156,-0.07596336305141449,-0.055938929319381714
1761131952311972600,0.95197265625,0.031800270080566406,-0.08833658695220947,-0.0332181453704834
1761131952321973500,0.961973388671875,0.01495361328125,-0.06976015865802765,-0.051378607749938965
1761131952331973600,0.9719736328125,0.03162384033203125,-0.04398155212402344,-0.016868650913238525
1761131952341973500,0.981973388671875,0.03394794464111328,-0.06878487765789032,-0.042477160692214966
1761131952351973600,0.9919736328125,0.01711750030517578,-0.06960929930210114,-0.02978101372718811
1761131952361973500,1.001973388671875,0.012265205383300781,-0.06348471343517303,-0.029052674770355225
1761131952371973600,1.0119736328125,0.01698780059814453,-0.05964274704456329,-0.03076881170272827
1761131952381973500,1.021973388671875,0.01692962646484375,-0.08231619000434875,-0.04210364818572998
1761131952391973600,1.0319736328125,0.021653175354003906,-0.07129058241844177,-0.010301709175109863
1761131952401973500,1.041973388671875,0.033570289611816406,-0.060473158955574036,-0.038472384214401245
1761131952411973600,1.0519736328125,0.03590679168701172,-0.05915252864360809,-0.028323829174041748
1761131952421972700,1.06197265625,0.01909160614013672,-0.0579598993062973,-0.034842610359191895
1761131952431972600,1.07197265625,0.007067680358886719,-0.05202542245388031,-0.012684494256973267
1761131952441972700,1.08197265625,0.028565406799316406,-0.05092202126979828,-0.04325494170188904
1761131952451972600,1.09197265625,0.002178192138671875,-0.049887701869010925,-0.040200501680374146
1761131952461972700,1.10197265625,0.009317398071289062,-0.0585051029920578,-0.018141746520996094
1761131952471972600,1.11197265625,0.03082275390625,-0.05272723734378815,-0.02010604739189148
1761131952481972700,1.12197265625,0.018810272216796875,-0.04453758895397186,-0.026880860328674316
1761131952491972600,1.13197265625,0.021164894104003906,-0.048505112528800964,-0.02158677577972412
1761131952501972700,1.14197265625,0.011548995971679688,-0.05967545509338379,-0.02349373698234558
1761131952511972600,1.15197265625,0.028268814086914062,-0.04432101547718048,-0.02308511734008789
1761131952521973500,1.161973388671875,0.02344512939453125,-0.050694987177848816,-0.027484804391860962
1761131952531973600,1.1719736328125,0.028202056884765625,-0.06184849143028259,-0.0176180899143219
1761131952541973500,1.181973388671875,0.013806343078613281,-0.05873259902000427,-0.04124027490615845
1761131952551973600,1.1919736328125,0.011370658874511719,-0.04109279811382294,-0.012010961771011353
1761131952561973500,1.201973388671875,0.018520355224609375,-0.030709028244018555,-0.026007235050201416
1761131952571973600,1.2119736328125,0.016099929809570312,-0.05167397856712341,-0.020925521850585938
1761131952581973500,1.221973388671875,0.013674736022949219,-0.04374296963214874,-0.025359809398651123
1761131952591973600,1.2319736328125,0.028008460998535156,-0.03102695941925049,-0.027418464422225952
1761131952601973200,1.24197314453125,0.023192405700683594,-0.04237298667430878,-0.024695247411727905
1761131952611973000,1.25197314453125,0.0303497314453125,-0.058499544858932495,-0.03404107689857483
1761131952621972200,1.26197216796875,0.02313995361328125,-0.043509140610694885,-0.024134963750839233
1761131952631972400,1.271972412109375,0.008747100830078125,-0.02841085195541382,-0.02150094509124756
1761131952641972200,1.28197216796875,0.020692825317382812,-0.03745819628238678,-0.023557335138320923
1761131952651972400,1.291972412109375,0.020671844482421875,-0.05849221348762512,-0.018545299768447876
1761131952661972500,1.301972412109375,0.0038852691650390625,-0.03869412839412689,-0.011035710573196411
1761131952671972400,1.311972412109375,0.020623207092285156,-0.026084691286087036,-0.013318270444869995
1761131952681972500,1.321972412109375,0.01820659637451172,-0.03508652746677399,-0.02744680643081665
1761131952691972400,1.331972412109375,0.013398170471191406,-0.044168680906295776,-0.01766592264175415
1761131952701972500,1.341972412109375,0.018163681030273438,-0.03156621754169464,-0.031820058822631836
1761131952711972000,1.35197216796875,0.010962486267089844,-0.03591926395893097,-0.019637852907180786
1761131952721973000,1.361972900390625,0.010945320129394531,-0.04263421893119812,-0.03624811768531799
1761131952731972900,1.371972900390625,0.027683258056640625,-0.025428488850593567,-0.02396947145462036
1761131952741973000,1.381972900390625,0.015692710876464844,-0.027476683259010315,0.005060404539108276
1761131952751972900,1.391972900390625,0.02525615692138672,-0.04867348074913025,-0.025903642177581787
1761131952761973000,1.401972900390625,0.027632713317871094,-0.03862600028514862,-0.004187911748886108
1761131952771972900,1.411972900390625,0.02283191680908203,-0.03590615093708038,-0.00887194275856018
1761131952781973000,1.421972900390625,0.01802825927734375,-0.01630684733390808,-0.023126184940338135
1761131952791972900,1.431972900390625,0.018013954162597656,-0.02556721866130829,-0.030105382204055786
1761131952801973000,1.441972900390625,0.029966354370117188,-0.032315418124198914,-0.017922520637512207
1761131952811972900,1.451972900390625,0.02037525177001953,-0.02478356659412384,-0.005810141563415527
1761131952821972000,1.461971923828125,0.0107879638671875,-0.02449791133403778,-0.02246043086051941
1761131952831972000,1.47197216796875,0.015563011169433594,-0.02645222842693329,-0.012809962034225464
1761131952841972000,1.481971923828125,0.02034282684326172,-0.023818477988243103,-0.015148818492889404
1761131952851972000,1.49197216796875,0.010751724243164062,-0.030576929450035095,-0.017449527978897095
1761131952861972000,1.501971923828125,0.025106430053710938,-0.044708192348480225,-0.029268592596054077
1761131952871972000,1.51197216796875,0.025094032287597656,-0.03476537764072418,-0.005227178335189819
1761131952881972000,1.521971923828125,0.017896652221679688,-0.051120057702064514,-0.00989919900894165
1761131952891972000,1.53197216796875,0.017882347106933594,-0.04102763533592224,-0.021824568510055542
1761131952901972500,1.541972412109375,0.0011053085327148438,-0.03353692591190338,-0.031077682971954346
1761131952911972400,1.551972412109375,0.0010929107666015625,-0.03323175013065338,-0.030970633029937744
1761131952921973200,1.56197314453125,0.015440940856933594,-0.03283397853374481,-0.04031220078468323
1761131952931973400,1.571973388671875,0.01541900634765625,-0.013158023357391357,-0.04003217816352844
1761131952945258800,1.5852587890625,0.005822181701660156,-0.029583826661109924,-0.0061540305614471436
1761131952955259000,1.5952587890625,0.022568702697753906,-0.03400552272796631,-0.006034255027770996
1761131952965258800,1.6052587890625,0.02973461151123047,-0.021709218621253967,-0.015351533889770508
1761131952975259000,1.6152587890625,0.008169174194335938,-0.028436943888664246,-0.03669017553329468
1761131952985258800,1.6252587890625,0.02491283416748047,-0.028210923075675964,-0.01724383234977722
1761131952995259000,1.6352587890625,0.010533332824707031,-0.02537401020526886,-0.017151683568954468
1761131953005258800,1.6452587890625,0.027283668518066406,-0.03234294056892395,-0.01939094066619873
1761131953015259000,1.6552587890625,-0.0014600753784179688,-0.012859255075454712,-0.0048825740814208984
1761131953025258200,1.66525830078125,0.022475242614746094,-0.03659972548484802,-0.033554255962371826
1761131953035258000,1.675258056640625,0.020066261291503906,-0.02197258174419403,-0.006969034671783447
1761131953045257700,1.6852578125,0.012872695922851562,-0.038442522287368774,-0.014024704694747925
1761131953055257900,1.6952578125,0.022439002990722656,-0.021377697587013245,-0.02588832378387451
1761131953065257700,1.7052578125,0.0056667327880859375,-0.02832464873790741,-0.028089553117752075
1761131953075257900,1.7152578125,-0.006316184997558594,-0.03525066375732422,-0.006352126598358154
1761131953085257700,1.7252578125,0.02958202362060547,-0.023037239909172058,-0.030043095350265503
1761131953095257900,1.7352578125,0.019994735717773438,-0.022787556052207947,-0.0011806786060333252
1761131953105257700,1.7452578125,0.012803077697753906,-0.017662793397903442,-0.02268245816230774
1761131953115257900,1.7552578125,0.012792587280273438,-0.017396584153175354,-0.02257135510444641
1761131953125258500,1.765258544921875,0.02235889434814453,-0.0051942914724349976,-0.015234559774398804
1761131953135258600,1.775258544921875,0.02474212646484375,-0.012070417404174805,-0.03428199887275696
1761131953145258500,1.785258544921875,0.029520034790039062,-0.02380990982055664,-0.0030028820037841797
1761131953155258600,1.795258544921875,0.0055675506591796875,-0.023597076535224915,-0.014797508716583252
1761131953165258800,1.8052587890625,0.015130996704101562,-0.011406153440475464,-0.03371688723564148
1761131953175258600,1.815258544921875,0.010334014892578125,-0.03513948619365692,0.004706889390945435
1761131953185258800,1.8252587890625,0.010324478149414062,-0.030140385031700134,-0.0023396313190460205
1761131953195258600,1.835258544921875,0.024679183959960938,-0.005911692976951599,0.00016298890113830566
1761131953205258800,1.8452587890625,0.010310173034667969,-0.017834141850471497,-0.04523298144340515
1761131953215258600,1.855258544921875,0.017485618591308594,-0.012840822339057922,-0.011636823415756226
1761131953225257700,1.8652578125,0.017479896545410156,-0.015056818723678589,-0.025979995727539062
1761131953235257900,1.8752578125,0.015077590942382812,-0.0172269344329834,0.000431746244430542
1761131953245257700,1.8852578125,0.03183174133300781,-0.041009366512298584,-0.016283750534057617
1761131953255257900,1.8952578125,0.010274887084960938,-0.012068226933479309,-0.013753503561019897
1761131953265257700,1.9052578125,0.036604881286621094,-0.021516412496566772,-0.018436670303344727
1761131953275257900,1.9152578125,0.022231101989746094,-0.023669078946113586,0.0031650960445404053
1761131953285257700,1.9252578125,0.010255813598632812,0.002788916230201721,-0.023123443126678467
1761131953295257900,1.9352578125,0.024614334106445312,-0.028188556432724,-0.023019641637802124
1761131953305257700,1.9452578125,0.017425537109375,-0.02566339075565338,-0.01571252942085266
1761131953315257900,1.9552578125,0.029388427734375,-0.0063790977001190186,-0.027558833360671997
1761131953325258800,1.9652587890625,0.019804000854492188,-0.01573619246482849,-0.029873758554458618
1761131953335258600,1.975258544921875,0.022192955017089844,-0.008370563387870789,-0.010681331157684326
1761131953345259000,1.985259033203125,0.01739978790283203,-0.01060532033443451,-0.010658174753189087
1761131953355259000,1.9952587890625,0.017393112182617188,-0.017583653330802917,0.0037634968757629395
1761131953365259000,2.005259033203125,0.017388343811035156,-0.012616083025932312,-0.01297450065612793
1761131953375259000,2.0152587890625,0.012592315673828125,-0.019612863659858704,-0.00571325421333313
1761131953385259000,2.025259033203125,0.022164344787597656,-0.014756396412849426,-0.0032271742820739746
1761131953395259000,2.0352587890625,0.03412914276123047,-0.014684289693832397,-0.0007021129131317139
1761131953405259000,2.045259033203125,0.01736927032470703,-0.012232929468154907,-0.015072077512741089
1761131953415259100,2.055259033203125,0.03173351287841797,0.002242535352706909,-0.017536580562591553
1761131953425258200,2.06525830078125,0.007786750793457031,-0.019199907779693604,-0.010285943746566772
1761131953435258000,2.075258056640625,0.0077838897705078125,-0.023871630430221558,0.0064827799797058105
1761131953445258200,2.08525830078125,0.012569427490234375,-0.021358028054237366,-0.010269612073898315
1761131953455258000,2.095258056640625,-0.0017986297607421875,-0.004460066556930542,-0.017468243837356567
1761131953465258200,2.10525830078125,0.01735401153564453,-0.023577049374580383,-0.017470329999923706
1761131953475258000,2.115258056640625,0.007770538330078125,0.005279958248138428,-0.017384588718414307
1761131953485258200,2.12525830078125,0.017342567443847656,-0.013712778687477112,-0.012531816959381104
1761131953495258000,2.135258056640625,0.022129058837890625,-0.01599562168121338,-0.014976173639297485
1761131953505258200,2.14525830078125,0.014937400817871094,-0.01816369593143463,-0.017275333404541016
1761131953515258000,2.155258056640625,0.02211761474609375,-0.018156200647354126,-0.01719692349433899
1761131953525259000,2.165259033203125,0.031691551208496094,-0.018035411834716797,-0.014775723218917847
1761131953535259000,2.1752587890625,0.014927864074707031,-0.008374154567718506,-0.005148768424987793
1761131953545259000,2.185259033203125,0.019713401794433594,-0.008256703615188599,0.009224802255630493
1761131953555259100,2.195259033203125,0.024496078491210938,-0.029588371515274048,-0.01471942663192749
1761131953565259000,2.205259033203125,0.0244903564453125,-0.029444321990013123,-0.014655232429504395
1761131953575259100,2.215259033203125,0.014911651611328125,-0.012660905718803406,-0.00502091646194458
1761131953585259000,2.225259033203125,0.014905929565429688,-0.012444958090782166,-0.005023390054702759
1761131953595259100,2.235259033203125,0.010112762451171875,-0.01000279188156128,-0.03842663764953613
1761131953605259000,2.245259033203125,0.012501716613769531,-0.03377659618854523,0.004748433828353882
1761131953615259100,2.255259033203125,0.010103225708007812,-0.02406059205532074,-0.00961199402809143
1761131953625258200,2.26525830078125,0.02207183837890625,-0.023981928825378418,-0.021570265293121338
1761131953635258000,2.275258056640625,0.0029096603393554688,-0.02381022274494171,-0.011853307485580444
1761131953645258200,2.28525830078125,0.0029039382934570312,-0.02127017080783844,-0.004587382078170776
1761131953655258000,2.295258056640625,0.01486968994140625,-0.01398216187953949,-0.021257460117340088
1761131953665258200,2.30525830078125,0.010074615478515625,-0.018549591302871704,-0.021221548318862915
1761131953675258000,2.315258056640625,0.019646644592285156,-0.016106516122817993,-0.016339540481567383
1761131953685258200,2.32525830078125,0.01245880126953125,-0.006347760558128357,-0.013905346393585205
1761131953695258000,2.335258056640625,0.02921009063720703,-0.027760818600654602,0.0006236135959625244
1761131953705258200,2.34525830078125,0.012446403503417969,-0.0036586225032806396,-0.011325240135192871
1761131953715258000,2.355258056640625,0.03638267517089844,-0.022739127278327942,0.005564391613006592
1761131953725259000,2.365259033203125,0.010046005249023438,-0.037032753229141235,0.0054979026317596436
1761131953735259100,2.375259033203125,0.022011756896972656,-0.010533735156059265,-0.01598682999610901
1761131953745259000,2.385259033203125,0.0291900634765625,-0.031945303082466125,0.0007798075675964355
1761131953755259100,2.395259033203125,0.03876495361328125,0.004082188010215759,0.003163456916809082
1761131953765259000,2.405259033203125,0.012427330017089844,-0.02932228147983551,-0.011233091354370117
1761131953775259100,2.415259033203125,0.029184341430664062,-0.012466728687286377,-0.025607138872146606
1761131953785259000,2.425259033203125,0.02917766571044922,-0.012320652604103088,-0.025523483753204346
1761131953795259100,2.435259033203125,0.0219879150390625,-0.002649083733558655,-0.008595645427703857
1761131953805259000,2.445259033203125,0.012410163879394531,0.0022869110107421875,-0.020639479160308838
1761131953815259100,2.455259033203125,0.02677154541015625,-0.004810929298400879,-0.02298372983932495
1761131953825258200,2.46525830078125,0.014795303344726562,-0.007061094045639038,-0.008554399013519287
1761131953835258000,2.475258056640625,0.01479339599609375,0.004915416240692139,-0.015678048133850098
1761131953845258200,2.48525830078125,0.010003089904785156,-0.009372428059577942,0.0034678280353546143
1761131953855258000,2.495258056640625,0.014787673950195312,-0.0021802783012390137,-0.006011068820953369
1761131953865258200,2.50525830078125,0.029157638549804688,0.00022041797637939453,-0.018121451139450073
1761131953875258000,2.515258056640625,0.03155040740966797,-0.006957635283470154,-0.01566767692565918
1761131953885258200,2.52525830078125,0.014789581298828125,-0.011689826846122742,-0.013277649879455566
1761131953895258000,2.535258056640625,0.0147857666015625,-0.01155264675617218,-0.013271063566207886
1761131953905258200,2.54525830078125,0.014780044555664062,0.0005432069301605225,-0.0012340545654296875
1761131953915258000,2.555258056640625,0.033934593200683594,-0.030510157346725464,-0.018059760332107544
1761131953925259000,2.565259033203125,0.04350852966308594,-0.01372574269771576,0.00593915581703186
1761131953935259100,2.575259033203125,0.03392982482910156,-0.011306554079055786,-0.017945945262908936
1761131953945259000,2.585259033203125,0.017168045043945312,-0.018405675888061523,-0.013106822967529297
1761131953955259100,2.595259033203125,0.017164230346679688,-0.02077457308769226,-0.008240461349487305
1761131953965259000,2.605259033203125,0.024343490600585938,-0.001627907156944275,-0.012910038232803345
1761131953975259100,2.615259033203125,0.024341583251953125,-0.018239706754684448,-0.02016550302505493
1761131953985259000,2.625259033203125,0.019547462463378906,-0.020527780055999756,-0.015288710594177246
1761131953995259100,2.635259033203125,0.026727676391601562,-0.010758280754089355,-0.012934207916259766
1761131954005259000,2.645259033203125,0.01714801788330078,-0.025022536516189575,-0.015299201011657715
1761131954015259100,2.655259033203125,0.009959220886230469,-0.02493979036808014,-0.027175337076187134
1761131954025258200,2.66525830078125,0.0003795623779296875,-0.03436119854450226,-0.015220195055007935
1761131954035258000,2.675258056640625,0.01713275909423828,-0.0007114112377166748,-0.00791311264038086
1761131954045258200,2.68525830078125,0.017127037048339844,-0.0006956011056900024,-0.017312705516815186
1761131954055258000,2.695258056640625,0.02669811248779297,-0.0029114335775375366,-0.005298972129821777
1761131954065258200,2.70525830078125,0.017116546630859375,-0.014705285429954529,-0.0005086362361907959
1761131954075258000,2.715258056640625,0.007536888122558594,-0.00024211406707763672,0.001895904541015625
1761131954085258200,2.72525830078125,0.01710987091064453,-0.014574527740478516,-0.00996127724647522
1761131954095258000,2.735258056640625,0.014712333679199219,-0.002558112144470215,-0.007512807846069336
1761131954105258200,2.74525830078125,0.021894454956054688,-0.016920283436775208,-0.01944369077682495
1761131954115258000,2.755258056640625,0.014706611633300781,-0.023946404457092285,-0.012256890535354614
1761131954125259000,2.765259033203125,0.026674270629882812,0.00004716217517852783,-0.019326716661453247
1761131954135259000,2.7752587890625,0.017099380493164062,-0.01913440227508545,-0.014592856168746948
1761131954145259000,2.785259033203125,0.0242767333984375,-0.014240816235542297,0.004649728536605835
1761131954155259000,2.7952587890625,0.01948261260986328,0.0027328580617904663,-0.009716451168060303
1761131954165259000,2.805259033203125,0.0146942138671875,0.002768605947494507,-0.004929542541503906
1761131954175259000,2.8152587890625,0.021877288818359375,-0.016314491629600525,-0.014571607112884521
1761131954185259000,2.825259033203125,0.014692306518554688,-0.016238048672676086,-0.005001962184906006
1761131954195259100,2.835259033203125,0.014691352844238281,-0.013822570443153381,0.002219557762145996
1761131954205259000,2.845259033203125,0.017081260681152344,-0.018579885363578796,-0.024001240730285645
1761131954215259000,2.8552587890625,0.017083168029785156,-0.032840922474861145,0.004600316286087036
1761131954235258000,2.875258056640625,0.01946735382080078,-0.02301858365535736,-0.007277190685272217
1761131954245258200,2.88525830078125,0.01946258544921875,-0.022821396589279175,-0.007278650999069214
1761131954255258000,2.895258056640625,0.026643753051757812,-0.005964145064353943,-0.012077420949935913
1761131954265258200,2.90525830078125,0.014670372009277344,-0.02255275845527649,-0.014528542757034302
1761131954275258000,2.915258056640625,0.029033660888671875,0.003894105553627014,-0.0026068389415740967
1761131954285258200,2.92525830078125,0.014665603637695312,-0.012836232781410217,-0.016876161098480225
1761131954295258000,2.935258056640625,0.019449234008789062,-0.01267784833908081,-0.007296383380889893
1761131954305258200,2.94525830078125,0.019449234008789062,-0.012640431523323059,-0.0072994232177734375
1761131954315258000,2.955258056640625,0.019449234008789062,-0.02223685383796692,-0.014479488134384155
1761131954325259000,2.965259033203125,0.012263298034667969,0.006596565246582031,-0.00006553530693054199
1761131954335259000,2.9752587890625,0.03141307830810547,-0.031556203961372375,-0.019234448671340942
1761131954345259000,2.985259033203125,0.01704692840576172,-0.007555022835731506,-0.00964289903640747
1761131954355259000,2.9952587890625,0.0122528076171875,-0.021757617592811584,-0.007186025381088257
1761131954365259000,3.005259033203125,0.02182769775390625,-0.007333427667617798,0.0047994256019592285
1761131954375259000,3.0152587890625,0.017038345336914062,-0.016855135560035706,-0.014378488063812256
1761131954385259000,3.025259033203125,0.031398773193359375,-0.023912236094474792,-0.011918693780899048
1761131954395259100,3.035259033203125,0.021818161010742188,-0.004693388938903809,0.0072869062423706055
1761131954405259000,3.045259033203125,0.026605606079101562,-0.021355897188186646,-0.014270693063735962
1761131954415259100,3.055259033203125,0.033782005310058594,-0.0235709547996521,-0.021411538124084473
1761131954425258200,3.06525830078125,0.03378009796142578,-0.023438215255737305,-0.021465003490447998
1761131954435258400,3.07525830078125,0.00983428955078125,0.007825642824172974,-0.007073760032653809
1761131954445258200,3.08525830078125,0.02898406982421875,-0.025535747408866882,0.00011247396469116211
1761131954455258400,3.09525830078125,0.019403457641601562,0.012947320938110352,-0.021453917026519775
1761131954465258200,3.10525830078125,0.017004966735839844,0.008243516087532043,-0.016594678163528442
1761131954475258000,3.115258056640625,0.017000198364257812,0.008387565612792969,-0.016530513763427734
1761131954485258200,3.12525830078125,0.0193939208984375,-0.020396649837493896,-0.026062607765197754
1761131954495258000,3.135258056640625,0.026574134826660156,0.0035723745822906494,0.00034999847412109375
1761131954505258200,3.14525830078125,0.01699542999267578,-0.013182654976844788,-0.011582225561141968
1761131954515258000,3.155258056640625,0.019384384155273438,-0.015431836247444153,-0.004336118698120117
1761131954525259000,3.165259033203125,0.009806632995605469,-0.0034973472356796265,-0.009080380201339722
1761131954535259100,3.175259033203125,0.01219940185546875,-0.000986725091934204,0.002878814935684204
1761131954545259000,3.185259033203125,0.024164199829101562,-0.010437697172164917,-0.004217267036437988
1761131954555259100,3.195259033203125,0.016979217529296875,-0.0007843524217605591,0.0053962767124176025
1761131954565259000,3.205259033203125,0.02176952362060547,-0.010315164923667908,0.005294531583786011
1761131954575259100,3.215259033203125,0.024164199829101562,0.01121346652507782,-0.006674677133560181
1761131954585259000,3.225259033203125,0.024161338806152344,0.011200562119483948,-0.006593585014343262
1761131954595259100,3.235259033203125,-0.0021724700927734375,0.003940552473068237,-0.008980035781860352
1761131954605259000,3.245259033203125,0.016979217529296875,-0.003255128860473633,-0.016102313995361328
1761131954615259100,3.255259033203125,0.026556968688964844,-0.003260567784309387,-0.018534153699874878
1761131954625258200,3.26525830078125,0.024164199829101562,0.0063650161027908325,0.0005363225936889648
1761131954635258400,3.27525830078125,0.036133766174316406,-0.012801334261894226,-0.006564915180206299
1761131954645258200,3.28525830078125,0.03134441375732422,0.01362583041191101,-0.01618930697441101
1761131954655258400,3.29525830078125,0.021768569946289062,0.018464162945747375,-0.018666893243789673
1761131954665258200,3.30525830078125,0.02176380157470703,0.018569201231002808,-0.01859867572784424
1761131954675258400,3.31525830078125,0.01697063446044922,-0.01725420355796814,0.0006642043590545654
1761131954685258200,3.32525830078125,0.026546478271484375,-0.0004399120807647705,0.01021641492843628
1761131954695258400,3.33525830078125,0.021759033203125,-0.0051956623792648315,0.014963686466217041
1761131954705258200,3.34525830078125,0.02654743194580078,0.009165853261947632,-0.0017924904823303223
1761131954715258000,3.355258056640625,0.02415180206298828,-0.017188474535942078,0.010200411081314087
1761131954725259000,3.365259033203125,0.0145721435546875,-0.002777665853500366,-0.023243427276611328
1761131954735259100,3.375259033203125,0.014574050903320312,-0.002745389938354492,-0.023305624723434448
1761131954745259000,3.385259033203125,0.014575004577636719,-0.019563749432563782,0.012614190578460693
1761131954755259100,3.395259033203125,0.009787559509277344,-0.014798611402511597,0.005394458770751953
1761131954765259000,3.405259033203125,0.02414989471435547,-0.014682084321975708,0.005403310060501099
1761131954775259100,3.415259033203125,0.033728599548339844,-0.009918630123138428,-0.0042303502559661865
1761131954785259000,3.425259033203125,0.012181282043457031,-0.007545173168182373,-0.0113888680934906
1761131954795259100,3.435259033203125,0.021758079528808594,-0.0003629922866821289,0.014948099851608276
1761131954805259000,3.445259033203125,0.00739288330078125,0.0020147860050201416,-0.016156136989593506
1761131954815259100,3.455259033203125,0.021759986877441406,-0.0004580467939376831,-0.0017823576927185059
1761131954825258200,3.46525830078125,0.021759986877441406,-0.0004564821720123291,-0.0017834007740020752
1761131954835258400,3.47525830078125,0.01936817169189453,-0.012439250946044922,0.0005143284797668457
1761131954845258200,3.48525830078125,0.014580726623535156,-0.005224019289016724,-0.023468852043151855
1761131954855258000,3.495258056640625,0.016977310180664062,0.0020061135292053223,-0.0020450055599212646
1761131954865258200,3.50525830078125,0.028947830200195312,0.006795942783355713,-0.013996094465255737
1761131954875258000,3.515258056640625,0.024164199829101562,-0.0027430355548858643,-0.014175832271575928
1761131954885258200,3.52525830078125,0.009799957275390625,0.0068797767162323,-0.028642743825912476
1761131954895258000,3.535258056640625,0.01698017120361328,-0.00025738775730133057,-0.009434878826141357
1761131954905258200,3.54525830078125,0.007401466369628906,-0.014507904648780823,-0.014233618974685669
1761131954915258400,3.55525830078125,0.014584541320800781,-0.0002018064260482788,-0.019015491008758545
1761131954925259000,3.565259033203125,0.0050067901611328125,-0.012188524007797241,-0.011770457029342651
1761131954935259100,3.575259033203125,0.01218414306640625,-0.00009390711784362793,-0.01888623833656311
1761131954945259000,3.585259033203125,0.00978851318359375,-0.012003332376480103,-0.006902962923049927
1761131954955259100,3.595259033203125,0.0002117156982421875,-0.016794025897979736,-0.0069010257720947266
1761131954965259000,3.605259033203125,0.024150848388671875,0.00967639684677124,0.00026923418045043945
1761131954975259100,3.615259033203125,0.007390022277832031,-0.011865615844726562,-0.016431480646133423
1761131954985259000,3.625259033203125,0.033725738525390625,-0.011869028210639954,-0.021238058805465698
1761131954995259100,3.635259033203125,0.021755218505859375,-0.016637608408927917,-0.00926932692527771
1761131955005259000,3.645259033203125,0.009781837463378906,0.007380858063697815,-0.01406484842300415
1761131955015259100,3.655259033203125,0.014568328857421875,-0.011711910367012024,-0.014051705598831177
1761131955025258200,3.66525830078125,0.007384300231933594,-0.026052117347717285,-0.004418015480041504
1761131955035258000,3.675258056640625,0.012170791625976562,0.0003635138273239136,-0.006800472736358643
1761131955045258200,3.68525830078125,0.01935291290283203,0.019533202052116394,-0.028368502855300903
1761131955055258000,3.695258056640625,0.01935291290283203,0.009950116276741028,-0.009207934141159058
1761131955065258200,3.70525830078125,0.01216888427734375,0.009936109185218811,-0.01872381567955017
1761131955075258000,3.715258056640625,0.021744728088378906,-0.0020506083965301514,-0.0042961835861206055
1761131955085258200,3.72525830078125,0.009770393371582031,0.009986400604248047,-0.006639271974563599
1761131955095258000,3.735258056640625,0.004979133605957031,-0.01864619553089142,-0.018620669841766357
1761131955105258200,3.74525830078125,0.03370952606201172,-0.00903269648551941,-0.009046047925949097
1761131955115258000,3.755258056640625,0.024126052856445312,0.007858112454414368,0.0030487775802612305
1761131955125259000,3.765259033203125,0.026515960693359375,0.015089467167854309,-0.025587469339370728
1761131955135259100,3.775259033203125,0.02651214599609375,-0.00874878466129303,-0.006386071443557739
1761131955145259000,3.785259033203125,0.021724700927734375,-0.003962099552154541,-0.006405740976333618
1761131955155259100,3.795259033203125,0.028903961181640625,0.007979437708854675,-0.006303757429122925
1761131955165259000,3.805259033203125,0.0025682449340820312,-0.006328985095024109,-0.01590636372566223
1761131955175259100,3.815259033203125,0.004963874816894531,-0.003995642066001892,-0.01352536678314209
1761131955185259000,3.825259033203125,0.026511192321777344,-0.011138930916786194,0.0008355975151062012
1761131955195259100,3.835259033203125,0.0097503662109375,0.010466039180755615,-0.015928655862808228
1761131955205259000,3.845259033203125,0.019326210021972656,-0.015887200832366943,-0.02067500352859497
1761131955215259100,3.855259033203125,0.0265045166015625,0.005727589130401611,0.008127093315124512
1761131955225258200,3.86525830078125,0.014535903930664062,-0.01343180239200592,-0.013479411602020264
1761131955235258000,3.875258056640625,0.02171611785888672,0.0033691078424453735,0.00571015477180481
1761131955245258200,3.88525830078125,0.01453399658203125,-0.02046838402748108,-0.015945494174957275
1761131955255258000,3.895258056640625,0.01932239532470703,-0.006086140871047974,-0.01117795705795288
1761131955265258200,3.90525830078125,0.012142181396484375,0.0011461973190307617,-0.016050070524215698
1761131955275258000,3.915258056640625,0.021721839904785156,0.010676473379135132,-0.02570122480392456
1761131955285258200,3.92525830078125,0.024115562438964844,0.010675862431526184,0.015000581741333008
1761131955295258000,3.935258056640625,0.02172088623046875,-0.008437350392341614,-0.011319786310195923
1761131955305258200,3.94525830078125,0.021718978881835938,-0.008396923542022705,-0.011303961277008057
1761131955315258000,3.955258056640625,0.009747505187988281,-0.013132274150848389,-0.01374197006225586
1761131955325259000,3.965259033203125,0.0073490142822265625,-0.005822330713272095,0.0007080435752868652
1761131955335259100,3.975259033203125,0.014531135559082031,-0.008185595273971558,0.0006684064865112305
1761131955345259000,3.985259033203125,0.009744644165039062,-0.01532052457332611,-0.009011656045913696
1761131955355259000,3.9952587890625,0.016925811767578125,0.0014435797929763794,-0.013761460781097412
1761131955365259000,4.005259033203125,0.024107933044433594,-0.012846261262893677,-0.020971328020095825
1761131955375259100,4.015259033203125,0.019318580627441406,-0.003230765461921692,-0.006610006093978882
1761131955385259000,4.025259033203125,0.028891563415527344,-0.000771939754486084,-0.011345982551574707
1761131955395259000,4.0352587890625,0.02649688720703125,-0.012771755456924438,-0.0040618181228637695
1761131955405259000,4.045259033203125,0.014523506164550781,-0.027078449726104736,-0.004067927598953247
1761131955415259100,4.055259033203125,0.014522552490234375,-0.0006296038627624512,0.01024627685546875
1761131955425258200,4.06525830078125,0.014517784118652344,-0.007743522524833679,-0.0016333460807800293
1761131955435258000,4.075258056640625,0.03127479553222656,0.0067613571882247925,0.005574643611907959
1761131955445258200,4.08525830078125,0.026480674743652344,-0.02427704632282257,-0.015882164239883423
1761131955455258000,4.095258056640625,0.0025348663330078125,-0.00978870689868927,-0.018230050802230835
1761131955465258200,4.10525830078125,0.02647876739501953,0.009303420782089233,-0.006271868944168091
1761131955475258000,4.115258056640625,0.01450347900390625,0.01412247121334076,-0.018147975206375122
1761131955485258000,4.125258056640625,0.009716987609863281,0.009363815188407898,0.003297656774520874
1761131955495258000,4.135258056640625,0.004924774169921875,-0.007308632135391235,-0.01337161660194397
1761131955505258000,4.145258056640625,0.02886962890625,0.0022375136613845825,0.0008987486362457275
1761131955515258000,4.155258056640625,0.019296646118164062,-0.0025289207696914673,-0.008837252855300903
1761131955525259000,4.165259033203125,0.026479721069335938,-0.016856729984283447,-0.008861571550369263
1761131955535259000,4.1752587890625,0.016902923583984375,-0.004922688007354736,-0.0016553997993469238
1761131955545259000,4.185259033203125,0.007328033447265625,-0.021652936935424805,-0.004130184650421143
1761131955555259000,4.1952587890625,0.0073299407958984375,-0.0001805126667022705,-0.011306732892990112
1761131955565259000,4.205259033203125,0.019298553466796875,0.0069725364446640015,-0.011204183101654053
1761131955575259000,4.2152587890625,0.019296646118164062,0.0022044330835342407,-0.013580113649368286
1761131955585259000,4.225259033203125,0.02169322967529297,-0.012186244130134583,-0.018404334783554077
1761131955595259000,4.2352587890625,0.014510154724121094,-0.01699286699295044,-0.0064108967781066895
1761131955605259000,4.245259033203125,0.021691322326660156,-0.002510964870452881,-0.013605505228042603
1761131955615259000,4.2552587890625,0.014502525329589844,-0.0024052858352661133,0.0008275210857391357
1761131955625258200,4.26525830078125,0.021683692932128906,-0.007149502635002136,-0.006300091743469238
1761131955635258000,4.275258056640625,0.026468276977539062,-0.00472654402256012,-0.0085982084274292
1761131955645258200,4.28525830078125,0.02646636962890625,0.009643524885177612,-0.0037504732608795166
1761131955655258000,4.295258056640625,0.016890525817871094,-0.019070163369178772,-0.010953694581985474
1761131955665258200,4.30525830078125,0.009707450866699219,0.00019137561321258545,0.000927656888961792
1761131955675258000,4.315258056640625,0.02407073974609375,0.01457984745502472,-0.020583003759384155
1761131955685258200,4.32525830078125,0.036040306091308594,0.00025679171085357666,-0.0013938844203948975
1761131955695258000,4.335258056640625,0.026465415954589844,-0.00696796178817749,-0.020583003759384155
1761131955705258200,4.34525830078125,0.02167797088623047,0.00750201940536499,0.0008355677127838135
1761131955715258000,4.355258056640625,0.021677017211914062,-0.016418397426605225,-0.006308406591415405
1761131955725259000,4.365259033203125,0.04322242736816406,-0.016450926661491394,-0.0038306117057800293
1761131955735259000,4.3752587890625,0.012098312377929688,0.0003454536199569702,0.0033284127712249756
1761131955745259000,4.385259033203125,0.021677017211914062,-0.002071574330329895,-0.0014978647232055664
1761131955755259100,4.395259033203125,0.01688861846923828,0.007518649101257324,0.0008570253849029541
1761131955765259000,4.405259033203125,0.03364276885986328,0.007628977298736572,0.010519027709960938
1761131955775259100,4.415259033203125,0.0025196075439453125,-0.011509224772453308,-0.00867566466331482
1761131955785259000,4.425259033203125,0.026460647583007812,-0.011413723230361938,-0.030253112316131592
1761131955795259100,4.435259033203125,0.021668434143066406,0.0053750574588775635,-0.022974848747253418
1761131955805259000,4.445259033203125,0.012088775634765625,0.0030259937047958374,-0.013343602418899536
1761131955815259100,4.455259033203125,0.012085914611816406,0.0030499249696731567,-0.013285636901855469
1761131955825258200,4.46525830078125,0.014479637145996094,-0.018514245748519897,-0.010849803686141968
1761131955835258000,4.475258056640625,0.026449203491210938,-0.0041092634201049805,-0.018016159534454346
1761131955845258200,4.48525830078125,0.02645111083984375,-0.020875543355941772,-0.0037086308002471924
1761131955855258000,4.495258056640625,0.021660804748535156,0.010330840945243835,-0.006092935800552368
1761131955865258200,4.50525830078125,0.021660804748535156,-0.020813286304473877,0.008274316787719727
1761131955875258000,4.515258056640625,0.02405548095703125,-0.0016096234321594238,-0.0013864338397979736
1761131955885258200,4.52525830078125,0.014481544494628906,0.0007034242153167725,-0.018177270889282227
1761131955895258000,4.535258056640625,0.021661758422851562,0.0032003074884414673,-0.015734165906906128
1761131955905258200,4.54525830078125,0.02405071258544922,-0.027894452214241028,-0.041954219341278076
1761131955915258000,4.555258056640625,0.031229019165039062,0.0009238570928573608,-0.013134241104125977
1761131955925259000,4.565259033203125,-0.002292633056640625,0.001025468111038208,0.0012598037719726562
1761131955935259100,4.575259033203125,0.019250869750976562,-0.01087963581085205,-0.015426844358444214
1761131955945259000,4.585259033203125,0.02164745330810547,-0.0012548267841339111,-0.02510705590248108
1761131955955259100,4.595259033203125,0.009676933288574219,-0.008513405919075012,-0.008320003747940063
1761131955965259000,4.605259033203125,0.014461517333984375,0.027466297149658203,-0.0010655522346496582
1761131955975259000,4.6152587890625,0.01685619354248047,-0.006143927574157715,-0.008179426193237305
1761131955985259000,4.625259033203125,0.012063980102539062,-0.013168781995773315,0.015765994787216187
1761131955995259000,4.6352587890625,0.0024890899658203125,-0.001220613718032837,-0.017790675163269043
1761131956005259000,4.645259033203125,0.02882671356201172,-0.0011908560991287231,-0.02268126606941223
1761131956015259000,4.6552587890625,0.01924896240234375,0.022720307111740112,0.003737032413482666
1761131956025258200,4.66525830078125,0.021638870239257812,0.0036741048097610474,0.0014303326606750488
1761131956035258400,4.67525830078125,0.02642536163330078,0.006089836359024048,-0.012917399406433105
1761131956045258200,4.68525830078125,0.021636009216308594,-0.005917787551879883,-0.005690246820449829
1761131956055258400,4.69525830078125,0.01685047149658203,-0.0011529624462127686,0.015820592641830444
1761131956065258200,4.70525830078125,0.01445770263671875,0.010795414447784424,-0.022524148225784302
1761131956075258400,4.71525830078125,0.02403545379638672,0.001122787594795227,-0.003340691328048706
1761131956085258200,4.72525830078125,0.021643638610839844,0.0010982751846313477,-0.02013641595840454
1761131956095258400,4.73525830078125,0.009675025939941406,-0.010974332690238953,-0.0034058690071105957
1761131956105258200,4.74525830078125,0.026430130004882812,0.00833939015865326,-0.010565757751464844
1761131956115258400,4.75525830078125,0.014454841613769531,-0.001208975911140442,0.020655125379562378
1761131956125259300,4.76525927734375,0.01206207275390625,-0.0035893917083740234,0.008644580841064453
1761131956135259100,4.775259033203125,-0.0070896148681640625,-0.003612041473388672,-0.010546565055847168
1761131956145259300,4.78525927734375,0.01445770263671875,-0.013151884078979492,0.003795057535171509
1761131956155259100,4.795259033203125,0.000091552734375,0.0013054907321929932,-0.01301276683807373
1761131956165259300,4.80525927734375,0.012064933776855469,-0.02986183762550354,-0.005844086408615112
1761131956175259100,4.815259033203125,0.026432037353515625,0.006080716848373413,-0.0035524070262908936
1761131956185259300,4.82525927734375,0.026432037353515625,0.0036683231592178345,-0.010712534189224243
1761131956195259100,4.835259033203125,0.01685619354248047,0.003626018762588501,-0.0035445988178253174
1761131956205259300,4.84525927734375,0.014466285705566406,0.0011952072381973267,-0.010835736989974976
1761131956215259100,4.855259033203125,0.00489044189453125,-0.013192802667617798,-0.02521759271621704
1761131956225258200,4.86525830078125,0.014463424682617188,-0.0035126954317092896,-0.006036669015884399
1761131956235258400,4.87525830078125,0.026437759399414062,-0.010739132761955261,-0.01564750075340271
1761131956245258200,4.88525830078125,0.02164459228515625,0.003618791699409485,-0.005951613187789917
1761131956255258400,4.89525830078125,0.01924896240234375,-0.010759830474853516,-0.008285284042358398
1761131956265258200,4.90525830078125,0.016852378845214844,-0.003475770354270935,-0.010629773139953613
1761131956275258400,4.91525830078125,0.019245147705078125,-0.010621428489685059,0.003711879253387451
1761131956285258200,4.92525830078125,0.019249916076660156,-0.0034742355346679688,0.0035789012908935547
1761131956295258400,4.93525830078125,0.01685619354248047,-0.0009869039058685303,-0.022806316614151
1761131956305258200,4.94525830078125,0.014456748962402344,-0.02250206470489502,-0.008326739072799683
1761131956315258400,4.95525830078125,0.01684856414794922,-0.015330657362937927,0.0013508498668670654
1761131956325259000,4.965259033203125,0.019239425659179688,-0.0009738057851791382,-0.008127033710479736
1761131956335259000,4.9752587890625,0.004868507385253906,-0.015156596899032593,-0.008066534996032715
1761131956345259000,4.985259033203125,0.028807640075683594,-0.017506614327430725,-0.01998254656791687
1761131956355259000,4.9952587890625,0.031198501586914062,-0.019778430461883545,-0.01754114031791687
1761131956365259000,5.005259033203125,0.040771484375,-0.014961645007133484,-0.010283470153808594
1761131956375259000,5.0152587890625,0.024011611938476562,-0.0077587515115737915,-0.01744779944419861
1761131956385259000,5.025259033203125,0.014430046081542969,0.004299744963645935,-0.012569129467010498
1761131956395259000,5.0352587890625,0.021607398986816406,0.0019782930612564087,-0.017227113246917725
1761131956405259000,5.045259033203125,0.019209861755371094,0.013997182250022888,-0.01954829692840576
1761131956415259100,5.055259033203125,0.016813278198242188,-0.007561966776847839,0.011656403541564941
1761131956425258200,5.06525830078125,0.004841804504394531,0.01654304563999176,-0.007632404565811157
1761131956435258000,5.075258056640625,0.01681041717529297,-0.014500409364700317,-0.009995132684707642
1761131956445258200,5.08525830078125,0.009626388549804688,0.0023688524961471558,0.0019062161445617676
1761131956455258000,5.095258056640625,0.019205093383789062,0.00227336585521698,-0.007640928030014038
1761131956465258200,5.10525830078125,0.023993492126464844,0.004629671573638916,-0.02437615394592285
1761131956475258000,5.115258056640625,0.014416694641113281,-0.01220238208770752,0.009210258722305298
1761131956485258200,5.12525830078125,0.0024518966674804688,0.02128063142299652,-0.007703155279159546
1761131956495258000,5.135258056640625,0.02639293670654297,-0.009749755263328552,-0.034068286418914795
1761131956505258200,5.14525830078125,0.023998260498046875,-0.002607092261314392,0.0066378116607666016
1761131956515258000,5.155258056640625,0.02399730682373047,0.007011696696281433,-0.012500941753387451
1761131956525259000,5.165259033203125,0.016817092895507812,0.011755913496017456,-0.0005849897861480713
1761131956535259000,5.1752587890625,0.01681232452392578,-0.00010696053504943848,-0.0028925538063049316
1761131956545259000,5.185259033203125,0.03357219696044922,0.0023026764392852783,-0.0005394220352172852
1761131956555259100,5.195259033203125,0.0096282958984375,0.007060199975967407,-0.0052457451820373535
1761131956565259000,5.205259033203125,0.023990631103515625,0.009483367204666138,-0.012331902980804443
1761131956575259100,5.215259033203125,0.026381492614746094,-0.004833891987800598,-0.01942029595375061
1761131956585259000,5.225259033203125,0.019197463989257812,-0.02157178521156311,-0.01940283179283142
1761131956595259100,5.235259033203125,0.014407157897949219,-0.0023754239082336426,0.011735737323760986
1761131956615259100,5.255259033203125,0.007225990295410156,-0.019084438681602478,-0.0002982616424560547
1761131956625258200,5.26525830078125,0.021593093872070312,0.00009705126285552979,-0.0003992319107055664
1761131956635258000,5.275258056640625,0.009625434875488281,-0.00232851505279541,-0.005281686782836914
1761131956645258200,5.28525830078125,0.014414787292480469,0.004943147301673889,0.00420716404914856
1761131956655258000,5.295258056640625,0.019202232360839844,0.007319897413253784,-0.012530714273452759
1761131956665258200,5.30525830078125,0.0096282958984375,0.002489328384399414,-0.010172039270401001
1761131956675258000,5.315258056640625,0.02878093719482422,-0.0022611618041992188,-0.017378807067871094
1761131956685258200,5.32525830078125,0.016811370849609375,-0.011803030967712402,-0.019816040992736816
1761131956695258000,5.335258056640625,0.0311737060546875,0.00014162063598632812,-0.010118871927261353
1761131956705258200,5.34525830078125,0.03596210479736328,0.0025146454572677612,-0.007721155881881714
1761131956715258000,5.355258056640625,0.01919841766357422,0.0050124675035476685,-0.012461245059967041
1761131956725259000,5.365259033203125,0.028776168823242188,-0.002138465642929077,-0.002946227788925171
1761131956735259000,5.3752587890625,0.026383399963378906,-0.01893487572669983,0.001865774393081665
1761131956745259000,5.385259033203125,0.02159595489501953,0.009771227836608887,0.004223912954330444
1761131956755259100,5.395259033203125,0.02638530731201172,-0.011760994791984558,-0.012555867433547974
1761131956765259000,5.405259033203125,0.026386260986328125,-0.011785626411437988,-0.012591779232025146
1761131956775259100,5.415259033203125,0.0024471282958984375,-0.004631757736206055,-0.02226462960243225
1761131956785259000,5.425259033203125,0.012024879455566406,0.009713917970657349,-0.012685805559158325
1761131956795259100,5.435259033203125,0.019205093383789062,0.009740278124809265,-0.0006591975688934326
1761131956805259000,5.445259033203125,0.014417648315429688,0.00014288723468780518,-0.01743665337562561
1761131956815259100,5.455259033203125,0.026391029357910156,0.009620890021324158,-0.015031486749649048
1761131956825258200,5.46525830078125,0.014418601989746094,0.0072462111711502075,-0.01024511456489563
1761131956835258400,5.47525830078125,0.0144195556640625,-0.002422735095024109,-0.01735815405845642
1761131956845258200,5.48525830078125,0.019207000732421875,0.004832550883293152,-0.007827699184417725
1761131956855258000,5.495258056640625,0.01202392578125,-0.007119879126548767,-0.019800156354904175
1761131956865258200,5.50525830078125,0.019207000732421875,0.019196823239326477,-0.010221332311630249
1761131956875258000,5.515258056640625,0.021600723266601562,-0.0023294389247894287,0.004161328077316284
1761131956885258200,5.52525830078125,0.019208908081054688,-0.007217496633529663,-0.005424231290817261
1761131956895258000,5.535258056640625,0.02399730682373047,0.004716530442237854,0.0017819404602050781
1761131956905258200,5.54525830078125,0.014420509338378906,0.004700720310211182,0.006590366363525391
1761131956915258400,5.55525830078125,0.03118419647216797,-0.00017420947551727295,-0.005471467971801758
1761131956925259000,5.565259033203125,0.014429092407226562,0.0069770365953445435,-0.005565464496612549
1761131956935259100,5.575259033203125,0.024005889892578125,-0.0025826096534729004,0.0015957951545715332
1761131956945259000,5.585259033203125,0.014431953430175781,0.004568621516227722,0.008684396743774414
1761131956955259100,5.595259033203125,0.009645462036132812,-0.007425978779792786,0.0014648735523223877
1761131956965259000,5.605259033203125,0.016828536987304688,-0.007336899638175964,-0.003411620855331421
1761131956975259100,5.615259033203125,0.012041091918945312,0.0022738873958587646,-0.01781928539276123
1761131956985259000,5.625259033203125,0.02400970458984375,0.0022974610328674316,-0.010599732398986816
1761131956995259100,5.635259033203125,0.014431953430175781,-0.009631574153900146,-0.015373259782791138
1761131957005259000,5.645259033203125,0.014430046081542969,0.007151439785957336,-0.020124703645706177
1761131957015259100,5.655259033203125,0.019220352172851562,0.014310136437416077,0.003780543804168701
1761131957025258200,5.66525830078125,0.019224166870117188,0.01427970826625824,0.0036859512329101562
1761131957035258400,5.67525830078125,0.02401256561279297,0.002272471785545349,-0.01305079460144043
1761131957045258200,5.68525830078125,0.014434814453125,0.007154360413551331,-0.015473008155822754
1761131957055258000,5.695258056640625,0.01922130584716797,0.002463102340698242,-0.0011389851570129395
1761131957065258200,5.70525830078125,0.014436721801757812,-0.009610578417778015,-0.022735685110092163
1761131957075258000,5.715258056640625,0.012040138244628906,-0.000007063150405883789,-0.017870694398880005
1761131957085258200,5.72525830078125,0.016829490661621094,-0.009551003575325012,-0.022721707820892334
1761131957095258000,5.735258056640625,0.009645462036132812,0.009695753455162048,-0.015588134527206421
1761131957105258200,5.74525830078125,0.014430046081542969,-0.0189475417137146,-0.015518814325332642
1761131957115258000,5.755258056640625,0.01921367645263672,0.007437855005264282,0.02048763632774353
1761131957125259000,5.765259033203125,0.012034416198730469,0.009809091687202454,-0.005885958671569824
1761131957135259000,5.7752587890625,0.024005889892578125,-0.00454162061214447,-0.01789739727973938
1761131957145259000,5.785259033203125,0.02161121368408203,0.0026790648698806763,-0.025083482265472412
1761131957155259000,5.7952587890625,0.026395797729492188,0.007493108510971069,-0.013034850358963013
1761131957165259000,5.805259033203125,0.019211769104003906,-0.004508718848228455,-0.024923741817474365
1761131957175259100,5.815259033203125,0.024000167846679688,0.00024175643920898438,-0.0009576380252838135
1761131957185259000,5.825259033203125,0.021605491638183594,-0.004503712058067322,-0.01052016019821167
1761131957195259100,5.835259033203125,0.02399921417236328,-0.009383529424667358,-0.008057236671447754
1761131957205259000,5.845259033203125,0.014424324035644531,-0.009408742189407349,-0.015297025442123413
1761131957215259000,5.8552587890625,0.012034416198730469,0.014520332217216492,-0.015413135290145874
1761131957225258200,5.86525830078125,0.014428138732910156,0.00011721253395080566,-0.001023799180984497
1761131957235258000,5.875258056640625,0.0240020751953125,0.0073264241218566895,-0.020100325345993042
1761131957245258200,5.88525830078125,0.014425277709960938,-0.007131129503250122,0.0015168190002441406
1761131957255258000,5.895258056640625,0.02879047393798828,-0.004757359623908997,0.0015194416046142578
1761131957265258200,5.90525830078125,-0.00711822509765625,0.0023964643478393555,-0.010547637939453125
1761131957275258000,5.915258056640625,0.016824722290039062,-0.014326125383377075,-0.005803495645523071
1761131957285258200,5.92525830078125,0.009638786315917969,0.00019349157810211182,-0.01781103014945984
1761131957295258000,5.935258056640625,0.004849433898925781,0.009737402200698853,-0.015354245901107788
1761131957305258200,5.94525830078125,0.016821861267089844,-0.007043525576591492,0.008570313453674316
1761131957315258000,5.955258056640625,0.028794288635253906,0.012140929698944092,-0.02263641357421875
1761131957325259000,5.965259033203125,0.021612167358398438,-0.014289051294326782,-0.005827605724334717
1761131957335259100,5.975259033203125,0.0240020751953125,-0.01413358747959137,-0.02737012505531311
1761131957345259000,5.985259033203125,0.033577919006347656,-0.00930507481098175,-0.005806297063827515
1761131957355259100,5.995259033203125,0.002452850341796875,0.0027038902044296265,-0.003415048122406006
1761131957365259000,6.005259033203125,0.033577919006347656,-0.01646922528743744,0.0013754069805145264
1761131957375259100,6.015259033203125,0.012028694152832031,0.00033399462699890137,-0.0033790171146392822
1761131957385259000,6.025259033203125,0.0048465728759765625,-0.006871998310089111,0.0013727843761444092
1761131957395259100,6.035259033203125,0.014424324035644531,-0.009288966655731201,-0.0010381340980529785
1761131957405259000,6.045259033203125,0.03118896484375,0.017018482089042664,0.0036542415618896484
1761131957415259100,6.055259033203125,0.009641647338867188,-0.004571691155433655,-0.00835263729095459
1761131957425258500,6.065258544921875,0.0072498321533203125,0.00019241869449615479,-0.0036003291606903076
1761131957435258400,6.07525830078125,0.028797149658203125,-0.006953909993171692,-0.010827302932739258
1761131957445258500,6.085258544921875,0.02400970458984375,0.007428020238876343,-0.008453696966171265
1761131957455258400,6.09525830078125,0.014430999755859375,0.0027332454919815063,0.0010945796966552734
1761131957465258500,6.105258544921875,0.009644508361816406,-0.00925949215888977,-0.0157029926776886
1761131957475258400,6.11525830078125,0.0168304443359375,0.0003458261489868164,-0.02059277892112732
1761131957485258500,6.125258544921875,0.02640819549560547,0.007433891296386719,0.0009841322898864746
1761131957495258400,6.13525830078125,0.028802871704101562,-0.028555095195770264,-0.018141835927963257
1761131957505258500,6.145258544921875,0.03119659423828125,0.0002133697271347046,-0.015751123428344727
1761131957515258400,6.15525830078125,0.03119659423828125,0.00014112889766693115,-0.01570543646812439
1761131957525259300,6.16525927734375,0.014435768127441406,-0.009397000074386597,-0.0037383437156677246
1761131957535259100,6.175259033203125,0.00725555419921875,-0.026123523712158203,-0.006195127964019775
1761131957545259300,6.18525927734375,0.00485992431640625,0.0026633739471435547,-0.013403326272964478
1761131957555259100,6.195259033203125,0.016832351684570312,-0.033269137144088745,0.010540753602981567
1761131957565259300,6.20525927734375,-0.016686439514160156,-0.028483092784881592,-0.018209010362625122
1761131957575259100,6.215259033203125,0.03119182586669922,0.009916409850120544,-0.01329222321510315
1761131957585259300,6.22525927734375,0.028799057006835938,0.03385159373283386,0.0034095942974090576
1761131957595259100,6.235259033203125,0.0024652481079101562,-0.0020850151777267456,-0.008598417043685913
1761131957605259300,6.24525927734375,0.021620750427246094,0.009862393140792847,-0.011029571294784546
1761131957615259100,6.255259033203125,0.0168304443359375,-0.0379469096660614,-0.01345062255859375
1761131957625258500,6.265258544921875,0.021615028381347656,-0.03310558199882507,-0.010945022106170654
1761131957635258400,6.27525830078125,0.02161407470703125,0.005295068025588989,0.0009768009185791016
1761131957645258500,6.285258544921875,0.021613121032714844,0.002886369824409485,0.0010172724723815918
1761131957655258400,6.29525830078125,0.016826629638671875,-0.025868862867355347,-0.0038073360919952393
1761131957665258500,6.305258544921875,0.028797149658203125,-0.030657052993774414,-0.010989606380462646
1761131957675258400,6.31525830078125,0.004848480224609375,0.0054045021533966064,-0.01806977391242981
1761131957685258500,6.325258544921875,0.004847526550292969,0.0053530484437942505,-0.018005728721618652
1761131957695258400,6.33525830078125,0.009634971618652344,-0.004203140735626221,-0.013199299573898315
1761131957705258500,6.345258544921875,0.016814231872558594,0.005517870187759399,-0.020338594913482666
1761131957715258400,6.35525830078125,0.009629249572753906,-0.006340205669403076,-0.01560145616531372
1761131957725259000,6.365259033203125,0.014414787292480469,0.00807124376296997,-0.013132750988006592
1761131957735259000,6.3752587890625,0.0048351287841796875,-0.0014440715312957764,-0.0011489391326904297
1761131957745259000,6.385259033203125,0.014410018920898438,-0.006133243441581726,-0.005927830934524536
1761131957755259100,6.395259033203125,0.012015342712402344,-0.003753349184989929,-0.008260875940322876
1761131957765259000,6.405259033203125,0.016803741455078125,0.003479018807411194,0.008435994386672974
1761131957775259100,6.415259033203125,0.00722503662109375,0.008359953761100769,-0.010745108127593994
1761131957785259000,6.425259033203125,0.007225990295410156,0.008322030305862427,-0.010720908641815186
1761131957795259100,6.435259033203125,0.023983001708984375,0.00841657817363739,-0.00596165657043457
1761131957805259000,6.445259033203125,0.014407157897949219,0.010773494839668274,-0.015514671802520752
1761131957815259100,6.455259033203125,0.014410972595214844,-0.006015390157699585,-0.010821402072906494
1761131957825258200,6.46525830078125,0.012019157409667969,0.0035892724990844727,0.0010485947132110596
1761131957835258000,6.475258056640625,0.02398967742919922,0.010808855295181274,0.005813419818878174
1761131957845258200,6.48525830078125,0.021596908569335938,0.006035551428794861,-0.037323057651519775
1761131957855258000,6.495258056640625,0.016806602478027344,-0.013150930404663086,-0.0037416815757751465
1761131957865258200,6.50525830078125,0.012019157409667969,0.008485302329063416,-0.006223499774932861
1761131957875258000,6.515258056640625,0.01680469512939453,-0.0009902268648147583,-0.0038002729415893555
1761131957885258200,6.52525830078125,0.03356170654296875,0.0013731122016906738,-0.008506596088409424
1761131957895258000,6.535258056640625,0.014410972595214844,0.010977968573570251,-0.02536669373512268
1761131957905258200,6.54525830078125,0.019197463989257812,0.010998576879501343,-0.0038008689880371094
1761131957915258000,6.555258056640625,0.026378631591796875,0.0014292895793914795,0.005833178758621216
1761131957925259000,6.565259033203125,0.02637767791748047,0.0014686435461044312,0.005850076675415039
1761131957935259100,6.575259033203125,0.009619712829589844,-0.010547146201133728,0.005816638469696045
1761131957945259000,6.585259033203125,0.023984909057617188,0.02540285885334015,-0.008572131395339966
1761131957955259100,6.595259033203125,0.01920032501220703,-0.003358513116836548,-0.023032069206237793
1761131957965259000,6.605259033203125,0.023988723754882812,-0.012901157140731812,-0.006314873695373535
1761131957975259100,6.615259033203125,0.026383399963378906,-0.0057553499937057495,-0.01584741473197937
1761131957985259000,6.625259033203125,0.02638530731201172,-0.005778953433036804,-0.0158843994140625
1761131957995259100,6.635259033203125,0.026386260986328125,0.0013612061738967896,-0.018313884735107422
1761131958005259000,6.645259033203125,0.014416694641113281,-0.005843892693519592,0.005611240863800049
1761131958015259100,6.655259033203125,0.019205093383789062,-0.005754515528678894,-0.013630598783493042
1761131958025258200,6.66525830078125,0.03596210479736328,0.001459658145904541,-0.015930473804473877
1761131958035258000,6.675258056640625,0.021597862243652344,-0.00569036602973938,0.0007665455341339111
1761131958045258200,6.68525830078125,0.026386260986328125,-0.0008689165115356445,-0.02082321047782898
1761131958055258000,6.695258056640625,0.028779983520507812,0.0015059858560562134,-0.011244028806686401
1761131958065258200,6.70525830078125,0.012022972106933594,0.013509571552276611,-0.011306405067443848
1761131958075258000,6.715258056640625,0.0144195556640625,0.011142134666442871,-0.011427521705627441
1761131958085258200,6.72525830078125,0.021602630615234375,-0.007938489317893982,0.0028911232948303223
1761131958095258000,6.735258056640625,0.021600723266601562,-0.007903456687927246,0.002914249897003174
1761131958105258200,6.74525830078125,0.04075336456298828,-0.0030907243490219116,-0.011414855718612671
1761131958115258000,6.755258056640625,0.014414787292480469,-0.012625545263290405,-0.004217416048049927
1761131958125259000,6.765259033203125,0.007233619689941406,0.01600739359855652,-0.011368662118911743
1761131958135259000,6.7752587890625,0.01920032501220703,-0.0007241964340209961,-0.016060441732406616
1761131958145259000,6.785259033203125,0.007228851318359375,-0.007884904742240906,-0.006445139646530151
1761131958155259000,6.7952587890625,0.009624481201171875,-0.005461901426315308,0.005424290895462036
1761131958165259000,6.805259033203125,0.0311737060546875,-0.007822409272193909,-0.0018006563186645508
1761131958175259000,6.8152587890625,0.019205093383789062,0.020880356431007385,-0.009059250354766846
1761131958185259000,6.825259033203125,0.014417648315429688,0.0017405003309249878,-0.006704568862915039
1761131958195259000,6.8352587890625,0.012022972106933594,0.001777157187461853,-0.013910531997680664
1761131958205259000,6.845259033203125,0.016813278198242188,0.01611877977848053,-0.021130144596099854
1761131958215259000,6.8552587890625,0.019202232360839844,0.0017698556184768677,-0.01857990026473999
1761131958225258000,6.865258056640625,0.012021064758300781,0.004125997424125671,-0.013788014650344849
1761131958235258000,6.875258056640625,0.012018203735351562,0.004152402281761169,-0.013711273670196533
1761131958245258000,6.885258056640625,0.00244140625,-0.007785722613334656,-0.020956426858901978
1761131958255258000,6.895258056640625,0.028776168823242188,0.0017611831426620483,0.012643873691558838
1761131958265258000,6.905258056640625,0.031171798706054688,-0.010233402252197266,-0.00894087553024292
1761131958275258000,6.915258056640625,0.03596019744873047,0.0017591416835784912,-0.013711869716644287
1761131958285258000,6.925258056640625,0.012018203735351562,0.013711288571357727,-0.006527602672576904
1761131958295258000,6.935258056640625,0.016805648803710938,-0.019783973693847656,-0.011279016733169556
1761131958305258000,6.945258056640625,0.028774261474609375,0.0041977763175964355,0.003081202507019043
1761131958315258000,6.955258056640625,0.021593093872070312,0.009020373225212097,-0.006537795066833496
1761131958325258800,6.9652587890625,0.026383399963378906,0.009051665663719177,-0.0018321871757507324
1761131958335259000,6.9752587890625,0.009622573852539062,0.0066789984703063965,-0.004208922386169434
1761131958345258800,6.9852587890625,0.016805648803710938,0.01863349974155426,-0.004187941551208496
1761131958355259000,6.9952587890625,0.009622573852539062,-0.007614299654960632,0.007695436477661133
1761131958365258800,7.0052587890625,0.009624481201171875,-0.00763818621635437,0.007658660411834717
1761131958375259000,7.0152587890625,0.0072307586669921875,-0.007619783282279968,-0.004334449768066406
1761131958385258500,7.025258544921875,0.007233619689941406,-0.007702618837356567,-0.004364430904388428
1761131958395258600,7.035258544921875,0.019205093383789062,0.0019632279872894287,-0.02602139115333557
1761131958405258500,7.045258544921875,0.0096282958984375,-0.007633417844772339,-0.00925976037979126
1761131958415258600,7.055258544921875,0.01920318603515625,-0.00042350590229034424,-0.018781602382659912
1761131958425257700,7.0652578125,0.012019157409667969,-0.01236964762210846,-0.006753206253051758
1761131958435257900,7.0752578125,0.03596210479736328,0.002047032117843628,0.00036534667015075684
1761131958445257700,7.0852578125,0.012020111083984375,-0.0002571791410446167,-0.002117455005645752
1761131958455257900,7.0952578125,0.026388168334960938,0.006883293390274048,0.00024127960205078125
1761131958465257700,7.1052578125,0.009626388549804688,-0.0050440579652786255,-0.021293193101882935
1761131958475257900,7.1152578125,0.021600723266601562,-0.002681419253349304,0.0001602768898010254
1761131958485257700,7.1252578125,0.026388168334960938,0.006864205002784729,0.005030989646911621
1761131958495257900,7.1352578125,0.016814231872558594,-0.0076033324003219604,0.00021466612815856934
1761131958505257700,7.1452578125,0.007237434387207031,-0.002831295132637024,-0.014108926057815552
1761131958515257900,7.1552578125,0.009633064270019531,-0.005270272493362427,0.0026170313358306885
1761131958525258800,7.1652587890625,0.007237434387207031,-0.012411803007125854,-0.009338557720184326
1761131958535258600,7.175258544921875,0.03835868835449219,-0.009935855865478516,-0.01170167326927185
1761131958545258800,7.1852587890625,0.016813278198242188,-0.005171969532966614,-0.006949692964553833
1761131958555258600,7.195258544921875,0.007236480712890625,-0.007603153586387634,-0.01410868763923645
1761131958565258800,7.2052587890625,0.012021064758300781,-0.0028210580348968506,-0.0068076252937316895
1761131958575258600,7.215258544921875,0.012020111083984375,0.004456683993339539,-0.01880812644958496
1761131958585258500,7.225258544921875,0.01680469512939453,-0.00029830634593963623,-0.018694639205932617
1761131958595258600,7.235258544921875,0.0072269439697265625,0.00452817976474762,-0.013909727334976196
1761131958605258500,7.245258544921875,0.012014389038085938,-0.0002219676971435547,-0.0019419193267822266
1761131958615258600,7.255258544921875,0.031167030334472656,-0.005027055740356445,-0.009082674980163574
1761131958625257700,7.2652578125,0.009619712829589844,-0.007386684417724609,-0.011540919542312622
1761131958635257900,7.2752578125,0.021590232849121094,0.00455068051815033,-0.004294842481613159
1761131958645257700,7.2852578125,0.014408111572265625,0.01405152678489685,-0.023420780897140503
1761131958655257900,7.2952578125,0.016801834106445312,0.009228914976119995,-0.028167009353637695
1761131958665257700,7.3052578125,0.0024356842041015625,0.004409343004226685,-0.020902127027511597
1761131958675257900,7.3152578125,0.026376724243164062,-0.019641190767288208,-0.016002506017684937
1761131958685258000,7.325258056640625,0.02637767791748047,-0.00302964448928833,0.005639612674713135
1761131958695258000,7.335258056640625,0.028769493103027344,-0.005439296364784241,-0.013472944498062134
1761131958705258000,7.345258056640625,0.014403343200683594,0.001783117651939392,-0.011062532663345337
1761131958715258000,7.355258056640625,0.009615898132324219,0.0064927637577056885,-0.006265103816986084
1761131958725259000,7.365259033203125,0.009613037109375,0.008973106741905212,-0.015772074460983276
1761131958735259000,7.3752587890625,0.031162261962890625,0.008876696228981018,-0.0133475661277771
1761131958745259000,7.385259033203125,0.016798019409179688,0.006493896245956421,-0.013406425714492798
1761131958755259000,7.3952587890625,0.012010574340820312,-0.005515038967132568,-0.013382285833358765
1761131958765259000,7.405259033203125,0.019191741943359375,0.006422147154808044,-0.01092490553855896
1761131958775259000,7.4152587890625,0.016793251037597656,-0.007857218384742737,0.005904555320739746
1761131958785259000,7.425259033203125,0.019184112548828125,0.004213690757751465,-0.010824590921401978
1761131958795259000,7.4352587890625,0.021577835083007812,0.018543049693107605,-0.015569299459457397
1761131958805259000,7.445259033203125,0.0048160552978515625,-0.01018032431602478,-0.010722935199737549
1761131958815259000,7.4552587890625,0.02157878875732422,0.004104509949684143,0.017996281385421753
1761131958825258000,7.465258056640625,0.0239715576171875,-0.015083089470863342,-0.005903273820877075
1761131958835258000,7.475258056640625,0.019188880920410156,0.001638844609260559,0.015492081642150879
1761131958845258000,7.485258056640625,0.019191741943359375,0.0016676485538482666,0.015390485525131226
1761131958855258000,7.495258056640625,0.016798973083496094,-0.012723326683044434,-0.006192952394485474
1761131958865258000,7.505258056640625,0.012010574340820312,-0.003182545304298401,-0.0037757456302642822
1761131958875258000,7.515258056640625,0.009614944458007812,0.0015894770622253418,-0.008522510528564453
1761131958885258200,7.52525830078125,0.019191741943359375,-0.010306313633918762,0.00821012258529663
1761131958895258000,7.535258056640625,0.031164169311523438,-0.012725338339805603,-0.00619131326675415
1761131958905258200,7.54525830078125,0.0024328231811523438,0.013705432415008545,0.0009622573852539062
1761131958915258000,7.555258056640625,0.023977279663085938,0.011443093419075012,-0.011040478944778442
1761131958925259000,7.565259033203125,0.026372909545898438,0.004294365644454956,-0.0015057027339935303
1761131958935259100,7.575259033203125,0.019189834594726562,-0.005245491862297058,-0.01350027322769165
1761131958945259000,7.585259033203125,-0.009540557861328125,-0.01007010042667389,-0.0015065968036651611
1761131958955259100,7.595259033203125,0.009608268737792969,-0.0028000175952911377,-0.025358349084854126
1761131958965259000,7.605259033203125,0.01918506622314453,-0.00042361021041870117,-0.018153995275497437
1761131958975259000,7.6152587890625,0.019184112548828125,0.00919388234615326,-0.013371139764785767
1761131958985259000,7.625259033203125,0.014392852783203125,0.023639529943466187,-0.010944604873657227
1761131958995259000,7.6352587890625,0.009600639343261719,0.009337097406387329,0.0011011362075805664
1761131959005259000,7.645259033203125,0.033542633056640625,-0.005008608102798462,-0.0060835182666778564
1761131959015259000,7.6552587890625,0.011994361877441406,0.006983935832977295,-0.010854452848434448
1761131959025258200,7.66525830078125,0.009601593017578125,0.011873826384544373,0.0009686052799224854
1761131959035258000,7.675258056640625,0.016782760620117188,-0.00007434189319610596,-0.008570343255996704
1761131959045258200,7.68525830078125,0.01917743682861328,0.004749730229377747,-0.006220132112503052
1761131959055258000,7.695258056640625,0.02636241912841797,0.002385273575782776,0.003254532814025879
1761131959065258200,7.70525830078125,0.01918506622314453,-0.01667812466621399,-0.0065879225730896
1761131959075258000,7.715258056640625,0.009613990783691406,-0.01658761501312256,-0.009247899055480957
1761131959085258200,7.72525830078125,0.026371002197265625,-0.004641324281692505,0.012440532445907593
1761131959095258000,7.735258056640625,0.02636241912841797,0.0073582082986831665,0.012713581323623657
1761131959105258200,7.74525830078125,0.03114795684814453,0.00014443695545196533,-0.015934526920318604
1761131959115258000,7.755258056640625,0.021574020385742188,0.016931742429733276,-0.020823925733566284
1761131959125259000,7.765259033203125,0.0024204254150390625,-0.009367331862449646,-0.013664603233337402
1761131959135259000,7.7752587890625,0.007210731506347656,0.0049538761377334595,0.0006662607192993164
1761131959145259000,7.785259033203125,0.016788482666015625,0.00014157593250274658,-0.013735741376876831
1761131959155259000,7.7952587890625,0.0072154998779296875,-0.002284035086631775,-0.006647169589996338
1761131959165259000,7.805259033203125,0.009614944458007812,-0.004767388105392456,-0.018706977367401123
1761131959175259000,7.8152587890625,0.021587371826171875,0.004785850644111633,-0.016349703073501587
1761131959185259000,7.825259033203125,0.02158832550048828,0.0047465115785598755,-0.01634541153907776
1761131959195259100,7.835259033203125,0.014401435852050781,0.00004132091999053955,-0.004323512315750122
1761131959205259000,7.845259033203125,0.0120086669921875,-0.0023186802864074707,-0.004365682601928711
1761131959215259000,7.8552587890625,0.021584510803222656,-0.014253988862037659,-0.01157107949256897
1761131959225258200,7.86525830078125,0.0120086669921875,0.021622061729431152,-0.013941675424575806
1761131959235258000,7.875258056640625,0.01919269561767578,-0.009530961513519287,-0.011622607707977295
1761131959245258200,7.88525830078125,0.02397918701171875,-0.0071830302476882935,-0.001922696828842163
1761131959255258000,7.895258056640625,0.014405250549316406,-0.000009879469871520996,0.005161553621292114
1761131959265258200,7.90525830078125,0.019191741943359375,0.019224777817726135,0.0004050731658935547
1761131959275258000,7.915258056640625,0.03595256805419922,0.002443462610244751,0.005155056715011597
1761131959285258200,7.92525830078125,0.016798019409179688,0.0024650096893310547,0.0003841221332550049
1761131959295258000,7.935258056640625,0.03116130828857422,-0.011805996298789978,-0.0044332146644592285
1761131959305258200,7.94525830078125,0.021585464477539062,0.016941159963607788,0.009911328554153442
1761131959315258000,7.955258056640625,0.009614944458007812,-0.00941959023475647,-0.004490315914154053
1761131959325259000,7.965259033203125,0.021587371826171875,0.004908666014671326,-0.00925511121749878
1761131959335259000,7.9752587890625,0.021584510803222656,0.012191787362098694,-0.028378814458847046
1761131959345259000,7.985259033203125,0.016796112060546875,-0.009322032332420349,-0.009267717599868774
1761131959355259000,7.9952587890625,0.014403343200683594,0.01218363642692566,-0.004514813423156738
1761131959365259000,8.005259033203124,0.019189834594726562,0.0050431787967681885,0.0003091096878051758
1761131959375259000,8.0152587890625,0.02158641815185547,0.009786486625671387,-0.006906777620315552
1761131959385259000,8.025259033203126,0.016798019409179688,-0.009331107139587402,-0.009323984384536743
1761131959395259000,8.0352587890625,0.021590232849121094,-0.00930747389793396,-0.0023020505905151367
1761131959405259000,8.045259033203125,0.023983001708984375,0.002707377076148987,-0.009450644254684448
1761131959415259000,8.0552587890625,0.028772354125976562,-0.004518434405326843,-0.004696637392044067
1761131959425258200,8.06525830078125,0.01680469512939453,-0.0020963847637176514,-0.016768693923950195
1761131959435258000,8.075258056640624,0.012017250061035156,0.0051950812339782715,-0.016858935356140137
1761131959445258200,8.08525830078125,0.009626388549804688,0.0003735572099685669,-0.009811162948608398
1761131959455258000,8.095258056640626,0.019204139709472656,-0.013976886868476868,-0.007457643747329712
1761131959465258200,8.10525830078125,0.0048389434814453125,-0.00920964777469635,-0.0026657581329345703
1761131959475258000,8.115258056640625,0.012025833129882812,-0.018888071179389954,0.004488050937652588
1761131959485258000,8.125258056640625,0.004840850830078125,-0.014075011014938354,-0.028994858264923096
1761131959495258000,8.135258056640625,0.0096282958984375,0.017090633511543274,-0.009825825691223145
1761131959505258000,8.145258056640625,0.026386260986328125,-0.00913989543914795,-0.0026852786540985107
1761131959515258000,8.155258056640625,0.021597862243652344,-0.002047926187515259,-0.005011707544326782
1761131959525259000,8.165259033203125,0.019205093383789062,0.00037713348865509033,-0.017064779996871948
1761131959535259000,8.1752587890625,0.014416694641113281,0.00039696693420410156,-0.014672785997390747
1761131959545259000,8.185259033203126,-0.004738807678222656,0.002832189202308655,-0.012263178825378418
1761131959555259000,8.1952587890625,0.021597862243652344,-0.006764113903045654,-0.02423211932182312
1761131959565259000,8.205259033203125,0.012018203735351562,0.005234867334365845,-0.019346773624420166
1761131959575259000,8.2152587890625,0.0263824462890625,0.012387692928314209,-0.01687157154083252
1761131959585259000,8.225259033203125,0.009617805480957031,0.012417390942573547,-0.01198771595954895
1761131959595259000,8.2352587890625,0.016800880432128906,-0.0020576417446136475,-0.021473675966262817
1761131959605259000,8.245259033203125,0.02637767791748047,0.007408902049064636,-0.007016956806182861
1761131959615259000,8.2552587890625,0.009618759155273438,-0.004603147506713867,-0.009426593780517578
1761131959625258200,8.26525830078125,0.00962066650390625,-0.004642173647880554,-0.009422510862350464
1761131959635258000,8.275258056640626,0.019196510314941406,0.002561211585998535,-0.03336736559867859
1761131959645258200,8.28525830078125,0.019193649291992188,0.004908174276351929,-0.011695832014083862
1761131959655258000,8.295258056640625,0.014399528503417969,-0.002257034182548523,0.014816522598266602
1761131959665258200,8.30525830078125,0.0024309158325195312,0.012012690305709839,-0.009095817804336548
1761131959675258000,8.315258056640625,0.02637004852294922,0.0024434179067611694,-0.013805776834487915
1761131959685258200,8.32525830078125,0.016794204711914062,0.004852086305618286,-0.013846278190612793
1761131959695258000,8.335258056640624,0.014400482177734375,-0.01902174949645996,-0.013930946588516235
1761131959705258200,8.34525830078125,0.009617805480957031,-0.004693061113357544,-0.018872439861297607
1761131959715258000,8.355258056640626,0.014410018920898438,-0.0070110708475112915,-0.023865461349487305
1761131959725259000,8.365259033203126,0.009622573852539062,0.019355416297912598,-0.0047724246978759766
1761131959735259000,8.3752587890625,0.02398967742919922,0.02189233899116516,-0.016896814107894897
1761131959745259000,8.385259033203125,0.016811370849609375,-0.002045378088951111,0.0045130252838134766
1761131959755259100,8.395259033203125,0.023996353149414062,0.007541045546531677,-0.0003751218318939209
1761131959765259000,8.405259033203125,-0.026276588439941406,0.01474432647228241,-0.05322718620300293
1761131959775259100,8.415259033203125,0.019222259521484375,-0.0042956918478012085,0.008617162704467773
1761131959785259000,8.425259033203124,-0.002300262451171875,-0.01112036406993866,-0.01642647385597229
1761131959795259100,8.435259033203126,0.035984039306640625,0.0005198270082473755,-0.0010597705841064453
1761131959805259000,8.445259033203126,0.016851425170898438,-0.0016865283250808716,-0.018645912408828735
1761131959815259100,8.455259033203125,0.02402782440185547,-0.03050844371318817,-0.013591110706329346
1761131959825258200,8.46525830078125,0.028818130493164062,0.010220855474472046,0.010249853134155273
1761131959835258000,8.475258056640625,0.004860877990722656,0.0007302314043045044,-0.020430445671081543
1761131959845258200,8.48525830078125,0.007246971130371094,0.015068590641021729,-0.0009580552577972412
1761131959855258000,8.495258056640624,0.021610260009765625,0.01030471920967102,-0.020075291395187378
1761131959865258200,8.50525830078125,0.021607398986816406,0.010151699185371399,-0.019842952489852905
1761131959875258000,8.515258056640626,0.02160167694091797,0.010113582015037537,-0.0004881620407104492
1761131959885258200,8.52525830078125,0.026383399963378906,0.007616683840751648,-0.014527827501296997
1761131959895258000,8.535258056640625,0.02158832550048828,0.021892458200454712,-0.016636192798614502
1761131959905258200,8.54525830078125,0.023972511291503906,0.02422519028186798,-0.01627454161643982
1761131959915258000,8.555258056640625,0.023967742919921875,0.024167567491531372,-0.016071349382400513
1761131959925259000,8.565259033203125,0.016782760620117188,-0.002196386456489563,0.0031827986240386963
1761131959935259100,8.575259033203125,0.004803657531738281,-0.009427547454833984,-0.02047860622406006
1761131959945259000,8.585259033203124,0.011983871459960938,0.0145425945520401,-0.008411139249801636
1761131959955259100,8.595259033203124,-0.0047760009765625,-0.009436070919036865,0.0012101829051971436
1761131959965259000,8.605259033203126,0.0024051666259765625,0.004950866103172302,-0.0226936936378479
1761131959975259000,8.6152587890625,0.01676464080810547,0.009703472256660461,-0.01768481731414795
1761131959985259000,8.625259033203125,0.019156455993652344,-0.004765599966049194,0.003991663455963135
1761131959995259000,8.6352587890625,0.01915740966796875,-0.00946556031703949,-0.003278583288192749
1761131960005259000,8.645259033203125,0.011975288391113281,0.0049183666706085205,-0.02006027102470398
1761131960015259000,8.6552587890625,0.004791259765625,0.007335200905799866,-0.008051753044128418
1761131960025258200,8.66525830078125,0.04070758819580078,0.002570614218711853,-0.024951159954071045
1761131960035258000,8.675258056640626,0.009586334228515625,-0.016613438725471497,-0.027439922094345093
1761131960045258000,8.685258056640626,0.021559715270996094,-0.007008403539657593,-0.003578007221221924
1761131960055258000,8.695258056640625,0.02634906768798828,0.0002041161060333252,-0.020418912172317505
1761131960065258000,8.705258056640625,0.016775131225585938,-0.00934244692325592,0.005835592746734619
1761131960075258000,8.715258056640625,0.021559715270996094,-0.011709749698638916,-0.022817909717559814
1761131960085258000,8.725258056640625,0.02155303955078125,-0.014062225818634033,-0.005846351385116577
1761131960095258000,8.735258056640625,0.009572029113769531,0.0002978593111038208,-0.02707880735397339
1761131960105258000,8.745258056640624,0.004772186279296875,0.0027482211589813232,-0.012364566326141357
1761131960115258000,8.755258056640624,0.01673603057861328,0.012294083833694458,-0.012105971574783325
1761131960125258800,8.7652587890625,-0.0024232864379882812,-0.0021616220474243164,0.00013083219528198242
1761131960135259000,8.7752587890625,0.019120216369628906,-0.006972596049308777,-0.023630410432815552
1761131960145258800,8.7852587890625,0.019118309020996094,-0.009397327899932861,-0.00439491868019104
1761131960155259000,8.7952587890625,0.016727447509765625,0.00959932804107666,-0.02113744616508484
1761131960165259000,8.805259033203125,0.02151203155517578,0.01191762089729309,-0.011356174945831299
1761131960175259000,8.8152587890625,0.026294708251953125,-0.0024312734603881836,-0.008805930614471436
1761131960185259000,8.825259033203125,0.026292800903320312,-0.0025184303522109985,-0.008677572011947632
1761131960195259000,8.8352587890625,-0.004834175109863281,-0.004958614706993103,-0.0037662386894226074
1761131960205259000,8.845259033203124,0.026284217834472656,-0.012102410197257996,-0.020352721214294434
1761131960215259000,8.8552587890625,0.004733085632324219,0.004559338092803955,-0.008195042610168457
1761131960225258000,8.865258056640625,0.011915206909179688,-0.007556214928627014,-0.010455012321472168
1761131960235257900,8.8752578125,0.011913299560546875,-0.007528916001319885,-0.01040002703666687
1761131960245258000,8.885258056640625,0.02866649627685547,0.009265691041946411,-0.0006688535213470459
1761131960255257900,8.8952578125,0.021477699279785156,0.004498779773712158,-0.00045374035835266113
1761131960265258000,8.905258056640625,0.021471023559570312,-0.00026923418045043945,-0.03617170453071594
1761131960275257900,8.9152578125,0.02146148681640625,0.007001444697380066,-0.009569615125656128
1761131960285258000,8.925258056640626,0.016669273376464844,0.002170845866203308,-0.02377268671989441
1761131960295258000,8.935258056640626,0.014272689819335938,0.014092609286308289,-0.016485899686813354
1761131960305258000,8.945258056640625,0.023847579956054688,0.021225541830062866,-0.013986766338348389
1761131960315258000,8.955258056640625,0.0046901702880859375,0.009304821491241455,-0.006690651178359985
1761131960325258800,8.9652587890625,0.011870384216308594,-0.009803682565689087,-0.006636202335357666
1761131960335259000,8.9752587890625,0.02862834930419922,-0.00033073127269744873,-0.013690143823623657
1761131960345258800,8.9852587890625,0.01665496826171875,-0.007504865527153015,0.000752866268157959
1761131960355259000,8.9952587890625,0.011865615844726562,-0.007484257221221924,0.010347753763198853
1761131960365258800,9.0052587890625,0.023839950561523438,-0.00020666420459747314,-0.004223257303237915
1761131960375259000,9.0152587890625,0.016656875610351562,0.00933520495891571,-0.013756990432739258
1761131960385259000,9.025259033203126,0.023840904235839844,0.009294480085372925,-0.008984208106994629
1761131960395259000,9.0352587890625,-0.004889488220214844,0.011705204844474792,-0.01379355788230896
1761131960405259000,9.045259033203125,0.033417701721191406,0.014063581824302673,-0.02332669496536255
1761131960415259000,9.0552587890625,0.02144622802734375,-0.009876102209091187,0.0030288398265838623
1761131960425258000,9.065258056640625,0.02623748779296875,0.0045712292194366455,0.007650464773178101
1761131960435258000,9.075258056640624,0.019059181213378906,-0.014505237340927124,-0.004525810480117798
1761131960445258200,9.08525830078125,0.01427459716796875,-0.00262334942817688,-0.021373987197875977
1761131960455258000,9.095258056640626,0.031036376953125,-0.00014385581016540527,-0.01671278476715088
1761131960465258000,9.105258056640626,0.01906871795654297,0.0047240108251571655,-0.012110292911529541
1761131960475258000,9.115258056640625,0.0047054290771484375,0.007145360112190247,-0.014604628086090088
1761131960485258000,9.125258056640625,0.019075393676757812,-0.0000855177640914917,-0.00033348798751831055
1761131960495258000,9.135258056640625,0.035836219787597656,0.01191912591457367,-0.014762133359909058
1761131960505258000,9.145258056640625,0.01907825469970703,0.0046393126249313354,-0.021934717893600464
1761131960515258000,9.155258056640625,0.023863792419433594,0.004758745431900024,-0.017118126153945923
1761131960525259000,9.165259033203125,0.02625751495361328,0.002274066209793091,0.006892025470733643
1761131960535259000,9.1752587890625,0.02146625518798828,-0.004901334643363953,-0.009788811206817627
1761131960545259000,9.185259033203126,0.01667308807373047,0.01193024218082428,-0.02402317523956299
1761131960555259000,9.1952587890625,0.019067764282226562,-0.002529516816139221,-0.021599888801574707
1761131960565259000,9.205259033203125,0.03822612762451172,0.007049575448036194,-0.0193631649017334
1761131960575259000,9.2152587890625,0.011893272399902344,0.01681387424468994,-0.019617587327957153
1761131960585259000,9.225259033203125,0.02147197723388672,0.012091606855392456,-0.0029623806476593018
1761131960595259000,9.2352587890625,0.021475791931152344,-0.009397447109222412,-0.010328084230422974
1761131960605259000,9.245259033203125,0.009509086608886719,0.009812667965888977,-0.003368765115737915
1761131960615259000,9.2552587890625,0.009512901306152344,0.009945705533027649,-0.0035780370235443115
1761131960625224700,9.265224609375,0.016704559326171875,-0.0139341801404953,0.003263711929321289
1761131960635191600,9.275191650390624,0.021501541137695312,0.005243450403213501,-0.0042359232902526855
1761131960645158100,9.285158203125,0.026294708251953125,-0.004256054759025574,0.007530152797698975
1761131960655124700,9.295124755859375,0.014328956604003906,-0.004165545105934143,-0.02386021614074707
1761131960665091600,9.305091552734375,0.01672649383544922,0.012673035264015198,-0.019257575273513794
1761131960675058200,9.31505810546875,0.014336585998535156,0.010248348116874695,-0.00021970272064208984
1761131960685024800,9.325024658203125,0.03349494934082031,0.007853418588638306,0.009180694818496704
1761131960694991400,9.334991455078125,0.019136428833007812,0.007832303643226624,-0.012561291456222534
1761131960704958200,9.344958251953125,0.019138336181640625,-0.004054725170135498,-0.012708902359008789
1761131960714924800,9.3549248046875,0.016747474670410156,-0.00870545208454132,-0.005718141794204712
1761131960724892200,9.36489208984375,0.01674938201904297,-0.006280109286308289,0.0037764012813568115
1761131960734858800,9.374858642578126,0.009566307067871094,-0.01349872350692749,0.006193608045578003
1761131960744825600,9.38482568359375,0.019148826599121094,-0.0014563500881195068,-0.010808587074279785
1761131960754792200,9.394792236328126,0.026334762573242188,-0.008668646216392517,-0.0013272464275360107
1761131960764758800,9.4047587890625,0.02633953094482422,-0.0014609992504119873,0.0009261965751647949
1761131960774725600,9.4147255859375,0.011974334716796875,-0.0037114322185516357,-0.015966564416885376
1761131960784692200,9.424692138671874,0.01676177978515625,0.010802015662193298,-0.011251568794250488
1761131960794658800,9.434658935546874,0.011977195739746094,0.0012490004301071167,-0.00899738073348999
1761131960804625700,9.444625732421875,0.021559715270996094,0.0012659281492233276,-0.0020124316215515137
1761131960814592300,9.45459228515625,0.026348114013671875,-0.003432169556617737,-0.014072209596633911
1761131960824558000,9.46455810546875,0.04071521759033203,-0.008260577917098999,-0.016482919454574585
1761131960834524700,9.474524658203125,0.08380889892578125,-0.005879759788513184,-0.009239792823791504
1761131960844491500,9.484491455078125,0.011977195739746094,0.02227024734020233,-0.006194859743118286
1761131960854458000,9.4944580078125,0.035889625549316406,-0.01690727472305298,0.009817391633987427
1761131960864424700,9.5044248046875,0.011927604675292969,0.008750036358833313,-0.012890994548797607
1761131960874391300,9.514391357421875,-0.012057304382324219,0.007506757974624634,-0.015243202447891235
1761131960884358100,9.524358154296875,0.00466156005859375,0.013460487127304077,-0.0008976757526397705
1761131960894324700,9.53432470703125,0.004651069641113281,0.012949079275131226,-0.00013458728790283203
1761131960904291600,9.54429150390625,0.01422119140625,-0.020837560296058655,-0.011643469333648682
1761131960914258200,9.554258056640625,0.009436607360839844,0.007841825485229492,0.0026294589042663574
1761131960924259000,9.564259033203125,0.009434700012207031,0.007991015911102295,0.002555549144744873
1761131960934259000,9.574259033203125,0.011829376220703125,-0.008513674139976501,0.004745662212371826
1761131960944258800,9.5842587890625,0.02858734130859375,0.013492271304130554,-0.019519776105880737
1761131960954259000,9.594259033203125,0.01900959014892578,-0.01474328339099884,-0.01270487904548645
1761131960964258800,9.6042587890625,0.030975341796875,-0.009392276406288147,-0.008171319961547852
1761131960974259000,9.614259033203124,0.02377605438232422,0.007692590355873108,-0.012678444385528564
1761131960984258800,9.6242587890625,0.018970489501953125,-0.011315464973449707,-0.0074315667152404785
