time,seconds_elapsed,z,y,x
1761131951481975300,0.121975341796875,-0.0009926559869199991,-0.0005345070967450738,-0.00045814894838258624
1761131951495049000,0.135049072265625,-0.0009926559869199991,-0.0005345070967450738,-0.00045814894838258624
1761131951525058300,0.165058349609375,-0.0009926559869199991,-0.0005345070967450738,-0.00045814894838258624
1761131951535059500,0.1750595703125,-0.0009926559869199991,-0.0005345070967450738,-0.00045814894838258624
1761131951545060600,0.185060546875,-0.00038179077091626823,0.00007635815563844517,-0.00045814894838258624
1761131951555061500,0.1950615234375,-0.00038179077091626823,-0.0005345070967450738,0.0007635815418325365
1761131951565062100,0.205062255859375,0.000839939690195024,-0.0005345070967450738,-0.00045814894838258624
1761131951575062800,0.215062744140625,-0.0016035212902352214,-0.0005345070967450738,-0.0010690141934901476
1761131951585063400,0.2250634765625,-0.0009926559869199991,-0.0005345070967450738,0.00015271631127689034
1761131951595063800,0.235063720703125,-0.0016035212902352214,0.0006872233934700489,0.00015271631127689034
1761131951605064200,0.245064208984375,-0.0009926559869199991,0.00007635815563844517,-0.00045814894838258624
1761131951615064800,0.25506494140625,-0.0009926559869199991,-0.0017562375869601965,-0.00045814894838258624
1761131951625063200,0.265063232421875,-0.0016035212902352214,0.00007635815563844517,-0.00045814894838258624
1761131951635063600,0.2750634765625,-0.00038179077091626823,-0.0011453722836449742,-0.00045814894838258624
1761131951645064000,0.28506396484375,0.00022907447419129312,-0.0005345070967450738,-0.0010690141934901476
1761131951655064300,0.295064208984375,-0.00038179077091626823,-0.0005345070967450738,0.0007635815418325365
1761131951665064400,0.305064453125,-0.00038179077091626823,0.00007635815563844517,-0.0010690141934901476
1761131951675064800,0.31506494140625,0.00022907447419129312,-0.0005345070967450738,-0.00045814894838258624
1761131951685065000,0.32506494140625,-0.00038179077091626823,-0.0011453722836449742,-0.0010690141934901476
1761131951695065300,0.3350654296875,0.00022907447419129312,-0.0005345070967450738,0.00015271631127689034
1761131951705065500,0.3450654296875,-0.0009926559869199991,0.00007635815563844517,0.00015271631127689034
1761131951715065900,0.35506591796875,-0.0016035212902352214,-0.0005345070967450738,-0.00045814894838258624
1761131951725066000,0.36506591796875,-0.0009926559869199991,0.00007635815563844517,0.00015271631127689034
1761131951735066000,0.375066162109375,-0.0009926559869199991,-0.0005345070967450738,0.00015271631127689034
1761131951745066500,0.38506640625,-0.0009926559869199991,-0.0005345070967450738,-0.00045814894838258624
1761131951755066600,0.395066650390625,-0.0009926559869199991,-0.0017562375869601965,-0.0010690141934901476
1761131951765066800,0.405066650390625,0.00022907447419129312,0.0006872233934700489,0.00015271631127689034
1761131951775067100,0.415067138671875,-0.0009926559869199991,-0.0005345070967450738,-0.00045814894838258624
1761131951785067300,0.4250673828125,-0.0016035212902352214,-0.0005345070967450738,-0.00045814894838258624
1761131951795067400,0.4350673828125,-0.00038179077091626823,-0.0005345070967450738,-0.00045814894838258624
1761131951805067300,0.4450673828125,-0.00038179077091626823,0.00007635815563844517,0.00015271631127689034
1761131951815067400,0.4550673828125,0.000839939690195024,-0.0005345070967450738,0.00015271631127689034
1761131951825066500,0.46506640625,-0.00038179077091626823,0.00007635815563844517,-0.00045814894838258624
1761131951835066600,0.475066650390625,0.000839939690195024,-0.0011453722836449742,-0.0010690141934901476
1761131951845066500,0.48506640625,-0.0009926559869199991,0.00007635815563844517,0.0007635815418325365
1761131951855066400,0.49506640625,-0.00038179077091626823,-0.0005345070967450738,-0.00045814894838258624
1761131951865066500,0.50506640625,-0.0009926559869199991,-0.0005345070967450738,-0.0010690141934901476
1761131951875066400,0.51506640625,-0.00038179077091626823,0.00007635815563844517,-0.00045814894838258624
1761131951885066500,0.52506640625,0.00022907447419129312,0.00007635815563844517,-0.00045814894838258624
1761131951895066400,0.53506640625,0.00022907447419129312,0.00007635815563844517,0.00015271631127689034
1761131951905066500,0.54506640625,-0.00038179077091626823,-0.0005345070967450738,-0.0010690141934901476
1761131951915066600,0.555066650390625,-0.00038179077091626823,-0.0011453722836449742,-0.00045814894838258624
1761131951925067300,0.5650673828125,-0.0016035212902352214,-0.0005345070967450738,0.00015271631127689034
1761131951935067400,0.5750673828125,-0.0009926559869199991,0.00007635815563844517,-0.00045814894838258624
1761131951945067300,0.5850673828125,0.00022907447419129312,0.00007635815563844517,0.0007635815418325365
1761131951955067400,0.5950673828125,-0.00038179077091626823,0.0006872233934700489,-0.00045814894838258624
1761131951965067300,0.6050673828125,-0.002825251780450344,-0.0005345070967450738,-0.0010690141934901476
1761131951975067400,0.6150673828125,-0.0009926559869199991,0.00007635815563844517,0.00015271631127689034
1761131951985067300,0.6250673828125,0.00022907447419129312,-0.0005345070967450738,0.00015271631127689034
1761131951995067400,0.6350673828125,0.000839939690195024,0.0006872233934700489,-0.00045814894838258624
1761131952005067300,0.6450673828125,-0.0009926559869199991,0.00007635815563844517,-0.0010690141934901476
1761131952015067400,0.6550673828125,0.00022907447419129312,-0.0011453722836449742,-0.00045814894838258624
1761131952025066500,0.66506640625,-0.0016035212902352214,0.00007635815563844517,0.00015271631127689034
1761131952035066400,0.67506640625,-0.00038179077091626823,-0.0011453722836449742,-0.00045814894838258624
1761131952045066500,0.68506640625,-0.00038179077091626823,-0.0011453722836449742,0.00015271631127689034
1761131952055066400,0.69506640625,-0.00038179077091626823,-0.0005345070967450738,-0.00045814894838258624
1761131952065066500,0.70506640625,-0.0009926559869199991,-0.0011453722836449742,0.00015271631127689034
1761131952075066400,0.71506640625,-0.00038179077091626823,-0.0005345070967450738,-0.0010690141934901476
1761131952085066500,0.72506640625,-0.00038179077091626823,-0.0005345070967450738,-0.00045814894838258624
1761131952095066400,0.73506640625,0.00022907447419129312,-0.0005345070967450738,-0.00045814894838258624
1761131952105066500,0.74506640625,0.000839939690195024,-0.0011453722836449742,-0.0010690141934901476
1761131952115066400,0.75506640625,-0.0009926559869199991,-0.0011453722836449742,-0.0010690141934901476
1761131952125067300,0.7650673828125,-0.0016035212902352214,-0.0011453722836449742,-0.00045814894838258624
1761131952135067100,0.775067138671875,0.000839939690195024,-0.0005345070967450738,0.0007635815418325365
1761131952145067300,0.7850673828125,-0.0009926559869199991,0.0006872233934700489,-0.0010690141934901476
1761131952155067100,0.795067138671875,-0.00038179077091626823,0.00007635815563844517,0.00015271631127689034
1761131952165067300,0.8050673828125,-0.00038179077091626823,-0.0005345070967450738,0.00015271631127689034
1761131952175067100,0.815067138671875,-0.0009926559869199991,-0.0017562375869601965,-0.00045814894838258624
1761131952185067300,0.8250673828125,-0.0009926559869199991,-0.0005345070967450738,-0.00045814894838258624
1761131952195067400,0.8350673828125,-0.00038179077091626823,0.00007635815563844517,-0.00045814894838258624
1761131952205067300,0.8450673828125,-0.0009926559869199991,0.0006872233934700489,0.00015271631127689034
1761131952215067100,0.855067138671875,-0.00038179077091626823,-0.0005345070967450738,0.00015271631127689034
1761131952225066500,0.86506640625,-0.0016035212902352214,-0.0005345070967450738,0.0013744467869400978
1761131952235066400,0.87506640625,0.00022907447419129312,0.00007635815563844517,0.0007635815418325365
1761131952245066500,0.88506640625,-0.0009926559869199991,-0.0011453722836449742,0.00015271631127689034
1761131952255066400,0.89506640625,-0.00038179077091626823,0.0006872233934700489,0.00015271631127689034
1761131952265066500,0.90506640625,-0.0009926559869199991,0.00007635815563844517,-0.0010690141934901476
1761131952275066400,0.91506640625,-0.0016035212902352214,-0.0011453722836449742,0.00015271631127689034
1761131952285066500,0.92506640625,-0.00038179077091626823,0.00007635815563844517,-0.00045814894838258624
1761131952295066400,0.93506640625,-0.00038179077091626823,0.00007635815563844517,-0.00045814894838258624
1761131952305066500,0.94506640625,-0.0016035212902352214,0.0006872233934700489,-0.0010690141934901476
1761131952315066400,0.95506640625,-0.0009926559869199991,-0.0005345070967450738,0.0007635815418325365
1761131952325067300,0.9650673828125,-0.0009926559869199991,-0.0005345070967450738,-0.00045814894838258624
1761131952335067400,0.9750673828125,-0.0009926559869199991,-0.0011453722836449742,-0.00045814894838258624
1761131952345067300,0.9850673828125,-0.0022143865935504436,-0.0011453722836449742,-0.0010690141934901476
1761131952355067400,0.9950673828125,-0.0009926559869199991,-0.0005345070967450738,0.0007635815418325365
1761131952365067300,1.0050673828125,-0.0016035212902352214,-0.0005345070967450738,-0.0010690141934901476
1761131952375067400,1.0150673828125,-0.00038179077091626823,-0.0005345070967450738,0.00015271631127689034
1761131952385067300,1.0250673828125,-0.0009926559869199991,-0.0005345070967450738,-0.0010690141934901476
1761131952395067400,1.0350673828125,-0.00038179077091626823,-0.0005345070967450738,0.0007635815418325365
1761131952405067300,1.0450673828125,-0.00038179077091626823,-0.0005345070967450738,-0.00045814894838258624
1761131952415067400,1.0550673828125,-0.00038179077091626823,0.0006872233934700489,0.00015271631127689034
1761131952425066500,1.06506640625,-0.0009926559869199991,0.00007635815563844517,0.00015271631127689034
1761131952435066400,1.07506640625,0.00022907447419129312,0.0006872233934700489,-0.00045814894838258624
1761131952445066500,1.08506640625,-0.00038179077091626823,0.0012980886967852712,-0.00045814894838258624
1761131952455066400,1.09506640625,-0.00038179077091626823,-0.0005345070967450738,0.00015271631127689034
1761131952465066500,1.10506640625,-0.0009926559869199991,-0.0005345070967450738,-0.00045814894838258624
1761131952475066400,1.11506640625,-0.0009926559869199991,-0.0005345070967450738,-0.0010690141934901476
1761131952485066500,1.12506640625,-0.00038179077091626823,0.0006872233934700489,0.00015271631127689034
1761131952495066400,1.13506640625,0.00022907447419129312,0.0006872233934700489,0.00015271631127689034
1761131952505066500,1.14506640625,0.00022907447419129312,0.00007635815563844517,-0.001679879380390048
1761131952515066400,1.15506640625,-0.00038179077091626823,0.00007635815563844517,-0.00045814894838258624
1761131952525067300,1.1650673828125,-0.0009926559869199991,-0.0011453722836449742,-0.00045814894838258624
1761131952535067400,1.1750673828125,-0.0009926559869199991,-0.0005345070967450738,0.0007635815418325365
1761131952545067300,1.1850673828125,0.00022907447419129312,0.0006872233934700489,-0.00045814894838258624
1761131952555067400,1.1950673828125,-0.00038179077091626823,0.00007635815563844517,-0.00045814894838258624
1761131952565067300,1.2050673828125,0.00022907447419129312,-0.0005345070967450738,0.0007635815418325365
1761131952575067400,1.2150673828125,0.000839939690195024,0.00007635815563844517,-0.00045814894838258624
1761131952585067300,1.2250673828125,0.00022907447419129312,0.00007635815563844517,-0.0010690141934901476
1761131952595067400,1.2350673828125,-0.00038179077091626823,0.00007635815563844517,-0.00045814894838258624
1761131952605067000,1.24506689453125,-0.0016035212902352214,-0.0011453722836449742,-0.00045814894838258624
1761131952615067000,1.25506689453125,-0.00038179077091626823,-0.0005345070967450738,0.00015271631127689034
1761131952625066000,1.26506591796875,-0.0009926559869199991,-0.0011453722836449742,-0.0010690141934901476
1761131952635066000,1.275066162109375,0.000839939690195024,0.00007635815563844517,0.00015271631127689034
1761131952645066000,1.28506591796875,-0.0016035212902352214,-0.0011453722836449742,0.00015271631127689034
1761131952655066000,1.295066162109375,-0.00038179077091626823,0.00007635815563844517,-0.00045814894838258624
1761131952665066200,1.305066162109375,-0.0016035212902352214,-0.0017562375869601965,-0.0010690141934901476
1761131952675066000,1.315066162109375,-0.0009926559869199991,0.00007635815563844517,-0.0010690141934901476
1761131952685066200,1.325066162109375,0.00022907447419129312,-0.0005345070967450738,-0.00045814894838258624
1761131952695066000,1.335066162109375,-0.0009926559869199991,-0.0005345070967450738,-0.001679879380390048
1761131952705066200,1.345066162109375,-0.00038179077091626823,-0.0005345070967450738,0.00015271631127689034
1761131952715065900,1.35506591796875,-0.0009926559869199991,-0.0011453722836449742,-0.00045814894838258624
1761131952725066800,1.365066650390625,0.00022907447419129312,0.00007635815563844517,0.00015271631127689034
1761131952735066600,1.375066650390625,-0.00038179077091626823,0.00007635815563844517,0.0007635815418325365
1761131952745066800,1.385066650390625,-0.00038179077091626823,-0.0005345070967450738,0.00015271631127689034
1761131952755066600,1.395066650390625,-0.00038179077091626823,-0.0005345070967450738,-0.00045814894838258624
1761131952765066800,1.405066650390625,-0.00038179077091626823,-0.0011453722836449742,0.0007635815418325365
1761131952775066600,1.415066650390625,0.00022907447419129312,-0.0005345070967450738,-0.00045814894838258624
1761131952785066800,1.425066650390625,-0.00038179077091626823,0.00007635815563844517,0.00015271631127689034
1761131952795066600,1.435066650390625,-0.0009926559869199991,0.00007635815563844517,-0.0010690141934901476
1761131952805066800,1.445066650390625,-0.00038179077091626823,-0.0005345070967450738,-0.00045814894838258624
1761131952815066600,1.455066650390625,-0.0009926559869199991,-0.0005345070967450738,0.00015271631127689034
1761131952825065700,1.465065673828125,-0.0009926559869199991,-0.0011453722836449742,-0.001679879380390048
1761131952835065900,1.47506591796875,-0.0016035212902352214,-0.0011453722836449742,0.00015271631127689034
1761131952845065700,1.485065673828125,0.00022907447419129312,-0.0005345070967450738,-0.001679879380390048
1761131952855065900,1.49506591796875,0.000839939690195024,0.00007635815563844517,0.00015271631127689034
1761131952865065700,1.505065673828125,0.00022907447419129312,-0.0011453722836449742,-0.00045814894838258624
1761131952875065900,1.51506591796875,-0.0009926559869199991,-0.0005345070967450738,-0.0010690141934901476
1761131952885065700,1.525065673828125,-0.0009926559869199991,-0.0011453722836449742,-0.001679879380390048
1761131952895065900,1.53506591796875,-0.0009926559869199991,0.0012980886967852712,0.0007635815418325365
1761131952905066200,1.545066162109375,-0.0009926559869199991,-0.0011453722836449742,0.0007635815418325365
1761131952915066400,1.55506640625,-0.0009926559869199991,0.00007635815563844517,0.00015271631127689034
1761131952925067000,1.56506689453125,0.00022907447419129312,0.00007635815563844517,-0.0010690141934901476
1761131952935067100,1.575067138671875,0.00022907447419129312,0.0006872233934700489,0.00015271631127689034
1761131952945258800,1.5852587890625,-0.00038179077091626823,-0.0011453722836449742,-0.00045814894838258624
1761131952955259000,1.5952587890625,0.0014508049935102463,0.0006872233934700489,0.00015271631127689034
1761131952965258800,1.6052587890625,-0.00038179077091626823,0.00007635815563844517,-0.001679879380390048
1761131952975259000,1.6152587890625,-0.0009926559869199991,0.0006872233934700489,0.0007635815418325365
1761131952985258800,1.6252587890625,-0.00038179077091626823,-0.0011453722836449742,-0.001679879380390048
1761131952995259000,1.6352587890625,0.00022907447419129312,-0.0005345070967450738,0.0007635815418325365
1761131953005258800,1.6452587890625,-0.00038179077091626823,-0.0005345070967450738,-0.00045814894838258624
1761131953015259000,1.6552587890625,-0.0009926559869199991,-0.0011453722836449742,0.00015271631127689034
1761131953025258200,1.66525830078125,-0.00038179077091626823,0.0006872233934700489,0.00015271631127689034
1761131953035258000,1.675258056640625,0.00022907447419129312,-0.0005345070967450738,-0.00045814894838258624
1761131953045257700,1.6852578125,-0.0009926559869199991,-0.0005345070967450738,-0.00045814894838258624
1761131953055257900,1.6952578125,-0.0009926559869199991,0.00007635815563844517,0.00015271631127689034
1761131953065257700,1.7052578125,0.00022907447419129312,0.00007635815563844517,0.00015271631127689034
1761131953075257900,1.7152578125,-0.00038179077091626823,0.0006872233934700489,0.00015271631127689034
1761131953085257700,1.7252578125,-0.00038179077091626823,-0.0005345070967450738,0.00015271631127689034
1761131953095257900,1.7352578125,-0.0022143865935504436,-0.0011453722836449742,-0.0010690141934901476
1761131953105257700,1.7452578125,-0.0009926559869199991,-0.0005345070967450738,-0.00045814894838258624
1761131953115257900,1.7552578125,-0.0009926559869199991,-0.0005345070967450738,0.00015271631127689034
1761131953125258500,1.765258544921875,-0.00038179077091626823,-0.0005345070967450738,-0.0010690141934901476
1761131953135258600,1.775258544921875,-0.0009926559869199991,-0.0005345070967450738,-0.00045814894838258624
1761131953145258500,1.785258544921875,-0.0016035212902352214,0.00007635815563844517,-0.00045814894838258624
1761131953155258600,1.795258544921875,-0.0009926559869199991,0.0006872233934700489,-0.00045814894838258624
1761131953165258800,1.8052587890625,-0.00038179077091626823,-0.0005345070967450738,-0.00045814894838258624
1761131953175258600,1.815258544921875,-0.00038179077091626823,0.00007635815563844517,-0.00045814894838258624
1761131953185258800,1.8252587890625,-0.00038179077091626823,0.00007635815563844517,-0.0010690141934901476
1761131953195258600,1.835258544921875,-0.00038179077091626823,0.00007635815563844517,0.0007635815418325365
1761131953205258800,1.8452587890625,-0.00038179077091626823,-0.0005345070967450738,-0.00045814894838258624
1761131953215258600,1.855258544921875,-0.0009926559869199991,-0.0011453722836449742,-0.00045814894838258624
1761131953225257700,1.8652578125,-0.00038179077091626823,-0.0005345070967450738,-0.0010690141934901476
1761131953235257900,1.8752578125,-0.0016035212902352214,-0.0005345070967450738,-0.00045814894838258624
1761131953245257700,1.8852578125,-0.00038179077091626823,0.00007635815563844517,-0.00045814894838258624
1761131953255257900,1.8952578125,-0.00038179077091626823,0.00007635815563844517,0.00015271631127689034
1761131953265257700,1.9052578125,-0.00038179077091626823,-0.0005345070967450738,-0.0010690141934901476
1761131953275257900,1.9152578125,-0.0009926559869199991,-0.0005345070967450738,0.00015271631127689034
1761131953285257700,1.9252578125,-0.0009926559869199991,0.00007635815563844517,-0.00045814894838258624
1761131953295257900,1.9352578125,-0.00038179077091626823,0.00007635815563844517,0.00015271631127689034
1761131953305257700,1.9452578125,-0.00038179077091626823,0.00007635815563844517,0.00015271631127689034
1761131953315257900,1.9552578125,-0.0009926559869199991,-0.0005345070967450738,-0.0010690141934901476
1761131953325258800,1.9652587890625,0.000839939690195024,-0.0011453722836449742,-0.00045814894838258624
1761131953335258600,1.975258544921875,-0.00038179077091626823,-0.0011453722836449742,-0.00045814894838258624
1761131953345259000,1.985259033203125,0.000839939690195024,-0.0005345070967450738,-0.0010690141934901476
1761131953355259000,1.9952587890625,-0.00038179077091626823,-0.0005345070967450738,-0.0010690141934901476
1761131953365259000,2.005259033203125,0.00022907447419129312,0.00007635815563844517,-0.0010690141934901476
1761131953375259000,2.0152587890625,-0.00038179077091626823,0.00007635815563844517,0.00015271631127689034
1761131953385259000,2.025259033203125,-0.00038179077091626823,0.0006872233934700489,0.00015271631127689034
1761131953395259000,2.0352587890625,-0.0009926559869199991,-0.0005345070967450738,0.00015271631127689034
1761131953405259000,2.045259033203125,-0.00038179077091626823,-0.0011453722836449742,-0.00045814894838258624
1761131953415259100,2.055259033203125,-0.00038179077091626823,0.00007635815563844517,-0.00045814894838258624
1761131953425258200,2.06525830078125,-0.0016035212902352214,-0.0005345070967450738,-0.00045814894838258624
1761131953435258000,2.075258056640625,0.00022907447419129312,-0.0005345070967450738,-0.00045814894838258624
1761131953445258200,2.08525830078125,0.0014508049935102463,-0.0005345070967450738,-0.00045814894838258624
1761131953455258000,2.095258056640625,-0.0016035212902352214,-0.0005345070967450738,0.00015271631127689034
1761131953465258200,2.10525830078125,-0.00038179077091626823,0.00007635815563844517,-0.00045814894838258624
1761131953475258000,2.115258056640625,-0.0022143865935504436,0.00007635815563844517,-0.0010690141934901476
1761131953485258200,2.12525830078125,-0.0009926559869199991,-0.0011453722836449742,-0.00045814894838258624
1761131953495258000,2.135258056640625,-0.00038179077091626823,0.00007635815563844517,-0.001679879380390048
1761131953505258200,2.14525830078125,-0.00038179077091626823,0.00007635815563844517,0.0007635815418325365
1761131953515258000,2.155258056640625,-0.00038179077091626823,-0.0005345070967450738,-0.00045814894838258624
1761131953525259000,2.165259033203125,0.00022907447419129312,-0.0005345070967450738,0.00015271631127689034
1761131953535259000,2.1752587890625,-0.0009926559869199991,-0.0005345070967450738,-0.00045814894838258624
1761131953545259000,2.185259033203125,-0.00038179077091626823,-0.0005345070967450738,-0.001679879380390048
1761131953555259100,2.195259033203125,-0.00038179077091626823,0.00007635815563844517,-0.00045814894838258624
1761131953565259000,2.205259033203125,-0.0009926559869199991,0.00007635815563844517,0.00015271631127689034
1761131953575259100,2.215259033203125,-0.00038179077091626823,-0.0005345070967450738,-0.001679879380390048
1761131953585259000,2.225259033203125,-0.0022143865935504436,0.0006872233934700489,0.00015271631127689034
1761131953595259100,2.235259033203125,0.0014508049935102463,0.00007635815563844517,-0.0010690141934901476
1761131953605259000,2.245259033203125,0.00022907447419129312,-0.0005345070967450738,-0.00045814894838258624
1761131953615259100,2.255259033203125,-0.0009926559869199991,-0.0005345070967450738,0.00015271631127689034
1761131953625258200,2.26525830078125,-0.00038179077091626823,0.0006872233934700489,-0.00045814894838258624
1761131953635258000,2.275258056640625,-0.00038179077091626823,0.00007635815563844517,-0.00045814894838258624
1761131953645258200,2.28525830078125,-0.0016035212902352214,0.00007635815563844517,0.00015271631127689034
1761131953655258000,2.295258056640625,0.00022907447419129312,-0.0005345070967450738,-0.0010690141934901476
1761131953665258200,2.30525830078125,-0.00038179077091626823,0.00007635815563844517,0.0007635815418325365
1761131953675258000,2.315258056640625,0.00022907447419129312,-0.0005345070967450738,-0.00045814894838258624
1761131953685258200,2.32525830078125,-0.00038179077091626823,0.0006872233934700489,-0.00045814894838258624
1761131953695258000,2.335258056640625,0.00022907447419129312,-0.0005345070967450738,-0.00045814894838258624
1761131953705258200,2.34525830078125,0.00022907447419129312,0.0006872233934700489,0.00015271631127689034
1761131953715258000,2.355258056640625,-0.00038179077091626823,-0.0011453722836449742,0.00015271631127689034
1761131953725259000,2.365259033203125,-0.0009926559869199991,0.00007635815563844517,-0.00045814894838258624
1761131953735259100,2.375259033203125,-0.0016035212902352214,-0.0005345070967450738,-0.00045814894838258624
1761131953745259000,2.385259033203125,-0.0016035212902352214,-0.0005345070967450738,0.00015271631127689034
1761131953755259100,2.395259033203125,-0.00038179077091626823,-0.0005345070967450738,-0.00045814894838258624
1761131953765259000,2.405259033203125,-0.0009926559869199991,-0.0005345070967450738,0.00015271631127689034
1761131953775259100,2.415259033203125,-0.00038179077091626823,0.00007635815563844517,-0.00045814894838258624
1761131953785259000,2.425259033203125,-0.0009926559869199991,0.0012980886967852712,-0.00045814894838258624
1761131953795259100,2.435259033203125,-0.0016035212902352214,-0.0011453722836449742,-0.0010690141934901476
1761131953805259000,2.445259033203125,0.00022907447419129312,0.00007635815563844517,-0.00045814894838258624
1761131953815259100,2.455259033203125,-0.00038179077091626823,0.00007635815563844517,-0.0010690141934901476
1761131953825258200,2.46525830078125,-0.00038179077091626823,0.00007635815563844517,0.00015271631127689034
1761131953835258000,2.475258056640625,-0.00038179077091626823,-0.0005345070967450738,-0.00045814894838258624
1761131953845258200,2.48525830078125,-0.00038179077091626823,0.0006872233934700489,0.00015271631127689034
1761131953855258000,2.495258056640625,0.000839939690195024,-0.0017562375869601965,0.00015271631127689034
1761131953865258200,2.50525830078125,-0.0009926559869199991,0.00007635815563844517,0.00015271631127689034
1761131953875258000,2.515258056640625,-0.0016035212902352214,-0.0005345070967450738,-0.00045814894838258624
1761131953885258200,2.52525830078125,-0.0009926559869199991,-0.0005345070967450738,-0.0010690141934901476
1761131953895258000,2.535258056640625,-0.00038179077091626823,0.00007635815563844517,-0.0010690141934901476
1761131953905258200,2.54525830078125,-0.00038179077091626823,-0.0011453722836449742,-0.00045814894838258624
1761131953915258000,2.555258056640625,-0.00038179077091626823,0.00007635815563844517,0.00015271631127689034
1761131953925259000,2.565259033203125,-0.00038179077091626823,0.00007635815563844517,0.00015271631127689034
1761131953935259100,2.575259033203125,-0.00038179077091626823,0.00007635815563844517,-0.00045814894838258624
1761131953945259000,2.585259033203125,-0.0016035212902352214,0.00007635815563844517,0.00015271631127689034
1761131953955259100,2.595259033203125,0.00022907447419129312,0.0006872233934700489,0.0007635815418325365
1761131953965259000,2.605259033203125,-0.0016035212902352214,-0.0011453722836449742,-0.0010690141934901476
1761131953975259100,2.615259033203125,-0.0009926559869199991,0.00007635815563844517,-0.00045814894838258624
1761131953985259000,2.625259033203125,-0.00038179077091626823,-0.0011453722836449742,-0.0010690141934901476
1761131953995259100,2.635259033203125,-0.00038179077091626823,-0.0005345070967450738,-0.00045814894838258624
1761131954005259000,2.645259033203125,-0.0009926559869199991,0.00007635815563844517,0.00015271631127689034
1761131954015259100,2.655259033203125,-0.00038179077091626823,-0.0011453722836449742,-0.00045814894838258624
1761131954025258200,2.66525830078125,-0.00038179077091626823,0.00007635815563844517,0.00015271631127689034
1761131954035258000,2.675258056640625,-0.0016035212902352214,0.0006872233934700489,0.0007635815418325365
1761131954045258200,2.68525830078125,-0.0022143865935504436,-0.0005345070967450738,-0.0010690141934901476
1761131954055258000,2.695258056640625,-0.00038179077091626823,-0.0005345070967450738,-0.0010690141934901476
1761131954065258200,2.70525830078125,-0.0009926559869199991,-0.0005345070967450738,-0.00045814894838258624
1761131954075258000,2.715258056640625,0.000839939690195024,0.0006872233934700489,0.00015271631127689034
1761131954085258200,2.72525830078125,0.00022907447419129312,0.00007635815563844517,0.00015271631127689034
1761131954095258000,2.735258056640625,-0.0009926559869199991,0.00007635815563844517,0.00015271631127689034
1761131954105258200,2.74525830078125,-0.0009926559869199991,-0.0005345070967450738,-0.0010690141934901476
1761131954115258000,2.755258056640625,0.00022907447419129312,0.0006872233934700489,0.00015271631127689034
1761131954125259000,2.765259033203125,-0.0016035212902352214,-0.0011453722836449742,0.0007635815418325365
1761131954135259000,2.7752587890625,-0.0016035212902352214,0.00007635815563844517,-0.00045814894838258624
1761131954145259000,2.785259033203125,-0.0016035212902352214,-0.0005345070967450738,-0.001679879380390048
1761131954155259000,2.7952587890625,-0.0022143865935504436,-0.0005345070967450738,0.00015271631127689034
1761131954165259000,2.805259033203125,-0.0009926559869199991,-0.0011453722836449742,-0.00045814894838258624
1761131954175259000,2.8152587890625,-0.0009926559869199991,-0.0005345070967450738,-0.00045814894838258624
1761131954185259000,2.825259033203125,-0.0016035212902352214,0.00007635815563844517,0.00015271631127689034
1761131954195259100,2.835259033203125,-0.00038179077091626823,0.0006872233934700489,0.00015271631127689034
1761131954205259000,2.845259033203125,-0.00038179077091626823,-0.0017562375869601965,-0.00045814894838258624
1761131954215259000,2.8552587890625,-0.00038179077091626823,0.00007635815563844517,-0.00045814894838258624
1761131954235258000,2.875258056640625,0.00022907447419129312,-0.0005345070967450738,-0.0010690141934901476
1761131954245258200,2.88525830078125,0.00022907447419129312,-0.0005345070967450738,-0.00045814894838258624
1761131954255258000,2.895258056640625,-0.00038179077091626823,-0.0011453722836449742,-0.0010690141934901476
1761131954265258200,2.90525830078125,-0.0016035212902352214,-0.0011453722836449742,-0.00045814894838258624
1761131954275258000,2.915258056640625,-0.00038179077091626823,0.0006872233934700489,0.00015271631127689034
1761131954285258200,2.92525830078125,0.00022907447419129312,-0.0005345070967450738,-0.0010690141934901476
1761131954295258000,2.935258056640625,-0.0009926559869199991,-0.0005345070967450738,0.00015271631127689034
1761131954305258200,2.94525830078125,-0.00038179077091626823,-0.0005345070967450738,0.0007635815418325365
1761131954315258000,2.955258056640625,-0.00038179077091626823,0.00007635815563844517,-0.00045814894838258624
1761131954325259000,2.965259033203125,-0.0009926559869199991,-0.0005345070967450738,-0.0010690141934901476
1761131954335259000,2.9752587890625,-0.0009926559869199991,-0.0005345070967450738,0.00015271631127689034
1761131954345259000,2.985259033203125,-0.0009926559869199991,0.00007635815563844517,-0.0010690141934901476
1761131954355259000,2.9952587890625,-0.0009926559869199991,-0.0005345070967450738,0.00015271631127689034
1761131954365259000,3.005259033203125,-0.0009926559869199991,-0.0005345070967450738,0.00015271631127689034
1761131954375259000,3.0152587890625,0.00022907447419129312,0.00007635815563844517,-0.00045814894838258624
1761131954385259000,3.025259033203125,0.00022907447419129312,0.00007635815563844517,0.00015271631127689034
1761131954395259100,3.035259033203125,-0.00038179077091626823,-0.0005345070967450738,-0.00045814894838258624
1761131954405259000,3.045259033203125,-0.0016035212902352214,0.00007635815563844517,-0.0010690141934901476
1761131954415259100,3.055259033203125,0.00022907447419129312,-0.0011453722836449742,-0.00045814894838258624
1761131954425258200,3.06525830078125,-0.0009926559869199991,-0.0005345070967450738,-0.00045814894838258624
1761131954435258400,3.07525830078125,-0.00038179077091626823,-0.0005345070967450738,-0.0010690141934901476
1761131954445258200,3.08525830078125,0.00022907447419129312,-0.0005345070967450738,-0.0010690141934901476
1761131954455258400,3.09525830078125,-0.0009926559869199991,0.00007635815563844517,-0.00045814894838258624
1761131954465258200,3.10525830078125,-0.00038179077091626823,0.00007635815563844517,-0.0010690141934901476
1761131954475258000,3.115258056640625,0.00022907447419129312,0.00007635815563844517,0.0007635815418325365
1761131954485258200,3.12525830078125,-0.00038179077091626823,0.00007635815563844517,0.00015271631127689034
1761131954495258000,3.135258056640625,0.00022907447419129312,0.00007635815563844517,0.00015271631127689034
1761131954505258200,3.14525830078125,0.00022907447419129312,0.00007635815563844517,-0.0010690141934901476
1761131954515258000,3.155258056640625,-0.0009926559869199991,0.00007635815563844517,0.0007635815418325365
1761131954525259000,3.165259033203125,-0.00038179077091626823,-0.0005345070967450738,-0.0010690141934901476
1761131954535259100,3.175259033203125,-0.0009926559869199991,0.0006872233934700489,-0.0010690141934901476
1761131954545259000,3.185259033203125,-0.0009926559869199991,0.00007635815563844517,-0.00045814894838258624
1761131954555259100,3.195259033203125,-0.0016035212902352214,-0.0011453722836449742,-0.00045814894838258624
1761131954565259000,3.205259033203125,0.00022907447419129312,0.00007635815563844517,0.00015271631127689034
1761131954575259100,3.215259033203125,-0.0009926559869199991,0.0006872233934700489,0.00015271631127689034
1761131954585259000,3.225259033203125,0.00022907447419129312,0.00007635815563844517,0.0007635815418325365
1761131954595259100,3.235259033203125,0.00022907447419129312,0.0006872233934700489,0.00015271631127689034
1761131954605259000,3.245259033203125,-0.0009926559869199991,-0.0005345070967450738,0.00015271631127689034
1761131954615259100,3.255259033203125,-0.0009926559869199991,-0.0011453722836449742,-0.00045814894838258624
1761131954625258200,3.26525830078125,-0.0009926559869199991,0.0006872233934700489,0.00015271631127689034
1761131954635258400,3.27525830078125,-0.0016035212902352214,-0.0005345070967450738,-0.0010690141934901476
1761131954645258200,3.28525830078125,-0.00038179077091626823,-0.0011453722836449742,-0.00045814894838258624
1761131954655258400,3.29525830078125,-0.00038179077091626823,0.00007635815563844517,-0.0010690141934901476
1761131954665258200,3.30525830078125,-0.00038179077091626823,0.0006872233934700489,-0.0010690141934901476
1761131954675258400,3.31525830078125,-0.0009926559869199991,-0.0005345070967450738,-0.00045814894838258624
1761131954685258200,3.32525830078125,-0.0016035212902352214,-0.0005345070967450738,-0.00045814894838258624
1761131954695258400,3.33525830078125,-0.002825251780450344,0.00007635815563844517,0.00015271631127689034
1761131954705258200,3.34525830078125,-0.00038179077091626823,0.00007635815563844517,0.00015271631127689034
1761131954715258000,3.355258056640625,-0.0009926559869199991,0.0006872233934700489,-0.00045814894838258624
1761131954725259000,3.365259033203125,-0.00038179077091626823,-0.0005345070967450738,-0.00045814894838258624
1761131954735259100,3.375259033203125,-0.00038179077091626823,0.00007635815563844517,0.0007635815418325365
1761131954745259000,3.385259033203125,0.00022907447419129312,-0.0005345070967450738,0.00015271631127689034
1761131954755259100,3.395259033203125,-0.0016035212902352214,0.00007635815563844517,-0.0010690141934901476
1761131954765259000,3.405259033203125,0.00022907447419129312,-0.0005345070967450738,0.00015271631127689034
1761131954775259100,3.415259033203125,-0.0022143865935504436,0.00007635815563844517,0.00015271631127689034
1761131954785259000,3.425259033203125,-0.00038179077091626823,0.00007635815563844517,0.00015271631127689034
1761131954795259100,3.435259033203125,0.000839939690195024,0.00007635815563844517,0.00015271631127689034
1761131954805259000,3.445259033203125,-0.00038179077091626823,0.00007635815563844517,0.0007635815418325365
1761131954815259100,3.455259033203125,0.000839939690195024,0.00007635815563844517,0.00015271631127689034
1761131954825258200,3.46525830078125,-0.0009926559869199991,-0.0011453722836449742,0.00015271631127689034
1761131954835258400,3.47525830078125,-0.0016035212902352214,-0.0005345070967450738,-0.00045814894838258624
1761131954845258200,3.48525830078125,0.000839939690195024,-0.0011453722836449742,-0.00045814894838258624
1761131954855258000,3.495258056640625,-0.00038179077091626823,0.00007635815563844517,0.00015271631127689034
1761131954865258200,3.50525830078125,-0.0016035212902352214,-0.0017562375869601965,-0.00045814894838258624
1761131954875258000,3.515258056640625,-0.0016035212902352214,-0.0011453722836449742,-0.00045814894838258624
1761131954885258200,3.52525830078125,0.00022907447419129312,0.00007635815563844517,-0.00045814894838258624
1761131954895258000,3.535258056640625,-0.0016035212902352214,-0.0005345070967450738,-0.0010690141934901476
1761131954905258200,3.54525830078125,-0.00038179077091626823,-0.0005345070967450738,0.0007635815418325365
1761131954915258400,3.55525830078125,-0.0016035212902352214,0.00007635815563844517,0.00015271631127689034
1761131954925259000,3.565259033203125,-0.0009926559869199991,0.00007635815563844517,-0.0010690141934901476
1761131954935259100,3.575259033203125,0.000839939690195024,-0.0005345070967450738,-0.00045814894838258624
1761131954945259000,3.585259033203125,-0.0016035212902352214,-0.0005345070967450738,0.00015271631127689034
1761131954955259100,3.595259033203125,-0.0016035212902352214,-0.0005345070967450738,-0.0010690141934901476
1761131954965259000,3.605259033203125,-0.00038179077091626823,0.00007635815563844517,0.00015271631127689034
1761131954975259100,3.615259033203125,-0.0009926559869199991,-0.0005345070967450738,0.00015271631127689034
1761131954985259000,3.625259033203125,0.00022907447419129312,-0.0005345070967450738,0.00015271631127689034
1761131954995259100,3.635259033203125,-0.0009926559869199991,-0.0005345070967450738,-0.00045814894838258624
1761131955005259000,3.645259033203125,0.00022907447419129312,-0.0005345070967450738,-0.00045814894838258624
1761131955015259100,3.655259033203125,-0.00038179077091626823,0.00007635815563844517,0.00015271631127689034
1761131955025258200,3.66525830078125,-0.00038179077091626823,-0.0005345070967450738,-0.00045814894838258624
1761131955035258000,3.675258056640625,-0.0009926559869199991,-0.0005345070967450738,0.00015271631127689034
1761131955045258200,3.68525830078125,-0.0016035212902352214,-0.0005345070967450738,0.00015271631127689034
1761131955055258000,3.695258056640625,-0.00038179077091626823,0.00007635815563844517,0.00015271631127689034
1761131955065258200,3.70525830078125,-0.0016035212902352214,0.00007635815563844517,0.00015271631127689034
1761131955075258000,3.715258056640625,0.000839939690195024,0.00007635815563844517,-0.00045814894838258624
1761131955085258200,3.72525830078125,0.00022907447419129312,-0.0005345070967450738,-0.0010690141934901476
1761131955095258000,3.735258056640625,-0.0016035212902352214,-0.0005345070967450738,-0.00045814894838258624
1761131955105258200,3.74525830078125,0.00022907447419129312,0.0006872233934700489,-0.0010690141934901476
1761131955115258000,3.755258056640625,-0.00038179077091626823,0.0006872233934700489,-0.00045814894838258624
1761131955125259000,3.765259033203125,0.00022907447419129312,0.00007635815563844517,-0.0010690141934901476
1761131955135259100,3.775259033203125,0.00022907447419129312,-0.0005345070967450738,0.00015271631127689034
1761131955145259000,3.785259033203125,-0.00038179077091626823,0.0006872233934700489,0.00015271631127689034
1761131955155259100,3.795259033203125,0.00022907447419129312,-0.0005345070967450738,-0.00045814894838258624
1761131955165259000,3.805259033203125,-0.00038179077091626823,-0.0005345070967450738,0.0007635815418325365
1761131955175259100,3.815259033203125,0.00022907447419129312,-0.0005345070967450738,-0.00045814894838258624
1761131955185259000,3.825259033203125,-0.0009926559869199991,-0.0005345070967450738,-0.00045814894838258624
1761131955195259100,3.835259033203125,-0.0009926559869199991,0.00007635815563844517,0.00015271631127689034
1761131955205259000,3.845259033203125,0.00022907447419129312,0.00007635815563844517,-0.00045814894838258624
1761131955215259100,3.855259033203125,0.00022907447419129312,-0.0005345070967450738,0.00015271631127689034
1761131955225258200,3.86525830078125,-0.0009926559869199991,0.00007635815563844517,-0.00045814894838258624
1761131955235258000,3.875258056640625,-0.0016035212902352214,-0.0011453722836449742,-0.0010690141934901476
1761131955245258200,3.88525830078125,-0.00038179077091626823,-0.0005345070967450738,0.00015271631127689034
1761131955255258000,3.895258056640625,-0.00038179077091626823,-0.0011453722836449742,-0.00045814894838258624
1761131955265258200,3.90525830078125,0.00022907447419129312,-0.0011453722836449742,0.0007635815418325365
1761131955275258000,3.915258056640625,-0.00038179077091626823,-0.0005345070967450738,0.00015271631127689034
1761131955285258200,3.92525830078125,-0.00038179077091626823,0.00007635815563844517,-0.00045814894838258624
1761131955295258000,3.935258056640625,-0.00038179077091626823,0.00007635815563844517,-0.00045814894838258624
1761131955305258200,3.94525830078125,-0.0009926559869199991,-0.0005345070967450738,-0.00045814894838258624
1761131955315258000,3.955258056640625,0.00022907447419129312,0.0006872233934700489,-0.0010690141934901476
1761131955325259000,3.965259033203125,-0.002825251780450344,-0.0005345070967450738,-0.00045814894838258624
1761131955335259100,3.975259033203125,-0.00038179077091626823,-0.0011453722836449742,-0.00045814894838258624
1761131955345259000,3.985259033203125,0.00022907447419129312,0.00007635815563844517,0.00015271631127689034
1761131955355259000,3.9952587890625,-0.00038179077091626823,-0.0005345070967450738,-0.00045814894838258624
1761131955365259000,4.005259033203125,-0.00007635815563844517,-0.0003054326225537807,-0.0003054326225537807
1761131955375259100,4.015259033203125,-0.00007635815563844517,0.0003054326225537807,-0.0003054326225537807
1761131955385259000,4.025259033203125,-0.00007635815563844517,0.0009162978967651725,0.0003054326225537807
1761131955395259000,4.0352587890625,-0.00007635815563844517,-0.0003054326225537807,-0.0003054326225537807
1761131955405259000,4.045259033203125,-0.00007635815563844517,-0.0009162978967651725,-0.0009162978967651725
1761131955415259100,4.055259033203125,-0.00007635815563844517,0.0009162978967651725,-0.0003054326225537807
1761131955425258200,4.06525830078125,-0.0006872233934700489,0.0003054326225537807,-0.001527163083665073
1761131955435258000,4.075258056640625,-0.0012980886967852712,0.0009162978967651725,-0.0009162978967651725
1761131955445258200,4.08525830078125,-0.00007635815563844517,0.0003054326225537807,-0.0009162978967651725
1761131955455258000,4.095258056640625,-0.0006872233934700489,-0.0003054326225537807,0.0009162978967651725
1761131955465258200,4.10525830078125,0.0005345070967450738,0.0009162978967651725,-0.0003054326225537807
1761131955475258000,4.115258056640625,0.0005345070967450738,-0.0009162978967651725,-0.0003054326225537807
1761131955485258000,4.125258056640625,-0.0006872233934700489,0.0009162978967651725,-0.0009162978967651725
1761131955495258000,4.135258056640625,-0.0006872233934700489,-0.0009162978967651725,0.0003054326225537807
1761131955505258000,4.145258056640625,-0.0006872233934700489,-0.001527163083665073,-0.0003054326225537807
1761131955515258000,4.155258056640625,0.0005345070967450738,-0.0003054326225537807,-0.0003054326225537807
1761131955525259000,4.165259033203125,-0.00007635815563844517,0.0003054326225537807,0.0003054326225537807
1761131955535259000,4.1752587890625,-0.0012980886967852712,-0.0009162978967651725,-0.0003054326225537807
1761131955545259000,4.185259033203125,0.0017562375869601965,0.0003054326225537807,0.0009162978967651725
1761131955555259000,4.1952587890625,-0.0006872233934700489,0.0009162978967651725,0.0003054326225537807
1761131955565259000,4.205259033203125,-0.0006872233934700489,0.0003054326225537807,-0.0003054326225537807
1761131955575259000,4.2152587890625,-0.0012980886967852712,-0.0003054326225537807,0.0003054326225537807
1761131955585259000,4.225259033203125,-0.0006872233934700489,-0.0003054326225537807,0.0003054326225537807
1761131955595259000,4.2352587890625,-0.00007635815563844517,-0.0003054326225537807,-0.0009162978967651725
1761131955605259000,4.245259033203125,-0.00007635815563844517,0.0003054326225537807,-0.0009162978967651725
1761131955615259000,4.2552587890625,-0.0006872233934700489,0.0003054326225537807,-0.0003054326225537807
1761131955625258200,4.26525830078125,-0.0006872233934700489,0.0009162978967651725,-0.0003054326225537807
1761131955635258000,4.275258056640625,-0.0006872233934700489,0.0003054326225537807,0.0003054326225537807
1761131955645258200,4.28525830078125,-0.0006872233934700489,-0.0003054326225537807,-0.0003054326225537807
1761131955655258000,4.295258056640625,-0.0006872233934700489,-0.0009162978967651725,-0.0009162978967651725
1761131955665258200,4.30525830078125,-0.00007635815563844517,0.0003054326225537807,-0.0003054326225537807
1761131955675258000,4.315258056640625,-0.0006872233934700489,0.0003054326225537807,-0.0003054326225537807
1761131955685258200,4.32525830078125,0.0005345070967450738,-0.0003054326225537807,0.0003054326225537807
1761131955695258000,4.335258056640625,-0.00007635815563844517,-0.001527163083665073,-0.0009162978967651725
1761131955705258200,4.34525830078125,-0.0012980886967852712,0.0003054326225537807,-0.0003054326225537807
1761131955715258000,4.355258056640625,-0.0012980886967852712,0.0009162978967651725,0.0003054326225537807
1761131955725259000,4.365259033203125,-0.00007635815563844517,-0.0003054326225537807,-0.0003054326225537807
1761131955735259000,4.3752587890625,0.0005345070967450738,-0.0003054326225537807,0.0003054326225537807
1761131955745259000,4.385259033203125,-0.0012980886967852712,-0.0003054326225537807,-0.0003054326225537807
1761131955755259100,4.395259033203125,0.0017562375869601965,0.0009162978967651725,-0.0009162978967651725
1761131955765259000,4.405259033203125,-0.00007635815563844517,-0.0003054326225537807,-0.0003054326225537807
1761131955775259100,4.415259033203125,-0.00007635815563844517,-0.0003054326225537807,-0.0009162978967651725
1761131955785259000,4.425259033203125,-0.00007635815563844517,0.0009162978967651725,-0.0003054326225537807
1761131955795259100,4.435259033203125,-0.00007635815563844517,0.0003054326225537807,-0.0003054326225537807
1761131955805259000,4.445259033203125,-0.0012980886967852712,0.0003054326225537807,-0.0003054326225537807
1761131955815259100,4.455259033203125,-0.0006872233934700489,0.0003054326225537807,0.0003054326225537807
1761131955825258200,4.46525830078125,-0.0006872233934700489,-0.0003054326225537807,-0.0003054326225537807
1761131955835258000,4.475258056640625,-0.0006872233934700489,-0.0009162978967651725,0.0003054326225537807
1761131955845258200,4.48525830078125,0.0011453722836449742,-0.0003054326225537807,-0.0003054326225537807
1761131955855258000,4.495258056640625,-0.00007635815563844517,-0.0003054326225537807,0.0003054326225537807
1761131955865258200,4.50525830078125,-0.00007635815563844517,-0.0009162978967651725,-0.0003054326225537807
1761131955875258000,4.515258056640625,0.0005345070967450738,-0.0003054326225537807,0.0009162978967651725
1761131955885258200,4.52525830078125,-0.0006872233934700489,0.0003054326225537807,-0.0009162978967651725
1761131955895258000,4.535258056640625,-0.0012980886967852712,0.0009162978967651725,-0.0003054326225537807
1761131955905258200,4.54525830078125,-0.00007635815563844517,0.0003054326225537807,-0.0003054326225537807
1761131955915258000,4.555258056640625,-0.00007635815563844517,-0.0003054326225537807,-0.0009162978967651725
1761131955925259000,4.565259033203125,-0.0006872233934700489,0.0003054326225537807,-0.0003054326225537807
1761131955935259100,4.575259033203125,-0.00007635815563844517,-0.001527163083665073,-0.0003054326225537807
1761131955945259000,4.585259033203125,-0.00007635815563844517,-0.0003054326225537807,0.0009162978967651725
1761131955955259100,4.595259033203125,-0.00007635815563844517,0.0003054326225537807,-0.0003054326225537807
1761131955965259000,4.605259033203125,-0.00007635815563844517,0.0003054326225537807,0.0009162978967651725
1761131955975259000,4.6152587890625,-0.00007635815563844517,-0.0003054326225537807,-0.001527163083665073
1761131955985259000,4.625259033203125,0.0005345070967450738,-0.0003054326225537807,0.0003054326225537807
1761131955995259000,4.6352587890625,0.0005345070967450738,-0.0009162978967651725,-0.0003054326225537807
1761131956005259000,4.645259033203125,-0.00007635815563844517,0.0003054326225537807,0.0003054326225537807
1761131956015259000,4.6552587890625,-0.00007635815563844517,0.0009162978967651725,-0.0009162978967651725
1761131956025258200,4.66525830078125,-0.00007635815563844517,0.0003054326225537807,-0.0003054326225537807
1761131956035258400,4.67525830078125,-0.0012980886967852712,0.0003054326225537807,0.0003054326225537807
1761131956045258200,4.68525830078125,-0.00007635815563844517,-0.0003054326225537807,0.0003054326225537807
1761131956055258400,4.69525830078125,0.0005345070967450738,-0.0003054326225537807,0.0003054326225537807
1761131956065258200,4.70525830078125,-0.00007635815563844517,0.0003054326225537807,0.0009162978967651725
1761131956075258400,4.71525830078125,-0.0006872233934700489,-0.0003054326225537807,0.0003054326225537807
1761131956085258200,4.72525830078125,-0.00007635815563844517,-0.0003054326225537807,0.0009162978967651725
1761131956095258400,4.73525830078125,-0.00007635815563844517,0.0003054326225537807,-0.001527163083665073
1761131956105258200,4.74525830078125,-0.0006872233934700489,0.0009162978967651725,-0.0003054326225537807
1761131956115258400,4.75525830078125,-0.0012980886967852712,-0.0003054326225537807,-0.0003054326225537807
1761131956125259300,4.76525927734375,0.0005345070967450738,-0.0003054326225537807,0.0003054326225537807
1761131956135259100,4.775259033203125,-0.00007635815563844517,-0.0003054326225537807,-0.0003054326225537807
1761131956145259300,4.78525927734375,-0.0006872233934700489,-0.0003054326225537807,-0.0009162978967651725
1761131956155259100,4.795259033203125,-0.0012980886967852712,-0.0003054326225537807,0.0003054326225537807
1761131956165259300,4.80525927734375,0.0005345070967450738,-0.0009162978967651725,-0.0003054326225537807
1761131956175259100,4.815259033203125,-0.0006872233934700489,0.0003054326225537807,0.0003054326225537807
1761131956185259300,4.82525927734375,-0.0006872233934700489,-0.0003054326225537807,0.0003054326225537807
1761131956195259100,4.835259033203125,-0.0006872233934700489,-0.0009162978967651725,0.0003054326225537807
1761131956205259300,4.84525927734375,-0.0006872233934700489,-0.0003054326225537807,0.0003054326225537807
1761131956215259100,4.855259033203125,0.0011453722836449742,0.0003054326225537807,-0.0009162978967651725
1761131956225258200,4.86525830078125,-0.0006872233934700489,-0.0003054326225537807,0.0003054326225537807
1761131956235258400,4.87525830078125,-0.00007635815563844517,0.0009162978967651725,0.0003054326225537807
1761131956245258200,4.88525830078125,-0.00007635815563844517,0.0003054326225537807,0.0003054326225537807
1761131956255258400,4.89525830078125,-0.0012980886967852712,0.0003054326225537807,-0.0009162978967651725
1761131956265258200,4.90525830078125,-0.00007635815563844517,-0.0003054326225537807,-0.0003054326225537807
1761131956275258400,4.91525830078125,-0.0012980886967852712,-0.001527163083665073,0.0003054326225537807
1761131956285258200,4.92525830078125,-0.00007635815563844517,-0.0003054326225537807,-0.0009162978967651725
1761131956295258400,4.93525830078125,0.0005345070967450738,0.0009162978967651725,-0.0003054326225537807
1761131956305258200,4.94525830078125,-0.0012980886967852712,0.0009162978967651725,0.0003054326225537807
1761131956315258400,4.95525830078125,0.0005345070967450738,0.0009162978967651725,0.0003054326225537807
1761131956325259000,4.965259033203125,-0.0006872233934700489,0.0003054326225537807,-0.001527163083665073
1761131956335259000,4.9752587890625,-0.0006872233934700489,0.0003054326225537807,-0.0003054326225537807
1761131956345259000,4.985259033203125,-0.0006872233934700489,0.0003054326225537807,-0.0009162978967651725
1761131956355259000,4.9952587890625,0.0005345070967450738,0.0003054326225537807,0.0003054326225537807
1761131956365259000,5.005259033203125,-0.0006872233934700489,-0.0003054326225537807,0.0003054326225537807
1761131956375259000,5.0152587890625,-0.0006872233934700489,0.0003054326225537807,-0.0003054326225537807
1761131956385259000,5.025259033203125,-0.00007635815563844517,0.0009162978967651725,-0.0003054326225537807
1761131956395259000,5.0352587890625,0.0005345070967450738,0.0003054326225537807,-0.0003054326225537807
1761131956405259000,5.045259033203125,-0.00007635815563844517,0.0003054326225537807,0.0003054326225537807
1761131956415259100,5.055259033203125,-0.00007635815563844517,-0.001527163083665073,-0.001527163083665073
1761131956425258200,5.06525830078125,-0.0006872233934700489,0.0003054326225537807,-0.0009162978967651725
1761131956435258000,5.075258056640625,-0.0006872233934700489,-0.0009162978967651725,-0.0009162978967651725
1761131956445258200,5.08525830078125,-0.00007635815563844517,0.0003054326225537807,0.0009162978967651725
1761131956455258000,5.095258056640625,-0.0006872233934700489,0.0003054326225537807,0.0003054326225537807
1761131956465258200,5.10525830078125,-0.0006872233934700489,0.0003054326225537807,0.0009162978967651725
1761131956475258000,5.115258056640625,-0.00007635815563844517,-0.001527163083665073,0.0003054326225537807
1761131956485258200,5.12525830078125,-0.0006872233934700489,-0.0003054326225537807,-0.0009162978967651725
1761131956495258000,5.135258056640625,-0.0006872233934700489,-0.0003054326225537807,0.0003054326225537807
1761131956505258200,5.14525830078125,0.0005345070967450738,0.0003054326225537807,-0.0003054326225537807
1761131956515258000,5.155258056640625,0.0005345070967450738,-0.0009162978967651725,0.0003054326225537807
1761131956525259000,5.165259033203125,0.0005345070967450738,0.0009162978967651725,-0.0009162978967651725
1761131956535259000,5.1752587890625,-0.00007635815563844517,-0.0003054326225537807,-0.0003054326225537807
1761131956545259000,5.185259033203125,-0.00007635815563844517,0.0009162978967651725,0.0003054326225537807
1761131956555259100,5.195259033203125,-0.0006872233934700489,0.0009162978967651725,-0.0003054326225537807
1761131956565259000,5.205259033203125,-0.0006872233934700489,0.0009162978967651725,-0.0003054326225537807
1761131956575259100,5.215259033203125,-0.00007635815563844517,0.0003054326225537807,-0.0003054326225537807
1761131956585259000,5.225259033203125,0.0011453722836449742,-0.0003054326225537807,-0.0003054326225537807
1761131956595259100,5.235259033203125,-0.0012980886967852712,-0.0003054326225537807,-0.0003054326225537807
1761131956605259000,5.245259033203125,-0.00007635815563844517,-0.0003054326225537807,-0.0003054326225537807
1761131956615259100,5.255259033203125,-0.0006872233934700489,-0.0009162978967651725,-0.0003054326225537807
1761131956625258200,5.26525830078125,-0.0012980886967852712,-0.0009162978967651725,0.0003054326225537807
1761131956635258000,5.275258056640625,-0.00007635815563844517,-0.0009162978967651725,-0.0009162978967651725
1761131956645258200,5.28525830078125,-0.00007635815563844517,0.0003054326225537807,0.0003054326225537807
1761131956655258000,5.295258056640625,0.0005345070967450738,-0.0003054326225537807,0.0003054326225537807
1761131956665258200,5.30525830078125,0.0005345070967450738,-0.0003054326225537807,-0.0003054326225537807
1761131956675258000,5.315258056640625,-0.00007635815563844517,-0.0003054326225537807,-0.0003054326225537807
1761131956685258200,5.32525830078125,0.0005345070967450738,0.0009162978967651725,0.0003054326225537807
1761131956695258000,5.335258056640625,-0.0012980886967852712,-0.0003054326225537807,0.0003054326225537807
1761131956705258200,5.34525830078125,-0.00007635815563844517,0.0003054326225537807,-0.0009162978967651725
1761131956715258000,5.355258056640625,-0.0006872233934700489,-0.0009162978967651725,-0.0003054326225537807
1761131956725259000,5.365259033203125,-0.00007635815563844517,0.0003054326225537807,0.0003054326225537807
1761131956735259000,5.3752587890625,-0.0006872233934700489,-0.0003054326225537807,0.0003054326225537807
1761131956745259000,5.385259033203125,-0.0012980886967852712,-0.0003054326225537807,-0.0003054326225537807
1761131956755259100,5.395259033203125,-0.0006872233934700489,-0.0003054326225537807,0.0003054326225537807
1761131956765259000,5.405259033203125,0.0005345070967450738,-0.0009162978967651725,0.0003054326225537807
1761131956775259100,5.415259033203125,-0.00007635815563844517,-0.0003054326225537807,0.0003054326225537807
1761131956785259000,5.425259033203125,0.0005345070967450738,0.0003054326225537807,-0.0003054326225537807
1761131956795259100,5.435259033203125,0.0005345070967450738,-0.0003054326225537807,0.0003054326225537807
1761131956805259000,5.445259033203125,-0.0006872233934700489,-0.0003054326225537807,0.0009162978967651725
1761131956815259100,5.455259033203125,-0.00007635815563844517,-0.0003054326225537807,-0.0003054326225537807
1761131956825258200,5.46525830078125,-0.0006872233934700489,0.0003054326225537807,0.0009162978967651725
1761131956835258400,5.47525830078125,-0.0006872233934700489,-0.0009162978967651725,-0.0009162978967651725
1761131956845258200,5.48525830078125,-0.0006872233934700489,-0.0003054326225537807,-0.0003054326225537807
1761131956855258000,5.495258056640625,-0.00007635815563844517,-0.0003054326225537807,0.0003054326225537807
1761131956865258200,5.50525830078125,-0.00007635815563844517,-0.0003054326225537807,-0.0003054326225537807
1761131956875258000,5.515258056640625,-0.00007635815563844517,-0.0003054326225537807,0.0009162978967651725
1761131956885258200,5.52525830078125,-0.00007635815563844517,0.0003054326225537807,0.0003054326225537807
1761131956895258000,5.535258056640625,0.0011453722836449742,0.0003054326225537807,0.0003054326225537807
1761131956905258200,5.54525830078125,0.0011453722836449742,-0.0009162978967651725,0.0009162978967651725
1761131956915258400,5.55525830078125,-0.0012980886967852712,-0.0009162978967651725,0.0003054326225537807
1761131956925259000,5.565259033203125,-0.00007635815563844517,-0.0003054326225537807,-0.0003054326225537807
1761131956935259100,5.575259033203125,-0.0012980886967852712,-0.0009162978967651725,0.0003054326225537807
1761131956945259000,5.585259033203125,-0.00007635815563844517,-0.0003054326225537807,0.0003054326225537807
1761131956955259100,5.595259033203125,-0.00007635815563844517,-0.0009162978967651725,-0.0009162978967651725
1761131956965259000,5.605259033203125,-0.0006872233934700489,-0.0003054326225537807,-0.0003054326225537807
1761131956975259100,5.615259033203125,-0.00007635815563844517,0.0003054326225537807,-0.0003054326225537807
1761131956985259000,5.625259033203125,0.0005345070967450738,0.0003054326225537807,-0.0003054326225537807
1761131956995259100,5.635259033203125,-0.00007635815563844517,0.0003054326225537807,-0.0003054326225537807
1761131957005259000,5.645259033203125,-0.00007635815563844517,-0.0003054326225537807,0.0003054326225537807
1761131957015259100,5.655259033203125,-0.0006872233934700489,-0.0009162978967651725,0.0003054326225537807
1761131957025258200,5.66525830078125,0.0005345070967450738,0.0003054326225537807,0.0003054326225537807
1761131957035258400,5.67525830078125,-0.0012980886967852712,-0.0003054326225537807,-0.0009162978967651725
1761131957045258200,5.68525830078125,0.0011453722836449742,-0.0003054326225537807,-0.0009162978967651725
1761131957055258000,5.695258056640625,0.0005345070967450738,-0.0003054326225537807,0.0009162978967651725
1761131957065258200,5.70525830078125,-0.0006872233934700489,0.0003054326225537807,-0.0003054326225537807
1761131957075258000,5.715258056640625,-0.00007635815563844517,-0.0009162978967651725,-0.0003054326225537807
1761131957085258200,5.72525830078125,-0.00007635815563844517,-0.0009162978967651725,-0.0009162978967651725
1761131957095258000,5.735258056640625,0.0005345070967450738,0.0003054326225537807,-0.0009162978967651725
1761131957105258200,5.74525830078125,-0.00007635815563844517,0.0003054326225537807,-0.0003054326225537807
1761131957115258000,5.755258056640625,0.0005345070967450738,-0.0003054326225537807,0.0003054326225537807
1761131957125259000,5.765259033203125,-0.0006872233934700489,-0.0003054326225537807,-0.0003054326225537807
1761131957135259000,5.7752587890625,-0.0006872233934700489,-0.0003054326225537807,-0.0003054326225537807
1761131957145259000,5.785259033203125,-0.0012980886967852712,0.0003054326225537807,-0.0003054326225537807
1761131957155259000,5.7952587890625,-0.00007635815563844517,0.0003054326225537807,0.0003054326225537807
1761131957165259000,5.805259033203125,-0.0006872233934700489,-0.0003054326225537807,0.0003054326225537807
1761131957175259100,5.815259033203125,0.0011453722836449742,-0.0003054326225537807,-0.0003054326225537807
1761131957185259000,5.825259033203125,-0.00007635815563844517,0.0003054326225537807,0.0009162978967651725
1761131957195259100,5.835259033203125,0.0005345070967450738,-0.0009162978967651725,0.0003054326225537807
1761131957205259000,5.845259033203125,-0.0006872233934700489,-0.001527163083665073,0.0003054326225537807
1761131957215259000,5.8552587890625,-0.0006872233934700489,-0.0003054326225537807,0.0003054326225537807
1761131957225258200,5.86525830078125,-0.0006872233934700489,0.0003054326225537807,-0.0003054326225537807
1761131957235258000,5.875258056640625,-0.0006872233934700489,0.0003054326225537807,0.0009162978967651725
1761131957245258200,5.88525830078125,-0.0006872233934700489,-0.0003054326225537807,0.0003054326225537807
1761131957255258000,5.895258056640625,0.0005345070967450738,-0.0009162978967651725,0.0003054326225537807
1761131957265258200,5.90525830078125,0.0011453722836449742,-0.0003054326225537807,-0.0003054326225537807
1761131957275258000,5.915258056640625,0.0005345070967450738,-0.0003054326225537807,-0.001527163083665073
1761131957285258200,5.92525830078125,-0.00007635815563844517,0.0003054326225537807,0.0003054326225537807
1761131957295258000,5.935258056640625,-0.00007635815563844517,-0.0003054326225537807,0.0003054326225537807
1761131957305258200,5.94525830078125,-0.00007635815563844517,-0.0009162978967651725,-0.0003054326225537807
1761131957315258000,5.955258056640625,-0.00007635815563844517,0.0003054326225537807,0.0009162978967651725
1761131957325259000,5.965259033203125,-0.0019089538836851716,-0.0003054326225537807,-0.001527163083665073
1761131957335259100,5.975259033203125,-0.0006872233934700489,-0.0003054326225537807,-0.0003054326225537807
1761131957345259000,5.985259033203125,-0.0006872233934700489,-0.0003054326225537807,-0.0003054326225537807
1761131957355259100,5.995259033203125,-0.00007635815563844517,-0.0003054326225537807,0.0003054326225537807
1761131957365259000,6.005259033203125,0.0005345070967450738,0.0003054326225537807,-0.0003054326225537807
1761131957375259100,6.015259033203125,-0.00007635815563844517,-0.0003054326225537807,0.0003054326225537807
1761131957385259000,6.025259033203125,-0.0006872233934700489,-0.0003054326225537807,0.0003054326225537807
1761131957395259100,6.035259033203125,0.0005345070967450738,-0.0009162978967651725,0.0003054326225537807
1761131957405259000,6.045259033203125,0.0005345070967450738,-0.0003054326225537807,0.0003054326225537807
1761131957415259100,6.055259033203125,-0.0006872233934700489,-0.0003054326225537807,0.0003054326225537807
1761131957425258500,6.065258544921875,0.0011453722836449742,-0.0003054326225537807,-0.0003054326225537807
1761131957435258400,6.07525830078125,-0.0006872233934700489,-0.0003054326225537807,-0.0003054326225537807
1761131957445258500,6.085258544921875,-0.0012980886967852712,-0.0003054326225537807,-0.0009162978967651725
1761131957455258400,6.09525830078125,0.0011453722836449742,-0.0003054326225537807,0.0003054326225537807
1761131957465258500,6.105258544921875,-0.00007635815563844517,-0.0009162978967651725,-0.0003054326225537807
1761131957475258400,6.11525830078125,0.0005345070967450738,0.0003054326225537807,0.0009162978967651725
1761131957485258500,6.125258544921875,-0.00007635815563844517,0.0003054326225537807,0.0009162978967651725
1761131957495258400,6.13525830078125,-0.0006872233934700489,-0.0003054326225537807,-0.0003054326225537807
1761131957505258500,6.145258544921875,0.0011453722836449742,0.0003054326225537807,0.0009162978967651725
1761131957515258400,6.15525830078125,-0.00007635815563844517,-0.0003054326225537807,-0.0003054326225537807
1761131957525259300,6.16525927734375,-0.00007635815563844517,-0.0009162978967651725,-0.0003054326225537807
1761131957535259100,6.175259033203125,-0.00007635815563844517,-0.0003054326225537807,-0.0003054326225537807
1761131957545259300,6.18525927734375,-0.00007635815563844517,-0.0003054326225537807,0.0003054326225537807
1761131957555259100,6.195259033203125,-0.00007635815563844517,-0.0003054326225537807,0.0003054326225537807
1761131957565259300,6.20525927734375,-0.00007635815563844517,0.0009162978967651725,-0.0003054326225537807
1761131957575259100,6.215259033203125,-0.0006872233934700489,-0.0009162978967651725,0.0003054326225537807
1761131957585259300,6.22525927734375,-0.00007635815563844517,-0.0003054326225537807,0.0003054326225537807
1761131957595259100,6.235259033203125,-0.00007635815563844517,-0.0003054326225537807,0.0003054326225537807
1761131957605259300,6.24525927734375,-0.0006872233934700489,-0.0003054326225537807,-0.0009162978967651725
1761131957615259100,6.255259033203125,0.0011453722836449742,0.0009162978967651725,-0.0003054326225537807
1761131957625258500,6.265258544921875,-0.00007635815563844517,-0.0009162978967651725,-0.0003054326225537807
1761131957635258400,6.27525830078125,0.0005345070967450738,0.0003054326225537807,0.0003054326225537807
1761131957645258500,6.285258544921875,-0.0006872233934700489,-0.0003054326225537807,0.0003054326225537807
1761131957655258400,6.29525830078125,-0.00007635815563844517,-0.0003054326225537807,0.0003054326225537807
1761131957665258500,6.305258544921875,-0.00007635815563844517,0.0009162978967651725,-0.0009162978967651725
1761131957675258400,6.31525830078125,0.0005345070967450738,0.0003054326225537807,0.0009162978967651725
1761131957685258500,6.325258544921875,-0.0006872233934700489,-0.0003054326225537807,0.0003054326225537807
1761131957695258400,6.33525830078125,0.0011453722836449742,0.0003054326225537807,-0.0009162978967651725
1761131957705258500,6.345258544921875,-0.00007635815563844517,-0.0009162978967651725,-0.0009162978967651725
1761131957715258400,6.35525830078125,-0.0006872233934700489,0.0003054326225537807,-0.0003054326225537807
1761131957725259000,6.365259033203125,0.0005345070967450738,-0.0003054326225537807,-0.0003054326225537807
1761131957735259000,6.3752587890625,-0.00007635815563844517,-0.0003054326225537807,-0.0009162978967651725
1761131957745259000,6.385259033203125,-0.0006872233934700489,0.0003054326225537807,0.0003054326225537807
1761131957755259100,6.395259033203125,-0.0019089538836851716,-0.0009162978967651725,-0.0003054326225537807
1761131957765259000,6.405259033203125,-0.0019089538836851716,-0.0003054326225537807,-0.0009162978967651725
1761131957775259100,6.415259033203125,-0.0006872233934700489,0.0003054326225537807,0.0003054326225537807
1761131957785259000,6.425259033203125,-0.0006872233934700489,-0.0003054326225537807,-0.0009162978967651725
1761131957795259100,6.435259033203125,-0.00007635815563844517,0.0003054326225537807,0.0003054326225537807
1761131957805259000,6.445259033203125,-0.00007635815563844517,-0.0009162978967651725,0.0003054326225537807
1761131957815259100,6.455259033203125,-0.0006872233934700489,-0.0009162978967651725,-0.0003054326225537807
1761131957825258200,6.46525830078125,-0.00007635815563844517,-0.0003054326225537807,-0.0003054326225537807
1761131957835258000,6.475258056640625,-0.00007635815563844517,-0.0003054326225537807,-0.0003054326225537807
1761131957845258200,6.48525830078125,-0.00007635815563844517,0.0003054326225537807,0.0003054326225537807
1761131957855258000,6.495258056640625,-0.0006872233934700489,-0.0009162978967651725,-0.0009162978967651725
1761131957865258200,6.50525830078125,-0.00007635815563844517,0.0003054326225537807,-0.0009162978967651725
1761131957875258000,6.515258056640625,-0.00007635815563844517,0.0009162978967651725,0.0003054326225537807
1761131957885258200,6.52525830078125,-0.0006872233934700489,-0.0009162978967651725,-0.0003054326225537807
1761131957895258000,6.535258056640625,-0.0006872233934700489,-0.0003054326225537807,-0.0003054326225537807
1761131957905258200,6.54525830078125,0.0011453722836449742,0.0003054326225537807,-0.0003054326225537807
1761131957915258000,6.555258056640625,-0.0012980886967852712,0.0003054326225537807,-0.0003054326225537807
1761131957925259000,6.565259033203125,-0.0012980886967852712,-0.0003054326225537807,0.0003054326225537807
1761131957935259100,6.575259033203125,-0.00007635815563844517,-0.0003054326225537807,-0.0003054326225537807
1761131957945259000,6.585259033203125,-0.0006872233934700489,-0.0009162978967651725,0.0003054326225537807
1761131957955259100,6.595259033203125,-0.0006872233934700489,-0.0003054326225537807,-0.0003054326225537807
1761131957965259000,6.605259033203125,-0.0012980886967852712,0.0003054326225537807,0.0003054326225537807
1761131957975259100,6.615259033203125,-0.00007635815563844517,-0.0003054326225537807,0.0003054326225537807
1761131957985259000,6.625259033203125,0.0005345070967450738,-0.0003054326225537807,0.0003054326225537807
1761131957995259100,6.635259033203125,-0.0006872233934700489,-0.0003054326225537807,0.0003054326225537807
1761131958005259000,6.645259033203125,-0.00007635815563844517,-0.0009162978967651725,-0.0009162978967651725
1761131958015259100,6.655259033203125,0.0011453722836449742,0.0009162978967651725,-0.0003054326225537807
1761131958025258200,6.66525830078125,-0.00007635815563844517,-0.0009162978967651725,-0.0003054326225537807
1761131958035258000,6.675258056640625,-0.0012980886967852712,-0.0003054326225537807,-0.0003054326225537807
1761131958045258200,6.68525830078125,-0.00007635815563844517,-0.0003054326225537807,0.0003054326225537807
1761131958055258000,6.695258056640625,-0.00007635815563844517,-0.0009162978967651725,-0.0003054326225537807
1761131958065258200,6.70525830078125,-0.00007635815563844517,-0.001527163083665073,-0.0003054326225537807
1761131958075258000,6.715258056640625,-0.0006872233934700489,-0.0009162978967651725,-0.0009162978967651725
1761131958085258200,6.72525830078125,-0.0012980886967852712,0.0003054326225537807,-0.0003054326225537807
1761131958095258000,6.735258056640625,0.0005345070967450738,0.0003054326225537807,-0.0003054326225537807
1761131958105258200,6.74525830078125,0.0005345070967450738,0.0003054326225537807,-0.0003054326225537807
1761131958115258000,6.755258056640625,-0.0012980886967852712,0.0003054326225537807,0.0009162978967651725
1761131958125259000,6.765259033203125,-0.0012980886967852712,0.0009162978967651725,-0.0003054326225537807
1761131958135259000,6.7752587890625,-0.0012980886967852712,0.0003054326225537807,-0.0003054326225537807
1761131958145259000,6.785259033203125,-0.00007635815563844517,-0.0009162978967651725,-0.0003054326225537807
1761131958155259000,6.7952587890625,-0.0006872233934700489,-0.0003054326225537807,-0.0003054326225537807
1761131958165259000,6.805259033203125,-0.00007635815563844517,-0.0009162978967651725,0.0003054326225537807
1761131958175259000,6.8152587890625,-0.0012980886967852712,-0.0003054326225537807,-0.0003054326225537807
1761131958185259000,6.825259033203125,-0.00007635815563844517,-0.0003054326225537807,-0.0003054326225537807
1761131958195259000,6.8352587890625,-0.00007635815563844517,-0.0003054326225537807,0.0003054326225537807
1761131958205259000,6.845259033203125,-0.00007635815563844517,0.001527163083665073,-0.0003054326225537807
1761131958215259000,6.8552587890625,0.0005345070967450738,-0.0003054326225537807,0.0003054326225537807
1761131958225258000,6.865258056640625,-0.0006872233934700489,0.0003054326225537807,-0.0003054326225537807
1761131958235258000,6.875258056640625,-0.00007635815563844517,-0.0009162978967651725,-0.0003054326225537807
1761131958245258000,6.885258056640625,0.0005345070967450738,0.0003054326225537807,0.0003054326225537807
1761131958255258000,6.895258056640625,-0.00007635815563844517,-0.0003054326225537807,0.0003054326225537807
1761131958265258000,6.905258056640625,-0.00007635815563844517,0.0003054326225537807,-0.0003054326225537807
1761131958275258000,6.915258056640625,0.0005345070967450738,-0.0003054326225537807,0.0003054326225537807
1761131958285258000,6.925258056640625,-0.00007635815563844517,0.0003054326225537807,-0.0003054326225537807
1761131958295258000,6.935258056640625,0.0005345070967450738,-0.0003054326225537807,-0.0003054326225537807
1761131958305258000,6.945258056640625,-0.0006872233934700489,-0.0003054326225537807,-0.0003054326225537807
1761131958315258000,6.955258056640625,0.0005345070967450738,-0.0009162978967651725,-0.0003054326225537807
1761131958325258800,6.9652587890625,-0.00007635815563844517,0.0003054326225537807,-0.0003054326225537807
1761131958335259000,6.9752587890625,0.0005345070967450738,0.0003054326225537807,0.0003054326225537807
1761131958345258800,6.9852587890625,-0.0006872233934700489,-0.0009162978967651725,-0.0009162978967651725
1761131958355259000,6.9952587890625,-0.00007635815563844517,-0.0003054326225537807,0.0003054326225537807
1761131958365258800,7.0052587890625,0.0005345070967450738,-0.0003054326225537807,-0.0003054326225537807
1761131958375259000,7.0152587890625,-0.0006872233934700489,-0.0003054326225537807,0.0009162978967651725
1761131958385258500,7.025258544921875,0.0011453722836449742,-0.0009162978967651725,-0.0009162978967651725
1761131958395258600,7.035258544921875,-0.00007635815563844517,-0.0003054326225537807,0.0003054326225537807
1761131958405258500,7.045258544921875,0.0011453722836449742,0.0003054326225537807,-0.0003054326225537807
1761131958415258600,7.055258544921875,-0.0006872233934700489,0.0003054326225537807,-0.0003054326225537807
1761131958425257700,7.0652578125,-0.0006872233934700489,-0.0009162978967651725,-0.0003054326225537807
1761131958435257900,7.0752578125,0.0005345070967450738,-0.0009162978967651725,-0.0009162978967651725
1761131958445257700,7.0852578125,0.0005345070967450738,-0.0003054326225537807,0.0003054326225537807
1761131958455257900,7.0952578125,0.0017562375869601965,0.0003054326225537807,-0.0003054326225537807
1761131958465257700,7.1052578125,-0.0012980886967852712,-0.0009162978967651725,0.0003054326225537807
1761131958475257900,7.1152578125,-0.00007635815563844517,0.0009162978967651725,0.0003054326225537807
1761131958485257700,7.1252578125,-0.0006872233934700489,-0.0003054326225537807,0.0009162978967651725
1761131958495257900,7.1352578125,-0.0006872233934700489,0.0003054326225537807,0.0003054326225537807
1761131958505257700,7.1452578125,-0.0012980886967852712,-0.0003054326225537807,0.0003054326225537807
1761131958515257900,7.1552578125,-0.00007635815563844517,0.0003054326225537807,-0.0003054326225537807
1761131958525258800,7.1652587890625,-0.00007635815563844517,0.0003054326225537807,-0.0009162978967651725
1761131958535258600,7.175258544921875,-0.0006872233934700489,-0.0003054326225537807,0.0003054326225537807
1761131958545258800,7.1852587890625,-0.00007635815563844517,0.0003054326225537807,0.0003054326225537807
1761131958555258600,7.195258544921875,0.0005345070967450738,0.0009162978967651725,0.0003054326225537807
1761131958565258800,7.2052587890625,-0.00007635815563844517,-0.0003054326225537807,-0.0009162978967651725
1761131958575258600,7.215258544921875,0.0011453722836449742,0.0009162978967651725,-0.0003054326225537807
1761131958585258500,7.225258544921875,-0.0006872233934700489,-0.0003054326225537807,-0.0003054326225537807
1761131958595258600,7.235258544921875,-0.0006872233934700489,-0.0003054326225537807,-0.0003054326225537807
1761131958605258500,7.245258544921875,-0.0006872233934700489,0.0003054326225537807,0.0003054326225537807
1761131958615258600,7.255258544921875,0.0011453722836449742,-0.0009162978967651725,-0.0003054326225537807
1761131958625257700,7.2652578125,-0.0006872233934700489,0.0003054326225537807,0.0003054326225537807
1761131958635257900,7.2752578125,-0.00007635815563844517,0.0003054326225537807,0.0009162978967651725
1761131958645257700,7.2852578125,0.0005345070967450738,0.0003054326225537807,0.0003054326225537807
1761131958655257900,7.2952578125,-0.00007635815563844517,0.0003054326225537807,0.0003054326225537807
1761131958665257700,7.3052578125,-0.0012980886967852712,0.0003054326225537807,0.0009162978967651725
1761131958675257900,7.3152578125,-0.00007635815563844517,0.0003054326225537807,0.001527163083665073
1761131958685258000,7.325258056640625,-0.00007635815563844517,0.0003054326225537807,0.0003054326225537807
1761131958695258000,7.335258056640625,-0.0006872233934700489,-0.0003054326225537807,-0.0003054326225537807
1761131958705258000,7.345258056640625,-0.0006872233934700489,-0.0003054326225537807,0.0009162978967651725
1761131958715258000,7.355258056640625,-0.00007635815563844517,0.0003054326225537807,-0.0009162978967651725
1761131958725259000,7.365259033203125,-0.0006872233934700489,-0.0003054326225537807,0.0009162978967651725
1761131958735259000,7.3752587890625,-0.0012980886967852712,-0.0009162978967651725,-0.0003054326225537807
1761131958745259000,7.385259033203125,-0.0006872233934700489,-0.0003054326225537807,0.0003054326225537807
1761131958755259000,7.3952587890625,-0.0006872233934700489,0.0003054326225537807,0.0003054326225537807
1761131958765259000,7.405259033203125,-0.00007635815563844517,0.0003054326225537807,-0.0009162978967651725
1761131958775259000,7.4152587890625,-0.0012980886967852712,0.0003054326225537807,-0.0009162978967651725
1761131958785259000,7.425259033203125,-0.0006872233934700489,0.0003054326225537807,0.0003054326225537807
1761131958795259000,7.4352587890625,0.0005345070967450738,0.0003054326225537807,-0.0003054326225537807
1761131958805259000,7.445259033203125,-0.00007635815563844517,-0.0003054326225537807,0.0009162978967651725
1761131958815259000,7.4552587890625,0.0005345070967450738,0.0003054326225537807,0.0003054326225537807
1761131958825258000,7.465258056640625,-0.0012980886967852712,-0.001527163083665073,0.0003054326225537807
1761131958835258000,7.475258056640625,-0.00007635815563844517,-0.0009162978967651725,-0.0003054326225537807
1761131958845258000,7.485258056640625,-0.0012980886967852712,-0.0003054326225537807,0.0003054326225537807
1761131958855258000,7.495258056640625,0.0005345070967450738,0.0003054326225537807,0.0003054326225537807
1761131958865258000,7.505258056640625,-0.0006872233934700489,0.0003054326225537807,0.0003054326225537807
1761131958875258000,7.515258056640625,-0.0006872233934700489,-0.0003054326225537807,-0.0009162978967651725
1761131958885258200,7.52525830078125,-0.0006872233934700489,-0.0003054326225537807,0.0003054326225537807
1761131958895258000,7.535258056640625,-0.0006872233934700489,-0.0003054326225537807,-0.0009162978967651725
1761131958905258200,7.54525830078125,-0.0019089538836851716,-0.0003054326225537807,-0.001527163083665073
1761131958915258000,7.555258056640625,-0.0006872233934700489,-0.0003054326225537807,-0.0003054326225537807
1761131958925259000,7.565259033203125,-0.00007635815563844517,-0.0003054326225537807,-0.0003054326225537807
1761131958935259100,7.575259033203125,0.0005345070967450738,0.0003054326225537807,0.0003054326225537807
1761131958945259000,7.585259033203125,-0.0006872233934700489,0.0009162978967651725,-0.0009162978967651725
1761131958955259100,7.595259033203125,-0.00007635815563844517,0.0003054326225537807,0.0003054326225537807
1761131958965259000,7.605259033203125,0.0011453722836449742,-0.0003054326225537807,-0.0003054326225537807
1761131958975259000,7.6152587890625,-0.0012980886967852712,0.0003054326225537807,-0.0009162978967651725
1761131958985259000,7.625259033203125,-0.002519819187000394,0.0003054326225537807,-0.0009162978967651725
1761131958995259000,7.6352587890625,-0.00007635815563844517,-0.0003054326225537807,-0.0003054326225537807
1761131959005259000,7.645259033203125,-0.00007635815563844517,0.0003054326225537807,-0.0003054326225537807
1761131959015259000,7.6552587890625,-0.0006872233934700489,-0.001527163083665073,-0.0009162978967651725
1761131959025258200,7.66525830078125,-0.0006872233934700489,0.0003054326225537807,-0.0003054326225537807
1761131959035258000,7.675258056640625,0.0005345070967450738,-0.0003054326225537807,-0.0003054326225537807
1761131959045258200,7.68525830078125,0.0005345070967450738,-0.0009162978967651725,-0.0003054326225537807
1761131959055258000,7.695258056640625,-0.00007635815563844517,-0.0027488935738801956,-0.0009162978967651725
1761131959065258200,7.70525830078125,-0.00007635815563844517,-0.0027488935738801956,-0.0009162978967651725
1761131959075258000,7.715258056640625,-0.00007635815563844517,0.001527163083665073,0.0003054326225537807
1761131959085258200,7.72525830078125,-0.00007635815563844517,0.0027488935738801956,-0.0003054326225537807
1761131959095258000,7.735258056640625,-0.00007635815563844517,0.0009162978967651725,0.0003054326225537807
1761131959105258200,7.74525830078125,-0.0006872233934700489,-0.0009162978967651725,-0.0003054326225537807
1761131959115258000,7.755258056640625,-0.00007635815563844517,-0.0003054326225537807,-0.0003054326225537807
1761131959125259000,7.765259033203125,-0.0006872233934700489,-0.0003054326225537807,0.0003054326225537807
1761131959135259000,7.7752587890625,-0.00007635815563844517,-0.0003054326225537807,0.0003054326225537807
1761131959145259000,7.785259033203125,-0.0012980886967852712,-0.0009162978967651725,0.0003054326225537807
1761131959155259000,7.7952587890625,-0.0006872233934700489,-0.0009162978967651725,0.0009162978967651725
1761131959165259000,7.805259033203125,-0.00007635815563844517,-0.0003054326225537807,0.0003054326225537807
1761131959175259000,7.8152587890625,-0.00007635815563844517,-0.0003054326225537807,0.0003054326225537807
1761131959185259000,7.825259033203125,-0.0006872233934700489,0.0003054326225537807,-0.0009162978967651725
1761131959195259100,7.835259033203125,-0.0006872233934700489,-0.0003054326225537807,-0.0003054326225537807
1761131959205259000,7.845259033203125,-0.0006872233934700489,-0.0003054326225537807,-0.0003054326225537807
1761131959215259000,7.8552587890625,-0.00007635815563844517,0.0003054326225537807,0.0003054326225537807
1761131959225258200,7.86525830078125,-0.0006872233934700489,-0.0009162978967651725,0.0003054326225537807
1761131959235258000,7.875258056640625,-0.00007635815563844517,0.0009162978967651725,0.0003054326225537807
1761131959245258200,7.88525830078125,0.0005345070967450738,-0.0009162978967651725,0.0003054326225537807
1761131959255258000,7.895258056640625,-0.0006872233934700489,0.0003054326225537807,-0.0009162978967651725
1761131959265258200,7.90525830078125,0.0011453722836449742,-0.0003054326225537807,0.0003054326225537807
1761131959275258000,7.915258056640625,-0.00007635815563844517,0.0003054326225537807,-0.0003054326225537807
1761131959285258200,7.92525830078125,-0.0006872233934700489,-0.0003054326225537807,-0.0009162978967651725
1761131959295258000,7.935258056640625,-0.0006872233934700489,-0.0003054326225537807,-0.0003054326225537807
1761131959305258200,7.94525830078125,-0.0006872233934700489,-0.0003054326225537807,0.0003054326225537807
1761131959315258000,7.955258056640625,-0.00007635815563844517,0.0003054326225537807,0.0003054326225537807
1761131959325259000,7.965259033203125,-0.0006872233934700489,0.0003054326225537807,-0.0009162978967651725
1761131959335259000,7.9752587890625,-0.0006872233934700489,-0.0003054326225537807,-0.0003054326225537807
1761131959345259000,7.985259033203125,0.0005345070967450738,-0.0003054326225537807,0.0003054326225537807
1761131959355259000,7.9952587890625,-0.0006872233934700489,0.0003054326225537807,-0.0003054326225537807
1761131959365259000,8.005259033203124,-0.0012980886967852712,-0.0003054326225537807,0.0003054326225537807
1761131959375259000,8.0152587890625,-0.0006872233934700489,-0.0003054326225537807,-0.0003054326225537807
1761131959385259000,8.025259033203126,0.0005345070967450738,-0.001527163083665073,-0.0003054326225537807
1761131959395259000,8.0352587890625,0.0005345070967450738,0.0003054326225537807,-0.0003054326225537807
1761131959405259000,8.045259033203125,-0.00007635815563844517,-0.0003054326225537807,0.0003054326225537807
1761131959415259000,8.0552587890625,-0.0006872233934700489,-0.0009162978967651725,-0.0003054326225537807
1761131959435258000,8.075258056640624,0.0005345070967450738,-0.001527163083665073,0.0003054326225537807
1761131959445258200,8.08525830078125,-0.0005345070967450738,-0.000839939690195024,-0.00022907447419129312
1761131959455258000,8.095258056640626,-0.0011453722836449742,-0.00022907447419129312,0.00038179077091626823
1761131959465258200,8.10525830078125,0.00007635815563844517,-0.00022907447419129312,0.0009926559869199991
1761131959475258000,8.115258056640625,0.0006872233934700489,0.00038179077091626823,-0.00022907447419129312
1761131959485258000,8.125258056640625,0.00007635815563844517,-0.00022907447419129312,-0.00022907447419129312
1761131959495258000,8.135258056640625,-0.002367102773860097,-0.000839939690195024,-0.000839939690195024
1761131959505258000,8.145258056640625,0.0006872233934700489,0.00038179077091626823,0.0009926559869199991
1761131959515258000,8.155258056640625,0.00007635815563844517,-0.000839939690195024,-0.00022907447419129312
1761131959525259000,8.165259033203125,0.00007635815563844517,-0.00022907447419129312,-0.00022907447419129312
1761131959535259000,8.1752587890625,0.00007635815563844517,-0.00022907447419129312,-0.00022907447419129312
1761131959545259000,8.185259033203126,0.00007635815563844517,-0.00022907447419129312,0.00038179077091626823
1761131959555259000,8.1952587890625,-0.0011453722836449742,0.00038179077091626823,-0.00022907447419129312
1761131959565259000,8.205259033203125,0.0006872233934700489,0.00038179077091626823,0.00038179077091626823
1761131959575259000,8.2152587890625,0.00007635815563844517,0.00038179077091626823,-0.00022907447419129312
1761131959585259000,8.225259033203125,-0.0005345070967450738,0.00038179077091626823,0.0009926559869199991
1761131959595259000,8.2352587890625,-0.0011453722836449742,0.00038179077091626823,0.0009926559869199991
1761131959605259000,8.245259033203125,0.00007635815563844517,-0.000839939690195024,0.00038179077091626823
1761131959615259000,8.2552587890625,0.00007635815563844517,-0.00022907447419129312,0.00038179077091626823
1761131959625258200,8.26525830078125,0.0006872233934700489,-0.000839939690195024,-0.00022907447419129312
1761131959635258000,8.275258056640626,-0.0005345070967450738,0.00038179077091626823,0.00038179077091626823
1761131959645258200,8.28525830078125,-0.0005345070967450738,0.0009926559869199991,-0.00022907447419129312
1761131959655258000,8.295258056640625,0.00007635815563844517,-0.00022907447419129312,0.0009926559869199991
1761131959665258200,8.30525830078125,-0.0005345070967450738,0.00038179077091626823,-0.00022907447419129312
1761131959675258000,8.315258056640625,-0.0005345070967450738,-0.000839939690195024,-0.00022907447419129312
1761131959685258200,8.32525830078125,-0.0011453722836449742,-0.0014508049935102463,-0.000839939690195024
1761131959695258000,8.335258056640624,-0.0005345070967450738,-0.0020616701804101467,0.00038179077091626823
1761131959705258200,8.34525830078125,-0.0005345070967450738,-0.002672535367310047,-0.000839939690195024
1761131959715258000,8.355258056640626,-0.0017562375869601965,-0.0014508049935102463,-0.00022907447419129312
1761131959725259000,8.365259033203126,0.0006872233934700489,-0.0020616701804101467,-0.0014508049935102463
1761131959735259000,8.3752587890625,-0.0005345070967450738,-0.0020616701804101467,-0.00022907447419129312
1761131959745259000,8.385259033203125,0.00007635815563844517,-0.0014508049935102463,-0.00022907447419129312
1761131959755259100,8.395259033203125,0.00007635815563844517,-0.0020616701804101467,-0.00022907447419129312
1761131959765259000,8.405259033203125,-0.0011453722836449742,-0.005115996580570936,-0.0014508049935102463
1761131959775259100,8.415259033203125,0.00007635815563844517,-0.011835514567792416,-0.0038942659739404917
1761131959785259000,8.425259033203124,-0.0011453722836449742,0.009544769302010536,0.0034361169673502445
1761131959795259100,8.435259033203126,-0.0011453722836449742,-0.008781188167631626,-0.0020616701804101467
1761131959805259000,8.445259033203126,-0.0005345070967450738,0.0022143865935504436,0.0009926559869199991
1761131959815259100,8.455259033203125,-0.0005345070967450738,-0.0014508049935102463,-0.00022907447419129312
1761131959825258200,8.46525830078125,0.00007635815563844517,0.004046982154250145,-0.000839939690195024
1761131959835258000,8.475258056640625,-0.0005345070967450738,0.002825251780450344,0.00038179077091626823
1761131959845258200,8.48525830078125,0.0006872233934700489,0.00038179077091626823,-0.00022907447419129312
1761131959855258000,8.495258056640624,0.00007635815563844517,0.0022143865935504436,0.0016035212902352214
1761131959865258200,8.50525830078125,0.00007635815563844517,0.0016035212902352214,0.00038179077091626823
1761131959875258000,8.515258056640626,0.0006872233934700489,0.0034361169673502445,0.0009926559869199991
1761131959885258200,8.52525830078125,-0.0005345070967450738,0.002825251780450344,0.0009926559869199991
1761131959895258000,8.535258056640625,-0.0005345070967450738,0.0034361169673502445,0.00038179077091626823
1761131959905258200,8.54525830078125,0.00007635815563844517,0.0016035212902352214,0.00038179077091626823
1761131959915258000,8.555258056640625,0.0006872233934700489,0.0009926559869199991,0.00038179077091626823
1761131959925259000,8.565259033203125,0.0006872233934700489,0.002825251780450344,0.00038179077091626823
1761131959935259100,8.575259033203125,-0.0011453722836449742,0.0009926559869199991,-0.00022907447419129312
1761131959945259000,8.585259033203124,-0.0011453722836449742,0.00038179077091626823,0.00038179077091626823
1761131959955259100,8.595259033203124,-0.0011453722836449742,0.00038179077091626823,-0.00022907447419129312
1761131959965259000,8.605259033203126,0.00007635815563844517,0.0022143865935504436,0.00038179077091626823
1761131959975259000,8.6152587890625,0.0006872233934700489,0.0009926559869199991,0.0009926559869199991
1761131959985259000,8.625259033203125,-0.0005345070967450738,-0.000839939690195024,-0.000839939690195024
1761131959995259000,8.6352587890625,0.0006872233934700489,-0.00022907447419129312,-0.00022907447419129312
1761131960005259000,8.645259033203125,-0.0005345070967450738,0.00038179077091626823,-0.00022907447419129312
1761131960015259000,8.6552587890625,-0.0005345070967450738,-0.0014508049935102463,-0.00022907447419129312
1761131960025258200,8.66525830078125,-0.0005345070967450738,-0.0014508049935102463,0.00038179077091626823
1761131960035258000,8.675258056640626,-0.0017562375869601965,-0.0014508049935102463,-0.00022907447419129312
1761131960045258000,8.685258056640626,-0.0005345070967450738,-0.0014508049935102463,-0.00022907447419129312
1761131960055258000,8.695258056640625,-0.0005345070967450738,-0.0014508049935102463,-0.00022907447419129312
1761131960065258000,8.705258056640625,-0.0005345070967450738,0.00038179077091626823,-0.00022907447419129312
1761131960075258000,8.715258056640625,0.00007635815563844517,0.0016035212902352214,-0.00022907447419129312
1761131960085258000,8.725258056640625,0.0006872233934700489,0.002825251780450344,0.00038179077091626823
1761131960095258000,8.735258056640625,0.00007635815563844517,0.002825251780450344,-0.00022907447419129312
1761131960105258000,8.745258056640624,0.0006872233934700489,0.0022143865935504436,0.00038179077091626823
1761131960115258000,8.755258056640624,0.00007635815563844517,0.0022143865935504436,0.0009926559869199991
1761131960125258800,8.7652587890625,-0.0011453722836449742,0.0016035212902352214,0.00038179077091626823
1761131960135259000,8.7752587890625,0.00007635815563844517,0.00038179077091626823,0.00038179077091626823
1761131960145258800,8.7852587890625,-0.0005345070967450738,-0.00022907447419129312,0.0016035212902352214
1761131960155259000,8.7952587890625,0.0006872233934700489,0.0016035212902352214,0.0009926559869199991
1761131960165259000,8.805259033203125,0.00007635815563844517,0.0009926559869199991,-0.00022907447419129312
1761131960175259000,8.8152587890625,-0.0011453722836449742,0.0009926559869199991,0.0009926559869199991
1761131960185259000,8.825259033203125,0.00007635815563844517,0.0009926559869199991,0.00038179077091626823
1761131960195259000,8.8352587890625,0.0006872233934700489,0.0016035212902352214,-0.00022907447419129312
1761131960205259000,8.845259033203124,0.0006872233934700489,0.0016035212902352214,0.0009926559869199991
1761131960215259000,8.8552587890625,-0.0005345070967450738,0.0009926559869199991,0.0016035212902352214
1761131960225258000,8.865258056640625,0.0012980886967852712,0.00038179077091626823,-0.00022907447419129312
1761131960235257900,8.8752578125,-0.0005345070967450738,0.0009926559869199991,-0.00022907447419129312
1761131960245258000,8.885258056640625,-0.0005345070967450738,0.0016035212902352214,-0.00022907447419129312
1761131960255257900,8.8952578125,0.00007635815563844517,0.0016035212902352214,-0.00022907447419129312
1761131960265258000,8.905258056640625,0.0006872233934700489,0.0022143865935504436,-0.000839939690195024
1761131960275257900,8.9152578125,0.00007635815563844517,0.0009926559869199991,0.00038179077091626823
1761131960285258000,8.925258056640626,-0.0005345070967450738,0.00038179077091626823,0.00038179077091626823
1761131960295258000,8.935258056640626,-0.0011453722836449742,0.00038179077091626823,0.00038179077091626823
1761131960305258000,8.945258056640625,-0.0005345070967450738,0.00038179077091626823,-0.000839939690195024
1761131960315258000,8.955258056640625,0.00007635815563844517,-0.00022907447419129312,-0.000839939690195024
1761131960325258800,8.9652587890625,0.0006872233934700489,0.0009926559869199991,0.0009926559869199991
1761131960335259000,8.9752587890625,0.00007635815563844517,0.00038179077091626823,-0.00022907447419129312
1761131960345258800,8.9852587890625,-0.0005345070967450738,-0.00022907447419129312,-0.00022907447419129312
1761131960355259000,8.9952587890625,-0.0011453722836449742,-0.0020616701804101467,-0.000839939690195024
1761131960365258800,9.0052587890625,0.00007635815563844517,0.00038179077091626823,0.00038179077091626823
1761131960375259000,9.0152587890625,0.00007635815563844517,-0.00022907447419129312,0.00038179077091626823
1761131960385259000,9.025259033203126,-0.0005345070967450738,-0.00022907447419129312,-0.00022907447419129312
1761131960395259000,9.0352587890625,-0.0005345070967450738,0.00038179077091626823,0.00038179077091626823
1761131960405259000,9.045259033203125,0.00007635815563844517,-0.00022907447419129312,-0.00022907447419129312
1761131960415259000,9.0552587890625,0.0006872233934700489,-0.0020616701804101467,-0.000839939690195024
1761131960425258000,9.065258056640625,0.00007635815563844517,-0.0020616701804101467,-0.000839939690195024
1761131960435258000,9.075258056640624,-0.0005345070967450738,-0.000839939690195024,0.0009926559869199991
1761131960445258200,9.08525830078125,0.00007635815563844517,-0.0014508049935102463,-0.000839939690195024
1761131960455258000,9.095258056640626,0.00007635815563844517,-0.0020616701804101467,-0.000839939690195024
1761131960465258000,9.105258056640626,-0.0011453722836449742,-0.0014508049935102463,-0.00022907447419129312
1761131960475258000,9.115258056640625,0.0006872233934700489,-0.0014508049935102463,0.00038179077091626823
1761131960485258000,9.125258056640625,0.0006872233934700489,-0.000839939690195024,-0.00022907447419129312
1761131960495258000,9.135258056640625,0.00007635815563844517,-0.00022907447419129312,0.0009926559869199991
1761131960505258000,9.145258056640625,-0.0011453722836449742,-0.00022907447419129312,-0.0014508049935102463
1761131960515258000,9.155258056640625,0.0006872233934700489,0.00038179077091626823,0.0009926559869199991
1761131960525259000,9.165259033203125,-0.0005345070967450738,0.00038179077091626823,-0.00022907447419129312
1761131960535259000,9.1752587890625,-0.0005345070967450738,0.0009926559869199991,-0.000839939690195024
1761131960545259000,9.185259033203126,0.0006872233934700489,-0.00022907447419129312,0.0009926559869199991
1761131960555259000,9.1952587890625,-0.0005345070967450738,-0.0020616701804101467,-0.00022907447419129312
1761131960565259000,9.205259033203125,-0.0017562375869601965,-0.0032834007870405912,-0.0020616701804101467
1761131960575259000,9.2152587890625,-0.0011453722836449742,-0.0020616701804101467,-0.000839939690195024
1761131960585259000,9.225259033203125,-0.0005345070967450738,-0.002672535367310047,-0.000839939690195024
1761131960595259000,9.2352587890625,0.0006872233934700489,-0.002672535367310047,-0.000839939690195024
1761131960605259000,9.245259033203125,-0.0017562375869601965,-0.002672535367310047,-0.0014508049935102463
1761131960615259000,9.2552587890625,-0.0005345070967450738,-0.0038942659739404917,-0.000839939690195024
1761131960625224700,9.265224609375,-0.0011453722836449742,-0.0032834007870405912,-0.00022907447419129312
1761131960635191600,9.275191650390624,0.00007635815563844517,-0.0020616701804101467,-0.000839939690195024
1761131960645158100,9.285158203125,0.00007635815563844517,-0.002672535367310047,-0.000839939690195024
1761131960655124700,9.295124755859375,0.00007635815563844517,-0.0020616701804101467,-0.000839939690195024
1761131960665091600,9.305091552734375,0.0006872233934700489,-0.0014508049935102463,0.00038179077091626823
1761131960675058200,9.31505810546875,-0.0011453722836449742,-0.0020616701804101467,-0.00022907447419129312
1761131960685024800,9.325024658203125,-0.0005345070967450738,-0.0020616701804101467,0.00038179077091626823
1761131960694991400,9.334991455078125,0.0006872233934700489,-0.0014508049935102463,-0.000839939690195024
1761131960704958200,9.344958251953125,0.00007635815563844517,-0.0020616701804101467,-0.0014508049935102463
1761131960714924800,9.3549248046875,0.00007635815563844517,-0.000839939690195024,-0.00022907447419129312
1761131960724892200,9.36489208984375,0.0006872233934700489,0.00038179077091626823,0.00038179077091626823
1761131960734858800,9.374858642578126,-0.0011453722836449742,-0.002672535367310047,-0.000839939690195024
1761131960744825600,9.38482568359375,0.00007635815563844517,-0.000839939690195024,0.00038179077091626823
1761131960754792200,9.394792236328126,0.00007635815563844517,-0.0014508049935102463,-0.00022907447419129312
1761131960764758800,9.4047587890625,0.00007635815563844517,-0.0014508049935102463,-0.0014508049935102463
1761131960774725600,9.4147255859375,-0.0011453722836449742,-0.000839939690195024,-0.0014508049935102463
1761131960784692200,9.424692138671874,-0.0005345070967450738,-0.0014508049935102463,-0.00022907447419129312
1761131960794658800,9.434658935546874,-0.0011453722836449742,-0.0020616701804101467,-0.00022907447419129312
1761131960804625700,9.444625732421875,0.0006872233934700489,-0.000839939690195024,-0.000839939690195024
1761131960814592300,9.45459228515625,0.0006872233934700489,-0.00022907447419129312,0.00038179077091626823
1761131960824558000,9.46455810546875,0.00007635815563844517,0.00038179077091626823,0.00038179077091626823
1761131960834524700,9.474524658203125,0.0012980886967852712,0.006490443367511034,0.005879578180611134
1761131960844491500,9.484491455078125,0.0012980886967852712,0.01687515154480934,0.008933904580771923
1761131960854458000,9.4944580078125,0.00007635815563844517,0.012599095702171326,0.0071013085544109344
1761131960864424700,9.5044248046875,0.00007635815563844517,0.024816401302814484,0.012599095702171326
1761131960874391300,9.514391357421875,0.0006872233934700489,0.024205535650253296,0.012599095702171326
1761131960884358100,9.524358154296875,0.00007635815563844517,0.007712173741310835,0.005268712528049946
1761131960894324700,9.53432470703125,-0.0005345070967450738,0.004657847341150045,0.002825251780450344
1761131960904291600,9.54429150390625,-0.0011453722836449742,-0.000839939690195024,0.00038179077091626823
1761131960914258200,9.554258056640625,-0.0005345070967450738,-0.000839939690195024,-0.0014508049935102463
1761131960924259000,9.564259033203125,0.00007635815563844517,-0.0020616701804101467,-0.002672535367310047
1761131960934259000,9.574259033203125,-0.0005345070967450738,-0.0032834007870405912,-0.004505131393671036
1761131960944258800,9.5842587890625,0.0006872233934700489,-0.0038942659739404917,-0.005115996580570936
1761131960954259000,9.594259033203125,-0.0011453722836449742,-0.002672535367310047,-0.005726861767470837
1761131960964258800,9.6042587890625,0.00007635815563844517,0.002825251780450344,-0.0032834007870405912
1761131960974259000,9.614259033203124,-0.0005345070967450738,0.004657847341150045,-0.0014508049935102463
1761131960984258800,9.6242587890625,0.00007635815563844517,0.006490443367511034,0.00038179077091626823
