timestamp,accel_x,accel_y,accel_z,gyro_x,gyro_y,gyro_z
1761132290286570200,0.0106665746387094,0.0056279594169929,-0.0078027827054262,0.0601886250078678,-0.0092996135354042,0.0304737314581871
1761132290306418200,0.0678041008122265,0.0218484053231775,-0.2639940507799387,0.0060728313401341,0.0007763912435621,0.012702053412795
1761132290326265300,0.0534828030582517,0.0156765117552131,-0.2271095504969358,-0.0261131897568702,0.015645183622837,0.0003974690916948
1761132290346113300,0.0260868466105312,0.0248972349671646,-0.0896522138744592,-0.0260082632303237,0.0227243993431329,-0.0056170136667788
1761132290365961200,-0.0239682470213621,0.0314113661015406,0.0195329679876565,-0.0064201299101114,0.0313026458024978,0.0020150260534137
1761132290385809200,-0.0640584114778786,0.0937498949842527,-0.0421679936438798,-0.0151849081739783,0.0249915476888418,0.0244530048221349
1761132290405656300,-0.1586451591450721,0.1091749161964282,-0.0665069006085395,-0.0255448706448078,0.0104757230728864,0.0460096970200538
1761132290425504300,-0.231462558074668,0.0409601156914606,0.0658580813109874,-0.0149568449705839,-0.0018474598182365,0.0710837543010711
1761132290445352200,-0.184013482222706,0.0067282488090917,0.1730401066571474,0.0197432246059179,-0.0054284268990159,0.07162656635046
1761132290465200000,-0.0671239365283399,-0.013517324427329,0.2419879706770181,0.0539223328232765,-0.0112176295369863,0.0598381869494915
1761132290485048300,0.0336152693539857,-0.0042038448980078,0.1143617077171802,0.064371220767498,-0.0069452226161956,0.0471880622208118
1761132290504895200,0.1580644366476684,0.005181603888981,-0.0361216992169618,0.0544081889092922,-0.0040725711733102,0.024800444021821
1761132290524743400,0.1856351651404053,0.0091038918992504,-0.162083828356862,0.0284804254770278,0.0047286283224821,0.0088389813899993
1761132290544591000,0.1554552039973437,0.0099088881392031,-0.211582895541191,-0.008506498299539,-0.0085959732532501,-0.0074820257723331
1761132290564439300,0.0531896653305739,-0.0125554205926135,-0.1149134963810443,-0.0180981401354074,-0.0080347573384642,-0.0202824734151363
1761132290584286200,0.012418021415919,0.0069350599601864,0.0624105712056159,0.0041958838701248,0.0063816672191023,-0.028929628431797
1761132290604134400,0.0156865947578102,0.0636695582907646,0.003267477363348,-0.0056801331229507,0.0142233856022357,-0.0358100235462188
1761132290623982000,-0.0451511741731315,0.056860937721841,-0.0395890830665826,-0.0162185542285442,0.0138607285916805,-0.0417118929326534
1761132290643830300,-0.1771152471415698,-0.0217071336889639,0.007847790890932,-0.0061769569292664,-0.00521547999233,-0.0256883595138788
1761132290663677200,-0.1679361345816403,-0.0113216410139575,0.0882692350834608,0.0100524425506591,-0.0187618508934974,-0.0135685503482818
1761132290683525400,-0.0797303931884467,0.0572645500866696,0.1465887375831604,0.0351500958204269,-0.0085520753636956,-0.0120612848550081
1761132290703373300,-0.0085032591249793,0.050387321260944,0.0857651433080434,0.0436488017439842,-0.0002053545322269,-0.0151622677221894
1761132290723221200,-0.0366783101864159,0.0192390265423804,-0.1394429574817419,0.0110205020755529,-0.0119742536917328,-0.0099104326218366
1761132290743068200,-0.0469032785374671,0.0286330970272421,-0.173107911196351,-0.0030072396621108,-0.0055749029852449,-0.0003116282750852
1761132290762916400,-0.0318985285639762,0.0787761246709153,-0.0535509729236364,-0.0087000131607055,0.0161214210093021,0.0038453345187008
1761132290782764300,-0.1060134930234402,0.0475726291663944,-0.0609276391714811,-0.0198388062417507,0.008695114403963,0.0071924501098692
1761132290802612200,-0.2111685425866395,-0.0528037347529083,-0.0237760123848915,-0.0215182900428771,0.00535633508116,0.0186974704265594
1761132290822459100,-0.1271076459132135,-0.0835249631658196,0.1260527300328016,0.0046214573085308,0.0026271429378539,0.0168064348399639
1761132290842307300,0.029251667317003,-0.0276901901539415,0.1720107636094093,0.0339668057858943,-0.0029695054981857,0.0028157101478427
1761132290862155300,0.122048608957976,-0.0049970045696943,0.1358113229811191,0.0458708442747592,-0.0118331434205174,-0.0157484970986843
1761132290882003200,0.1078193003363907,-0.0094185838716104,-0.0146422733366489,0.0296790674328804,-0.0135567551478743,-0.0125599671155214
1761132290901850000,0.121452469695732,0.0043772652361541,-0.1437812789469957,-0.0108285825699567,-0.0134427994489669,-0.028165990486741
1761132290921698300,0.0435853861611336,-0.0232976542834192,-0.1092003794312477,-0.0105783883482217,-0.0207415502518415,-0.0395275875926017
1761132290941546200,-0.0270017694983631,-0.0016303776808083,-0.0051911389023065,-0.0030089351348578,-0.0238235741853714,-0.046686116605997
1761132290961394400,-0.0653800885356962,0.0281320521699264,0.0615659370750188,0.0009303889237344,-0.0202309843152761,-0.0607479475438594
1761132290981242000,-0.1568546224664896,0.0193872393740341,0.0394347692877054,0.0002359808422625,-0.0248663891106843,-0.0546405017375946
1761132291001089800,-0.1311459615185856,0.0246516627082601,-0.069904141831398,-0.0144997974857687,-0.0424183756113052,-0.0457542203366756
1761132291020937700,-0.0981969009883701,0.0681006726060062,-0.1184977846086025,-0.042914729565382,-0.0462127104401588,-0.0385363511741161
1761132291040785700,-0.0817942669156938,0.1016507312366738,-0.0844236655712127,-0.043291013687849,-0.0492082275450229,-0.0170772206038236
1761132291060633600,-0.1771001226376742,0.1517100626522675,-0.0379623586475849,-0.0642300471663475,-0.0582678988575935,0.004538582637906
1761132291080480800,0.0440112834230065,0.1492483852464705,-0.0419318468004465,-0.0895806550979614,-0.0020087829325348,-0.0141319306567311
1761132291100328700,0.0254496446855366,0.0665104077398777,0.0138636901795864,-0.0740381032228469,0.0530662424862384,-0.0308977961540222
1761132291120177000,-0.0893731046721339,-0.1372001835236325,0.22141338468194,0.0069821798242628,0.0631980597972869,-0.0178688857704401
1761132291140024600,-0.1477244636148214,-0.1784530350839719,0.2643897720992565,0.0838599428534507,0.0420331358909606,0.0163291059434413
1761132291159871700,-0.1072664156939834,0.1053877623405307,0.1359481011033058,0.1059344261884689,0.0511724390089511,0.0286058448255062
1761132291179719700,-0.0406594887770712,0.137215929082036,-0.0253735107094049,0.0665031820535659,0.0445525683462619,0.0355781130492687
1761132291199568000,-0.179075879690051,0.1125635357214137,-0.3473369353771209,-0.0224295780062675,-0.025105133652687,0.031191574409604
1761132291219415600,-0.1976965551383793,-0.0691593513460829,-0.0585755230873823,0.002502694260329,-0.0383918061852455,0.0356048084795475
1761132291239262700,-0.1916061293087899,-0.0937103666914627,0.1685509785443544,0.0323267802596092,-0.0275668464601039,0.0405186973512172
1761132291259110700,0.0582737636618316,-0.0193436559606343,0.0310831205278635,0.0126885119825601,-0.0164008252322673,0.0032297035213559
1761132291278958800,0.0995051340427249,-0.0198515689501538,-0.1451239257276058,-0.0115714110434055,-0.0130161195993423,-0.01917758397758
1761132291298806800,0.0822813928455114,-0.0475559702925384,-0.2046130565285682,-0.0284156631678342,-0.0104742376133799,-0.0323917642235755
1761132291318653700,0.1124821045156568,-0.0353505687139928,-0.0366220499545335,-0.0294508319348096,0.019067408517003,-0.0368943698704242
1761132291338501600,0.0299443988215178,-0.0307737623177468,-0.0416501072496175,-0.0391642786562442,0.0080298753455281,-0.0325687378644943
1761132291358349800,-0.1300642306964844,0.0194752829836681,0.0896411079585552,-0.0186602119356393,-0.0022268556058406,-0.0168403927236795
1761132291378197800,-0.214095535949245,0.0475930874325335,0.1637467931330204,0.0108669595792889,-0.0225381292402744,0.006060333456844
1761132291398045700,-0.1731809033673256,0.1081442945070564,0.1013993502914905,0.0275803040713071,-0.0180420000106096,0.0155712263658642
1761132291417892600,-0.1607777141943573,0.0634137934314087,0.0126806178748607,0.0233019590377807,-0.0161976590752601,0.0144485458731651
1761132291437740800,-0.1862164721596985,-0.0079355787722393,-0.0298673149973154,0.0262195225805044,-0.0104270754382014,0.0162129532545804
1761132291457588700,-0.1918197720594704,-0.0575427825061604,0.0662882894217967,0.0396003164350986,0.0157864466309547,0.0323465503752231
1761132291477436700,-0.0302280380684882,0.0344844534039497,-0.0859223796963691,0.019030999392271,0.0419965498149395,0.0280179660767316
1761132291497283600,0.0597257891010493,0.0862216549038887,-0.2850479447245597,-0.0380719676613807,0.0342685878276824,0.0227001663297414
1761132291517131800,-0.0116733405284583,0.0765526034025475,-0.2616857738375663,-0.064859539270401,0.0177717003971338,0.0217506196349859
1761132291536979700,-0.046404535235092,0.0539716825537383,0.0819008690953254,-0.0368038192391395,0.0206908714026212,0.0227228850126266
1761132291556828000,-0.0231307732839137,0.0381021324444562,0.287813317784667,0.0175341591238975,0.0283547695726156,0.020410131663084
1761132291576674800,-0.0437096701279282,0.0191010793764144,0.2314671611845493,0.0537010207772254,0.0280323941260576,0.0096871703863143
1761132291596522800,-0.0161483670506626,-0.0332888138785958,0.0759638802617788,0.0556271895766258,0.0194803848862648,-0.0044908374547958
1761132291616370700,-0.0576176378406584,-0.0396842140041291,-0.1733808829188347,0.0064364252611994,0.0166213605552911,-0.0081613902002573
1761132291636219000,-0.0011488047089427,0.0010287950584664,-0.271956992483139,-0.0410386323928833,0.0196762196719646,-0.0194311328232288
1761132291656065800,0.0974104267857968,0.0539623667361214,-0.2048836901634931,-0.0637690499424934,0.0155484499409794,-0.0406803302466869
1761132291675913700,0.0633219138968735,0.0551070067266002,0.0634200405091047,-0.032951895147562,0.0052779582329094,-0.0553921461105346
1761132291695761700,-0.0242125041060149,0.0472024441471323,0.2852729856520891,0.0244607478380203,0.000463816570118,-0.0515896417200565
1761132291715609900,0.0251130331423133,0.102572997180745,0.228534030342102,0.0546824932098388,0.0017266445793211,-0.050892487168312
1761132291735456800,-0.0315818638302385,0.1184326469505205,0.0059895958036184,0.0314283296465873,-0.0108531415462493,-0.045750044286251
1761132291755304700,-0.1229384704697877,0.0860286530824378,-0.0833650964289903,0.0179991703480482,-0.022676084190607,-0.0239413511008024
1761132291775152600,-0.150344071528688,0.0953330725224688,-0.1145674594223499,-0.0002322508953511,-0.0347088389098644,-0.0068785259500145
1761132291795000800,-0.129850953271985,0.0866554797438904,0.0003361000865697,0.0136521644890308,-0.0352676436305046,0.0024152535479515
1761132291814847700,-0.1234010464802384,0.0537468608219176,0.0978191537171602,0.0414960458874702,-0.0412179455161094,0.0077799251303076
1761132291834696000,-0.121204705479741,0.0091275285031646,0.0892623377740383,0.051876176148653,-0.0371825061738491,0.0176418144255876
1761132291854543600,-0.0789100897815078,-0.0006078297000378,-0.0185422033846378,0.0461530163884162,-0.03258066624403,0.0159519277513027
1761132291874391800,-0.0167272629171609,0.0351994698055088,-0.0941238063305616,0.0229980424046516,-0.0019116979092359,0.0141301499679684
1761132291894238700,0.0053052668012678,0.0426630836844444,-0.2184855145364999,-0.017655499279499,0.0004877303726971,0.0031470626126974
1761132291914087000,-0.0045724224820733,0.0002399827683344,-0.1584077701926231,-0.0313042923808097,0.0157830901443958,-0.0081791952252388
1761132291933934600,-0.0117740244239568,-0.0116820718241855,0.010233224722743,-0.0162192303687334,0.0296516697853803,-0.0121026923879981
1761132291953782800,0.0039477877777069,-0.0232027790741994,0.0750917736023664,0.0080674178898334,0.0289572607725858,-0.0065123685635626
1761132291973630700,-0.0484071802943944,0.001271225512214,0.1106727900713682,0.0249237827956676,0.0084471339359879,-0.0154372500255703
1761132291993478100,-0.0698033848706632,0.0143853759661316,0.1778156504958868,0.0565319396555423,0.0035827856045216,-0.0124046951532363
1761132292013326000,-0.0336995135713368,0.033226489232108,0.0562573092728853,0.0558170974254608,0.0001515329349786,-0.0105227874591946
1761132292033174000,-0.0113563835337758,0.0599651508148759,-0.1237590661376714,0.0116948131471872,-0.0166861005127429,-0.0160484500229358
1761132292053022200,-0.0632153847824782,0.0267236832093447,-0.1882745006680488,-0.0025346991606056,-0.0344138592481613,-0.0133223300799727
1761132292072869000,-0.0681313600052148,-0.0229726966453716,0.0724450584858655,0.0225871168076992,-0.0269835852086544,-0.0093480478972196
1761132292092717000,-0.117230906477943,-0.0015768208626657,0.0392921459466218,0.0231571048498153,-0.0246834512799978,-0.0022203361149877
1761132292112565000,-0.0839769447170197,-0.0074791037090122,-0.0469996515840291,0.0035589286126196,-0.0256250407546758,-0.0052940468303859
1761132292132413200,-0.0654288230482488,0.0753222944226116,-0.0524514872491359,-0.001437185332179,-0.0235637687146663,-0.003105801064521
1761132292152260000,-0.0196160431612282,0.0869401053715497,-0.0867278508603572,-0.017896706238389,-0.0033651045523583,-0.0008604345493949
1761132292172108300,0.0032118016533553,0.0618293372515589,-0.0450759900450706,-0.0170438438653945,0.0060350447893142,-0.0086659844964742
1761132292191956000,-0.0755624598540365,-0.001693359914422,0.0869546453535556,0.0099513381719589,0.0183746572583913,-0.012554015032947
1761132292211804200,-0.1148521215826273,0.0207245523924008,-0.0210948104768991,0.0046324487775564,0.0182774346321821,-0.0013299316633492
1761132292231651000,-0.0780007198516279,0.1052914623592048,-0.1789110445171594,-0.0330254212021827,0.0363990180194377,-0.0013636436779052
1761132292251499300,0.0111479284148663,0.0690686043227091,-0.1276420450508594,-0.04098866507411,0.026624783873558,-0.0113978832960128
1761132292271347000,-0.0992506478250026,-0.0159361856047064,0.1618640481263399,0.0038198463153094,0.0126313986256718,0.0063514332287013
1761132292291195100,-0.0511319290831685,0.0289235313411802,0.2204208665132522,0.0279792677611112,0.0051615121774375,0.0133636090904474
1761132292311042000,0.0323911343865096,0.0439234955416992,0.0721750093728303,0.0227114148437976,-0.0046192938461899,0.0077763530425727
1761132292330890200,0.0231604377698153,-0.0080030179852619,-0.0056429743230342,0.0218133721500635,-0.0104174520820379,0.0007124390103854
1761132292350738200,0.0074993427794426,-0.0082840634163469,0.0053355158090591,0.0297186039388179,-0.0009883239399641,-0.0053610363975167
1761132292370586000,0.068427420342341,0.0192620420917868,-0.0346101256102323,0.0132907759398221,0.0135319530963897,-0.0155013892799615
1761132292390433000,0.0594069324102252,0.0713492626057937,-0.1715390544444322,-0.0135927004739642,0.002426340477541,-0.0290998052805662
1761132292410281200,-0.0252135709073394,0.066384735533595,-0.0787917971640825,-0.0177173558622598,7.9684657976e-05,-0.0254625417292118
1761132292430129200,-0.0952109439801424,0.0150709105448797,0.0800906048029661,0.0091379601508378,0.0010645214933902,-0.0176887735724449
1761132292449977000,-0.086798139617592,0.0437992115749046,0.1145528463751077,0.0153439994901418,0.0085598696023225,-0.0096656326204538
1761132292469824000,-0.1235227000985294,0.046541788281314,0.0185591545194387,0.0174629539251327,0.0023821319919079,0.0122931748628616
1761132292489672200,-0.1869604223947971,0.0055058308746665,-0.0179243637472391,0.0268898680806159,0.0005229818634688,0.0321443974971771
1761132292509520100,-0.2208363885115832,-0.0236618844859302,-0.0068640405505895,0.0282255392521619,0.0174718424677848,0.0531770810484886
1761132292529368000,-0.2081746214676648,0.0139943673545494,-0.051337973049283,0.0221535302698612,0.0372765287756919,0.07454514503479
1761132292549215000,-0.1951505969826132,0.0070694999948143,-0.0917810425966978,0.0199173465371131,0.0277700647711753,0.0807186439633369
1761132292569063200,-0.1616715212289244,-0.1540664530526846,0.0773971279352903,0.0437760762870311,0.0160850938409566,0.0915058553218841
1761132292588911000,-0.1131170414183288,-0.0932361002432182,0.0765682758957147,0.0362198874354362,0.0167297516018152,0.0959090888500213
1761132292608759000,0.1312380237162113,-0.0124372375730425,0.00395370606184,0.0202315021306276,0.0217350982129573,0.0706949383020401
1761132292628606200,0.1629271473132073,0.0131259504895657,0.0087567224293947,0.0217655096203088,0.0074383821338415,0.0498382747173309
1761132292648454100,0.160048742332682,0.0003546221239492,0.0606926613718271,0.0222680233418941,0.0017130107153207,0.0433163493871688
1761132292668302000,0.161241313118115,0.0373915730223059,0.0282639714539051,0.0214187409728765,-0.0001306955236941,0.030486837029457
1761132292688150300,0.0713391430705785,0.0190180772680789,-0.0446048654019832,0.0151846706867218,0.0020636597182601,0.0191534701734781
1761132292707997200,-0.0501414567410945,-0.0065173460047692,-0.1880968060135841,-0.013817012310028,-0.0024474700912833,0.0255892444401979
1761132292727845000,-0.1397800804816186,0.0050900896806269,-0.1776017154842615,-0.0392261333763599,-0.0001650764606893,0.0219618920236825
1761132292747693000,-0.1743708438042551,-0.0341361879555508,-0.0081873981088399,-0.0311249122023582,0.0037221922539174,0.0041705109179019
1761132292767541200,-0.2557134944949299,-0.1005114250084385,0.0531020601123571,-0.0191051755100488,-0.0090256929397583,0.0152940619736909
1761132292787388200,-0.158932086327672,-0.0186257169496268,-0.0517863013386726,-0.0362804383039474,-0.0247648004442453,0.0210078377276659
1761132292807236000,0.0113104985654354,0.0765037227595225,0.0044482115805149,-0.0432005822658538,-0.023522550240159,0.0136717315763235
1761132292827084000,0.147821713444218,0.0921579496176913,0.0982417630434036,-0.0071639991365373,-0.0161784384399652,-0.0058364230208098
1761132292846932200,0.1567877677753567,0.0595351618997752,0.1055289974421262,0.012678949162364,-0.0130555210635066,-0.0187327433377504
1761132292866779100,0.1561544383078813,0.0490705761065706,0.0018944354444742,0.0011138804256916,0.0173402689397335,-0.0310287047177553
1761132292886627000,0.0873594998273998,0.0231834533192217,-0.1924672761827707,-0.0447780489921569,0.0249557085335254,-0.0310191083699464
1761132292906475000,-0.0505675001334398,0.0147680551407858,-0.2920376574814319,-0.086572878062725,-0.005236268043518,-0.0287148673087358
1761132292926323200,-0.1280531100697815,-0.0281591228399425,0.0360720148563385,-0.0486813224852085,-0.0119364485144615,-0.0359465405344963
1761132292946170000,-0.1579743472114205,-0.0219288501482456,0.3882213189512491,0.0353525914251804,-0.0200373418629169,-0.0309771206229925
1761132292966018300,-0.1080604156158864,0.0410612014457583,0.2913508442610502,0.0597150437533855,-0.0229984298348426,-0.0300770290195941
1761132292985866000,-0.0331681101083755,0.0247509583642706,0.036429157730937,0.0523572415113449,-0.0157761257141828,-0.0358715690672397
1761132293005713700,-0.022873364456743,-0.0183153358262032,-0.1508820508629083,0.0330758579075336,-0.0122355222702026,-0.0313722975552082
1761132293025560600,0.0143626526776701,0.0370948185654357,-0.150813661801815,0.0045285858213901,-0.0104908300563693,-0.0297780837863683
1761132293045408800,-0.0244262929871678,0.0030514599924907,-0.1300602121084928,-0.0115770474076271,-0.0112941423431038,-0.0237353052943944
1761132293065256700,-0.0512178538009524,-0.0329184461962431,-0.0556377160698175,-0.0088743530213832,-0.0052146017551422,-0.0166587010025978
1761132293085104600,-0.0507056664951145,-0.0125274731397628,0.0739993021905422,0.0074708461761474,0.011908576823771,-0.0166180357336998
1761132293104951600,-0.0620800971422344,-0.0384319489207118,0.0483177484452724,0.0157655999064445,0.0153548419475555,-0.0151921901851892
1761132293124799500,-0.0772077428430318,-0.0305027268240228,-0.0863432354569435,-0.008701629936695,0.0085766017436981,-0.0178642161190509
1761132293144647700,-0.0719609282307326,-0.0201093796361237,-0.1328705933541059,-0.0334430076181888,0.0024881905410438,-0.0098500726744532
1761132293164495600,-0.07363258777,-0.0300059928156435,0.0552934326767921,-0.0159424506127834,-0.0083540612831711,-0.0060100387781858
1761132293184342500,-0.0051028030317276,-0.0135556106111034,0.1652829166591167,0.0101864710450172,-0.0089645721018314,-0.0040013482794165
1761132293204190500,0.1006184290468692,0.0371450143827125,0.0405716643631458,0.0052071828395128,-0.0096757980063557,-0.0219682548195123
1761132293224038700,0.0845177005302161,0.0097450393470004,-0.0277753111541271,0.0077612027525901,-0.0038960848469287,-0.0292843058705329
1761132293243886600,-0.015534034544602,-0.0622839126186445,-0.0864127935618162,-0.0095412572845816,0.0002246012445539,-0.0146559942513704
1761132293263733500,-0.0449263524413108,0.011483297849074,-0.1645247917681932,-0.0375622138381004,0.0066552655771374,-0.0020582966972142
1761132293283581400,-0.0244289233356714,0.0480306020669639,-0.1475321559131145,-0.0543042719364166,-0.0005724418442696,0.0035661251749843
1761132293303429600,-0.0498968343302607,0.0445674194684252,0.0138788877487182,-0.0349045470356941,0.0025082591455429,0.0069771488197147
1761132293323277800,-0.0843865484312176,0.0378757032774388,0.1361445004582405,-0.0082938075065612,-0.0077896290458738,0.0006585886585526
1761132293343124700,-0.0809559163954108,-0.0149936075249686,0.1818453444033861,0.0082532865926623,-0.0189541634172201,-0.0003977486630901
1761132293362972400,-0.0180268742736428,0.0001962532244622,0.0901408741742372,0.0135771362110972,-0.0248570293188095,-0.0088012255728244
1761132293382820600,0.0762142017610371,0.0517834517944604,-0.0227519300341606,0.0022127241827547,-0.0131898391991853,-0.0235677491873502
1761132293402668800,0.1045189436167478,0.0576321778226643,-0.1042991633862256,-0.0144500667229294,-0.0116613944992423,-0.0432082302868366
1761132293422515700,0.1374102826103568,0.0039656522279605,-0.1215332067817449,-0.0159979723393917,-0.0113084018230438,-0.0766970515251159
1761132293442363400,-0.005491802349314,-0.0493076362654566,0.008287935873866,-0.0028828224167227,-0.009355055168271,-0.0697450786828994
1761132293462211600,0.0105714437011629,0.0309129881253466,0.0136252052485942,-0.0094684809446334,-0.0123333092778921,-0.0697106942534446
1761132293482059800,0.0229009831160306,0.1006468879563733,-0.0545563505738973,-0.0233776867389678,-0.0111023345962166,-0.0646474435925483
1761132293501907700,0.0233167973753064,0.1120925937414169,-0.0428144748538732,-0.0167145542800426,-0.0094360578805208,-0.0632109642028808
1761132293521754600,-0.0757849434982985,0.0509826933382078,0.0451437945842742,0.0045718736946582,-0.0080951312556862,-0.0485165640711784
1761132293541602600,-0.1408479289088398,0.0449322341928258,0.063840896269679,0.0159056596457958,0.005955830682069,-0.0307541396468877
1761132293561450800,-0.1034852166548371,0.0755698759755119,-0.0107347445040941,0.0037749619223177,0.0108318123966455,-0.0212903302162885
1761132293581298700,-0.1360959120761603,0.0318969211287796,-0.0979623615801334,-0.0097650596871972,0.0008933439385145,-0.0184700079262256
1761132293601145600,-0.1611483010724186,-0.0155674253575503,-0.1075789157092571,-0.0264710709452629,-0.0001157277729362,-0.0060737929306924
1761132293620993500,-0.0982237159300595,-0.0280759015358984,-0.0170148476868867,-0.0171738043427467,0.0047333817929029,0.0057987445034086
1761132293640841700,0.0186827808991074,0.0001007204281166,0.1116454344958066,0.0049502411857247,0.0274548418819904,0.0041743940673768
1761132293660689700,0.0631660657480359,0.0545113058557733,0.023420623075962,0.0091638416051864,0.0311150401830673,0.0038766583893448
1761132293680536600,0.0062088645774871,0.0646633551010862,-0.1245779813051223,-0.0147913405671715,0.0192047338932752,0.0115623576566576
1761132293700384500,-0.0844291454639285,0.0374284709665924,-0.0614613076567649,-0.0165583714842796,0.0160424821078777,0.0333083271980285
1761132293720232700,-0.1158395982500165,0.0352429436210542,-0.0094102179020643,-0.0237679108977317,0.0080428123474121,0.0387428998947143
1761132293740080600,-0.1223292525302618,-0.0106121410377323,0.0184346513569355,-0.021601939573884,-0.0023879767395555,0.0485010631382465
1761132293759927600,-0.0948540203012526,0.0175883367259055,0.1484440100610256,0.0260237324982881,0.0163561273366212,0.0638798549771308
1761132293779775700,-0.0020371318507939,0.0081822470096871,0.0886667099684476,0.0244483277201652,0.0287477169185876,0.062932550907135
1761132293799623700,0.0269256355222314,0.0078388038668781,-0.1854793169915676,-0.0204078759998083,0.0318594127893447,0.0579349063336849
1761132293819471600,0.0265361978132277,0.0404583401817828,-0.2034755769312381,-0.0476641133427619,0.0250319745391607,0.0466901063919067
1761132293839318500,-0.0084541592862457,0.0215270278817042,-0.0598708235949277,-0.0418598018586635,0.0068661700934171,0.0372373014688491
1761132293859166700,0.0194053230199962,0.043244500301592,0.1131201832234859,-0.0108027476817369,0.0050028823316097,0.0221190545707941
1761132293879014400,0.1268639733504503,0.0783479258541017,0.2358691955357789,0.0239048525691032,0.0135323368012905,-0.0002954645897261
1761132293898862600,0.1036997361883521,0.0240455135086551,0.1278822835475206,0.0358041934669017,0.0170737672597169,-0.0141843548044562
1761132293918709500,0.0592797258339822,0.0302226677736267,-0.134752169317007,-0.0078610200434923,0.0047711869701743,-0.0218039285391569
1761132293938557700,-0.0039470571253448,0.0193652832705527,-0.2356570140898227,-0.0413427427411079,-0.0058819456025958,-0.0289465710520744
1761132293958405400,0.0248817086044698,0.0330887977944687,-0.1068687216132879,-0.054889902472496,-0.0172781851142644,-0.0476422011852264
1761132293978253600,0.0457357691280543,0.0384417396623641,0.1100783313095569,-0.0275795981287956,-0.005137198138982,-0.0633974820375442
1761132293998100700,0.0801975723087787,0.0523473327549174,0.28648353048563,0.0356243550777435,0.0134965535253286,-0.0816978439688682
1761132294017949000,-0.008521525434032,0.0544102201014757,0.1178852056682109,0.0541430339217186,0.009602558799088,-0.0725472792983055
1761132294037796900,-0.0567613863375037,0.0740190663369372,-0.1988642837435007,0.0063084019348025,0.0065480079501867,-0.0634943544864654
1761132294057644800,-0.1194951250828802,0.0995138653384521,-0.318440511238575,-0.0397850610315799,-0.0059421327896416,-0.0496880672872066
1761132294077491700,-0.1682707733634859,0.0540763119719922,-0.071852937811613,-0.0325346514582634,-0.0028016692958772,-0.0471523143351078
1761132294097340000,-0.2001131878260523,0.0035867724455893,0.1941477766156196,0.0077726300805807,0.0154862981289625,-0.0344520173966884
1761132294117188000,-0.1343396429933607,0.0531310304785147,0.1583417192190885,0.0156518574804067,0.0278763882815837,-0.0207886658608913
1761132294137035800,-0.0566814529690891,0.0953041386889293,0.0006523264288902,0.000835508108139,0.0360089838504791,-0.0084411669522523
1761132294156882700,-0.0430359355848282,0.0562400293445214,-0.1240776305675506,-0.0140554625540971,0.0205406937748193,0.0011887298896908
1761132294176731000,-0.0489283546242862,0.0429819403752684,-0.0856482389301061,-0.0100235305726528,0.0121038267388939,0.0085586616769433
1761132294196578800,0.0014675152692943,0.0573005347155034,0.0628138913094997,0.0063639199361205,0.0284295193850994,0.0058918944559991
1761132294216426800,0.0457964863393455,0.083248192051053,-0.0148538702607154,-0.0071494481526315,0.0362579002976417,-0.0035547269508242
1761132294236273700,-0.0216527366206049,0.0230631514078006,-0.0492933154791593,-0.0198059044778347,0.0289799813181161,-0.0118246302008628
1761132294256121900,-0.0658574237238615,0.024717494486086,0.0185258367717266,-0.0029777274467051,0.023228658363223,-0.008298366330564
1761132294275969800,-0.018975845561549,0.0401260029548779,0.0303097980678081,-0.0048587671481072,0.0247562117874622,-0.0095757665112614
1761132294295817700,0.0025426702201366,0.0332122780436649,-0.0328746801197528,-0.0161205977201461,0.0332002192735672,-0.009890497662127
1761132294315665000,-0.0111009474679827,0.0048073637491092,-0.0416290644615888,-0.0235031209886074,0.0377835296094417,-0.0057758400216698
1761132294335512800,-0.0383521616827696,0.0460114442642778,-0.0025496844828128,-0.0108558163046836,0.0284200981259346,-0.0007002677302807
1761132294355360800,-0.0312649799007922,0.0805279367743059,0.0149433021098375,-0.0090786386281251,0.0332872383296489,-0.0015368105378001
1761132294375209000,0.0036630525521934,0.1153280319986864,-0.0618108517467975,-0.0303146429359912,0.0323714017868042,0.0013549937866628
1761132294395055900,-0.0405511330317705,0.1213721344685181,-0.0415267731308937,-0.0382639802992343,0.028016373515129,0.002504653064534
1761132294414903800,-0.1262106240082532,0.0515633427703753,0.141119366261363,-0.004083109088242,0.0225824601948261,0.0183251611888408
1761132294434751700,-0.1205685264680534,0.0530091211318969,0.1870639558345079,0.0229436922818422,0.0149855138733983,0.0298166275024414
1761132294454600000,-0.0657839931614697,0.0621287951221689,0.0476227519184351,0.0198885612189769,0.0127594051882624,0.0310338400304317
1761132294474446800,-0.024908450480923,0.0473477343693375,-0.0908247647851705,0.0104187503457069,0.0115340873599052,0.0189372505992651
1761132294494294800,-0.0369123381379991,-0.0087811262182891,-0.0527244589716196,0.0097983106970787,0.0151648428291082,0.0179948266595602
1761132294514142700,-0.0351217283941805,-0.010768683306314,-0.0675403353095054,-0.0002773306332528,0.0155224138870835,0.0137931695207953
1761132294533991000,0.0189809601280838,0.0413242362961173,-0.127053431507945,-0.0139945242553949,0.0127864247187972,0.0051813870668411
1761132294553837800,0.0051257455158978,0.0554228312101215,-0.0603466244131326,-0.0216532424092292,0.0081614023074507,-0.0001225278829224
1761132294573685800,-0.0400101580228656,0.0237261818937957,0.066276598984003,-0.0009097349829971,-0.0086201447993516,0.0071724210865795
1761132294593533700,-0.111670495871827,-0.0097833985960111,0.122279056712985,0.0158716421574354,-0.0137615529820322,0.0169145669788122
1761132294613383000,-0.1127620905008167,-0.0163457893189042,0.0303664966911077,0.0222601071000099,-0.0255352538079023,0.0219175722450017
1761132294633230800,-0.0871584242973476,-0.0251021098894998,-0.0113812257140874,0.0177661664783954,-0.0221743304282426,0.0249041356146335
1761132294653078800,-0.0167174721755087,-0.0104714904580265,-0.0190752873480319,0.0185855031013488,-0.0129638612270355,0.0160171147435903
1761132294672926000,0.0199457865722477,-0.0162287753431126,-0.0443523519456386,0.0123844994232058,0.0022882537450641,0.0004442480276338
1761132294692774000,0.0203180539507418,-0.020968626813963,0.0006219312906265,0.0103407409042119,-0.0076352478936314,-0.0097215604037046
1761132294712621800,0.0827502524662762,0.0068634194960817,0.143329443526268,0.0304284822195768,0.0033918677363544,-0.0211819522082805
1761132294732469800,0.0833436152495443,0.0002473258245736,0.0840717833936214,0.035545889288187,0.0223178975284099,-0.0334202572703361
1761132294752317000,-0.000516425089538,-0.0326842721141874,0.0416577060341835,0.0323838740587234,0.0249582137912511,-0.0389573499560356
1761132294772164900,-0.1016112394765019,-0.0500531939357519,-0.0658113195598125,0.0380002856254577,0.002245842712,-0.0362097732722759
1761132294792013000,-0.1290177173182368,-0.0303592632327228,-0.1514572204023599,0.0262830033898353,-0.0116444304585456,-0.0361122004687786
1761132294811860700,-0.1430419318217784,-0.0119495636539533,-0.1790080751508474,0.0009422525763511,-0.0124495727941393,-0.0369245819747448
1761132294831708000,-0.1005457291368395,-0.0022240327250212,-0.087629183614254,-0.0146882012486457,0.0049182628281414,-0.0350586101412773
1761132294851555800,-0.1239180560916662,-0.0095931732535362,0.085282912749052,0.0036406402941793,0.013496502302587,-0.0286437235772609
1761132294871404000,-0.14671061039716,-0.0089580536877736,0.0445657024353742,0.0214709863066673,0.008697448298335,-0.0083248615264892
1761132294891251700,-0.1111583085659891,-0.007496018311195,-0.0424742831140756,0.0039077075198292,-0.0036517111584544,0.0221167411655187
1761132294911099000,-0.0198695795308798,0.0028801220135763,-0.020671616628766,-0.0093732587993144,-0.0225241519510746,0.0446559190750122
1761132294930946800,0.0035644144833087,-0.0274140766263008,0.0980482862979173,-0.0051222015172243,-0.0506622307002544,0.055323950946331
1761132294950795000,0.0621779314935207,-0.0585727831410244,0.2469470543891191,0.0371324084699153,-0.0669724270701408,0.0463569611310958
1761132294970642700,-0.01994381381087,-0.0809420705331489,0.1683025567412376,0.0658035427331924,-0.0722372680902481,0.0291596259921789
1761132294990489600,-0.0264287188507616,-0.1403857912898063,0.0216015909552574,0.0692507103085517,-0.0647895857691764,0.0045199496671557
1761132295010337500,-0.0129657914917916,-0.0716150008698925,-0.1423252349197864,0.0501690916717052,-0.0516737401485443,-0.0150596378371119
1761132295030185700,-0.0309735226735472,-0.0622818667920306,-0.2600146257549524,0.0079814475029706,-0.0422702804207801,-0.0419151112437248
1761132295050033700,-0.0442060753427445,-0.0651274654814973,-0.188494280898571,-0.0147951897233724,-0.0250272564589977,-0.0501867048442363
1761132295069880800,-0.1431486801318824,-0.0016621245259419,-0.1881815616875886,-0.0577877648174762,-0.0278133433312177,-0.0443124771118164
1761132295089728500,-0.1961114779040217,-0.0064294850582256,-0.158219554144144,-0.1032982319593429,-0.0421846322715282,-0.0241695139557123
1761132295109576700,-0.1529042043402791,0.0339916283857077,0.1104307980090379,-0.0791943445801734,-0.0410681404173374,0.0080917719751596
1761132295129424600,-0.1320895990442484,0.0701927495144307,0.162895144739747,-0.038735531270504,-0.047901228070259,0.0299800913780927
1761132295149271800,-0.0873883605957031,0.0437271327193826,0.2169961527615785,-0.0019801561720669,-0.0463864095509052,0.044337797909975
1761132295169119500,-0.1183319995876401,0.013339885501191,0.2104033303678035,0.0172391794621944,-0.0602506585419178,0.052583921700716
1761132295188967700,-0.0927112361188978,-0.0174199578890576,0.2088251212656497,0.0567681156098842,-0.0589340589940547,0.0601724609732627
1761132295208815600,0.0012287380773574,0.0197238874498754,0.027068624189496,0.0631796270608902,-0.0449991896748542,0.0575410723686218
1761132295228662500,-0.0223912800282239,-0.0204363100355491,-0.2926210103273391,0.0315952114760875,-0.0116172665730118,0.0492679439485073
1761132295248510700,-0.058098553225398,-0.0006009250352159,-0.4504571181118488,-0.0520482137799263,-0.0261033065617084,0.0455307550728321
1761132295268358700,-0.0895741802021861,0.0061811728529632,-0.1436181973397731,-0.092070460319519,-0.0530891977250576,0.0332942940294742
1761132295288206600,0.026166487718001,0.052597435058467,0.2423743396461009,-0.0678042024374008,-0.0681615769863128,0.0148192103952169
1761132295308053500,0.0268020822077989,0.0376337842803448,0.4110404690027237,0.0109261758625507,-0.0824106410145759,0.0084734857082366
1761132295327901700,0.1278631404556334,0.0250572478344663,0.2052940245300531,0.0500818118453025,-0.0776018723845481,-0.0060102259740233
1761132295347749600,0.1012069695245474,0.0403316085295751,-0.0888829830676317,0.0273956712335348,-0.0745275169610977,-0.0111123090609908
1761132295367597600,0.0082314564462751,-0.0093922803865745,-0.2666559634655714,-0.0149916354566812,-0.0566208958625793,-0.0086847012862563
1761132295387445800,-0.1213052432447671,-0.0060484498513862,-0.2925625581383705,-0.0572684668004512,-0.0499491058290004,-0.0065223318524658
1761132295407292700,-0.1893755937777459,-0.0181850970426574,-0.1369955643296241,-0.0719515830278396,-0.0441430918872356,-0.0001284593599848
1761132295427140600,-0.2375999648511409,0.0178813283231109,0.0392553210675716,-0.0534114129841327,-0.0444980673491954,0.0073237442411482
1761132295446988500,-0.246540154088661,0.0598326104763895,0.052540919098258,-0.0339751541614532,-0.0373068340122699,0.0234155189245939
1761132295466835500,-0.1524875863634049,0.0852396215965971,-0.027773557588458,-0.0331236720085144,-0.0141570828855037,0.0264824423938989
1761132295486683600,-0.1448123755604028,0.0542128708984702,0.0035866263151168,-0.043634507805109,-0.014231190085411,0.03101422265172
1761132295506531800,-0.0768579795572906,0.0334754955571144,0.1571679992645978,-0.0131819676607847,-0.0172103364020586,0.0409274771809577
1761132295526379500,0.0014856354478746,0.0207559339113533,0.1671861199319362,0.0274240002036094,-0.0082961460575461,0.0464923046529293
1761132295546226400,0.0695473642829805,0.0556737006986513,-0.0154471599787473,0.0260080434381961,-0.0131180388852953,0.038407627493143
1761132295566074600,0.1157930556945502,0.0440302438518032,-0.0447094948202371,0.0149520523846149,-0.0018737344071269,0.0265749190002679
1761132295585922800,0.0812085029169917,0.037129597617872,-0.0729553460955619,0.0119770839810371,0.0057363677769899,0.01179935131222
1761132295605770500,0.0254970640238374,-0.0088247826969251,-0.1098082821965217,-0.0038326238282024,0.0017898473888635,-0.0081577515229582
1761132295625617400,-0.0205400261383503,-0.0119376174878329,-0.0362362655073404,-0.0076879393309354,0.0139367887750267,-0.012465700507164
1761132295645465600,-0.0138113024052232,0.0570144112505018,-0.0672433981895446,-0.0160009190440177,0.0304554626345634,-0.0120956832543015
1761132295665313800,-0.0144184745181351,0.0869857346115633,-0.1087947212398052,-0.042459987103939,0.0330244079232215,-0.0090712811797857
1761132295685161500,-0.0769591749094426,0.0438264649080112,0.0123041857779026,-0.0368238389492034,0.0200350079685449,0.0019141691736876
1761132295705009700,-0.0457721556156873,0.0271126094616949,0.1509112769573926,-0.0065380344167351,0.0481471978127956,-0.004457987844944
1761132295724856600,-0.1135785214502364,-0.0217477579602971,0.0576736058115959,0.0087325787171721,0.049687061458826,-0.0042160265147686
1761132295744704800,-0.1290722970496863,-0.0236837309915572,-0.1028705918878316,-0.0061628418043255,0.0398926101624965,0.001637538196519
1761132295764552700,-0.0961906757324933,-0.0214240789638832,-0.0745054981470108,-0.0130699928849935,0.0458293370902538,-0.0095553891733288
1761132295784400600,-0.0768044227391481,-0.001302424368076,-0.0593874239921569,-0.0262359827756881,0.042395818978548,-0.007038683630526
1761132295804247600,0.0024660978525876,0.0044141631804406,-0.0537426961034536,-0.0562052391469478,0.0462284386157989,0.0001890068524517
1761132295824095700,0.0436773022282868,-0.0369145666277036,0.0497001427143812,-0.0573769584298133,0.0375251024961471,-0.006374096032232
1761132295843943700,0.0500124965991824,-0.0495155433950945,0.1701788720071315,-0.0344139970839023,0.0138329034671187,-0.018557846546173
1761132295863791600,0.1323436468705534,-0.0397550142180174,0.0899690247386693,-0.0089407637715339,0.0294308327138423,-0.0333100222051143
1761132295883638500,0.1530739348839968,0.0109147407134994,-0.1518488500684499,-0.032376579940319,0.0362413376569747,-0.048595767468214
1761132295903486500,0.0707723760332912,0.0142831577006727,-0.1241752457231283,-0.0160643085837364,0.0124815972521901,-0.075972206890583
1761132295923334700,-0.0392607278950512,0.0325295930091291,0.0016565350353717,-0.0233357548713684,0.0029281610623002,-0.0654554665088653
1761132295943181600,-0.123895113607496,0.0180949710737913,0.1256055707871914,-0.007843904197216,-0.00459874747321,-0.0560332797467708
1761132295963029500,-0.1463909499887377,0.0448450308334082,0.1536181978285312,0.010440656915307,-0.0129840010777115,-0.0305206291377544
1761132295982877400,-0.1732579141262918,0.066161886563152,0.0935170726090669,0.0067889555357396,-0.0241902973502874,-0.0047611286863684
1761132296002726000,-0.0915861776117235,0.0907120981909334,0.0113519996196031,0.0008499370887875,-0.0208153873682022,0.0209124498069286
1761132296022573800,-0.0689894381392747,0.0679930475130677,-0.0441267264962196,0.0049068271182477,0.0015482155140489,0.0345250330865383
1761132296042420700,-0.0800653242312371,0.0451286335477605,-0.1862409490138292,0.0114803817123174,0.0320409312844276,0.0532812103629112
1761132297144052700,-0.165661832974106,0.0081216393962502,-0.0521364299505949,-0.0104206800460815,-0.0122510073706507,-0.0139386858791112
1761132297163900000,-0.0830004278350621,-0.0279366391956806,0.05421557431221,-0.0050062332302331,-0.0257683433592319,-0.0075696161948144
1761132297183747800,0.0036748160552233,-0.0333528555581346,0.0719306792229414,0.0299189444631338,0.0052022342570126,-0.0104955490678548
1761132297203595800,-0.0487849275656044,0.0158806925578042,-0.1524064839512109,-0.0018933373503386,0.0132132731378078,-0.0069885062985122
1761132297223443700,-0.0387603040922433,0.0144143828649073,-0.1161620351374149,-0.0326285623013973,0.0012232249137014,-0.0016130332369357
1761132297243291000,-0.0140901924118399,0.0212031296895816,0.061709144937992,-0.0252952836453914,-0.0034453850239515,0.0057160584256052
1761132297263138800,-0.0248586199898272,-0.0037611791644245,0.1177156943202018,0.0025587668642401,-0.0099614886566996,0.0107573391869664
1761132297282986800,-0.0302929930634796,0.0540381353860721,0.0925555341005325,0.0099499337375164,-0.013427885249257,0.010329470038414
1761132297302834700,-0.0077012220270931,0.0258212179442867,0.0417898079812526,0.022160816937685,-0.0068990397267043,0.0112246694043278
1761132297322681900,-0.0834861655253916,0.0024745003547519,-0.0577718054890632,0.0178233291953802,-0.0104033974930644,0.0218127947300672
1761132297342529800,-0.0605731266453862,0.0294349149294197,-0.0035872108370065,0.0179826319217681,-0.0153436241671442,0.0292970277369022
1761132297362378000,-0.0721433721255511,0.0392993794050067,0.1150397531092166,0.043721679598093,-0.0110822040587663,0.0289934854954481
1761132297382225700,-0.1073057247910648,-0.0103058881001546,0.0089151278614997,0.0581942088901996,-0.0214128047227859,0.0273935571312904
1761132297402072800,-0.1141260723304003,0.0028139979748055,-0.157007255744934,0.0332063995301723,-0.027262907475233,0.0357759930193424
1761132297421920800,-0.0133490917209535,0.0713932478779926,-0.1680401064127683,0.0030443810392171,-0.0317757166922092,0.0328495018184185
1761132297441769000,0.0175258659489452,0.1104600606361404,0.0199970783680677,-0.0099105173721909,-0.0224473401904106,0.0250016152858734
1761132297461616600,-0.0003914104703813,0.0894711582191288,0.1456535025596618,0.0088536804541945,-0.0090179303660988,0.018417390063405
1761132297481463800,-0.0502307424597442,0.0330036037290468,0.1096387708485126,0.0263467486947774,-0.0268725864589214,0.0257640853524208
1761132297501311700,-0.0817654792126268,-0.0070315426046028,0.1173614740550517,0.0519413985311985,-0.036264531314373,0.0275401771068573
1761132297521160000,-0.0672910367235541,-0.0077664692830294,-0.0225122760593891,0.0591040924191474,-0.0448154993355274,0.0245078820735216
1761132297541008000,-0.0368554933842271,-0.0375405530389398,-0.1341401748985052,0.031077105551958,-0.051918514072895,0.0197138004004955
1761132297560854800,-0.0260367238584905,-0.0612489435477182,-0.1001186628311872,0.0086230263113975,-0.0599280893802642,0.0099364425987005
1761132297580702700,0.0069222735438495,-0.0600209361227229,-0.0755582220703363,-0.0017379540950059,-0.0620764233171939,0.0040179821662604
1761132297600551000,0.096209599628672,-0.0270542668705806,-0.0682365008801221,-0.0154563337564468,-0.0270046629011631,-0.0093767819926142
1761132297620398800,0.0899736278485506,-0.0244275350961834,-0.1456137550711631,-0.0386801846325397,0.0003909049555659,-0.027750838547945
1761132297640246000,0.0706185006458312,-0.0006319046953693,-0.0662877048999071,-0.0341191813349723,0.0278755724430084,-0.0386319197714328
1761132297660093700,-0.0904663067363202,-0.0250318941975012,-0.0895318023651838,-0.0351385921239852,0.0333613641560077,-0.0405710153281688
1761132297679942000,-0.1726859594572335,0.0258227523142471,-0.0575093551605939,-0.058734081685543,-0.006177267525345,-0.0129932733252644
1761132297699789800,-0.0483808037441223,0.0834732329785823,0.1433826350182294,-0.0711914747953414,-0.0231778621673584,-0.0122808497399091
1761132297719636700,0.0522138060357421,0.0450073817882686,0.4438830004185438,0.0190832465887069,-0.0196084547787904,-0.0094391368329525
1761132297739484700,-0.1292966803900897,0.0914513722509145,0.2200549558103084,0.0843156799674034,-0.0374748744070529,0.004111420828849
1761132297759332900,-0.1067643113907426,0.0047555970292538,-0.0883440538853406,0.0647156611084938,-0.0200246553868055,0.0180846769362688
1761132297779180800,-0.2000612384431064,-0.0373114569908007,-0.2589706696599722,0.009535570628941,-0.0358436033129692,0.0162223558872938
1761132297799027700,-0.1771972263365983,-0.0248317319829016,-0.1138356380164623,-0.0074663357809185,-0.0343303047120571,0.0231731757521629
1761132297818876000,-0.1013123295951634,0.0383725103510543,0.0224561619579792,-0.0016056913882493,-0.0316225364804267,0.0222611017525196
1761132297838723800,-0.0276492005564272,-0.0425203142128884,0.0356160877823829,0.01634350605309,-0.0137351332232356,0.0059021757915616
1761132297858571800,-0.0313238704811781,-0.0537348050579428,-0.0725064332842826,0.0229043271392583,-0.0098000410944223,0.0023902868852019
1761132297878418700,0.0397288568634539,-0.0224202503943815,-0.1150818386852741,-0.003021789714694,-0.0005713806021958,-0.0008794707828201
1761132297898267000,0.0561228692382574,-0.0215347727967426,-0.1015004725784063,-0.0288716927170753,0.0087689030915498,0.0005103871808387
1761132297918114800,0.0281146991763263,-0.008998751024343,-0.0250549462795257,-0.0439647696912288,-0.0177424326539039,-0.0067400885745882
1761132297937962800,-0.0283836523108184,-0.0112243911845609,0.1847024874001741,-0.0241252593696117,-0.0274083577096462,-0.0019540474750101
1761132297957809700,-0.0067367609091103,0.001043554236181,0.1598983010113239,0.0076624732464551,-0.0306397601962089,0.0071264961734414
1761132297977657900,-0.0150745272740721,0.0477632929002866,0.0526619151294231,0.0191380605101585,-0.0256840419024229,0.0039092423394322
1761132297997505800,-0.0909800284121185,0.0085676661306992,-0.0705406861692667,0.0146977715194225,-0.0350194908678531,0.0070182168856263
1761132298017353700,-0.1357582045543938,-0.0143909289240837,-0.0622609336018562,0.0061605465598404,-0.0318715013563632,0.0198349338024854
1761132298037200600,-0.1262291825782507,-0.0071350760443136,-0.0898369227916002,-0.0089485831558704,-0.0249231941998004,0.0331575833261013
1761132298057048600,-0.1137519052557647,0.0077746160568669,-0.1421183141708374,-0.0285290144383907,-0.015190364792943,0.0440986193716526
1761132298076896800,-0.0799091107562184,0.037822730981186,-0.0530506221860647,-0.0443097203969955,-0.0114988768473267,0.0404513664543628
1761132298096744700,-0.0911131532724946,0.0068997329184785,0.1159001693308353,-0.0196110792458057,-0.0176420155912637,0.0396778397262096
1761132298116591600,-0.0305474792812019,0.0223023596357554,0.1543061800926923,0.0165182817727327,-0.0056323250755667,0.0424199663102626
1761132298136439600,0.0378345675494521,0.0560460776749998,0.0065635962992906,0.0234223119914531,0.0086894873529672,0.0284354705363512
1761132298156287700,-0.0004851531684398,0.0033974238859489,-0.1099450603187084,0.0109289605170488,0.0121263312175869,0.0244297608733177
1761132298176135700,-0.0129830348875373,0.0127595648625865,-0.1353828684359788,-0.0105784377083182,0.0061222538352012,0.021068125963211
1761132298195982600,0.0084450261317193,0.0003537453411146,-0.05744213514328,-0.0272207707166671,0.0115694105625152,0.0102358646690845
1761132298215830500,0.0426128878671675,0.0107067970512434,-0.0051350248008966,-0.0260647684335708,0.0195831675082445,-0.0063069206662476
1761132298235678700,-0.0044547874517738,0.004588277638331,0.0779915866971015,-0.0192508045583963,0.0189516432583332,-0.0210203882306814
1761132298255526700,-0.0100253541257232,-0.0209065213631838,0.0946598129034042,0.0080618998035788,0.0136578101664781,-0.0291027966886758
1761132298275373800,0.0338433790214359,0.0205315140383318,-0.0374094009399414,0.0071442695334553,0.0058980379253625,-0.031044976785779
1761132298295221500,0.0774492965139448,0.0634061581142246,-0.1206622691661119,-0.0177218355238437,-0.0034936224110424,-0.0348087213933467
1761132298315069700,0.0652465983491391,0.0638663595044985,0.0962999813258647,-0.0181156881153583,-0.0207357015460729,-0.0379691794514656
1761132298334918000,0.0445617569126188,0.0399337683184072,0.200400407269597,0.0279576741158962,-0.0170208606868982,-0.0307621508836746
1761132298354764800,0.0374755249787122,0.0683690777512267,-0.0333171631902456,0.0341825261712074,-0.0064553823322057,-0.0348684713244438
1761132298374612500,-0.0462732370056211,0.0342384062210097,-0.1964437785983085,0.0039049722254276,-0.0058887237682938,-0.034895546734333
1761132298394460700,-0.119948714069277,0.0497450413020327,-0.1275192954540252,-0.0158057864755392,-0.006903420202434,-0.0265529863536357
1761132298414308900,-0.1012233361374586,0.0773338534407317,-0.0064747489720582,-0.0178800281137228,0.0068664271384477,-0.0139329647645354
1761132298434155800,-0.1519432503536343,0.0611381401170045,0.0443920994341373,-0.0089049059897661,0.013618167489767,-0.0027902610599994
1761132298454003500,-0.2337959694582969,-0.0373927055334672,0.0271364287286996,0.0111297871917486,0.0057547371834516,0.0024781967513263
1761132298473851600,-0.1566363035406917,-0.007957973267138,0.0326426249295473,0.023061379790306,-0.0030886684544384,0.0202520415186882
1761132298493699800,0.0023235475767403,0.0375607555767521,0.0184171157002449,0.0260594673454761,0.0222133379429578,0.0178342498838901
1761132298513546800,0.0151428432699292,0.0173869689349085,-0.0731295336186885,0.0185539536178112,0.0321077406406402,0.0175852701067924
1761132298533394700,-0.0261984172262251,0.0034685528934001,-0.1206008943676948,-0.0092915249988436,0.0190979316830635,0.0189354941248893
1761132298553242600,0.0076469345565885,0.0086929364781826,0.0058545712471008,-0.0132719594985246,0.0181414522230625,0.0287641659379005
1761132298573090600,0.0641843028798699,0.0493290078470483,0.0655114598304033,-0.0030584703199565,0.0136489663273096,0.0282869264483451
1761132298592937700,0.0306231748659163,0.0183640703387558,0.0796451991230249,0.0069335661828517,0.008285267278552,0.0204862430691719
1761132298612785700,-0.0865277251783758,-0.0199050892356783,0.0502437480717897,0.025769256055355,-0.0004509140271693,0.0281159803271293
1761132298632633600,-0.0432950249124318,-0.0019859131202101,-0.0828682528227567,0.0216964352875947,0.0139709580689668,0.0275703445076942
1761132298652481500,-0.0884950066633522,-0.0400049338584765,-0.1992506527125835,-0.0148811368271708,0.0164912920445203,0.0205545667558908
1761132298672328700,-0.1457729642208665,-0.0709023956211283,-0.0694067137032747,-0.0325108543038368,0.0102780573070049,0.0215061698108911
1761132298692176600,-0.0568158199384808,-0.0402330069933086,0.1008779567658901,-0.0180980432778596,0.0022852334659546,0.0181193444877862
1761132298712024600,0.0648994654119014,0.0042621144238859,0.1334796651631593,-0.0056248344480991,0.005788829177618,0.0166780836880207
1761132298731872500,0.105557346753776,0.011717946855165,0.1184305645912885,0.0118276802822947,-0.0145916286855936,0.0101540144532918
1761132298751719700,0.0714143271986395,0.0352088221557438,0.1242062253832817,0.0317042060196399,-0.0256116855889558,0.0172818079590797
1761132298771567600,0.0887968391541391,0.0888043648734688,0.0426350266337394,0.0385004952549934,-0.0171257648617029,0.0137482248246669
1761132298791415800,-0.0276168326567858,0.055621239859052,-0.1932546271681785,0.0084955831989645,-0.0252173393964767,0.0124903973191976
1761132298811263500,-0.0939833749465644,0.017835626017861,-0.161328626075387,-0.021098043769598,-0.0296541135758161,0.0162699986249208
1761132298831110700,-0.1432804167527705,-0.0072614789029583,-0.016984452548623,-0.0236183889210224,-0.0306429844349622,0.0147027568891644
1761132298850958600,-0.1484707519374787,-0.0075037997588515,0.0477367336869239,-0.0104621788486838,-0.02456427924335,0.0171815995126962
1761132298870806800,-0.114091658604145,-0.0008305690726265,-0.0011328034222126,-0.0007156142964959,-0.0129212532192468,0.0219121091067791
1761132298890654500,-0.0938211701221764,0.0201599042469635,-0.1467155788332224,-0.0201860330998897,-0.0110083371400833,0.034302320331335
1761132298910501600,-0.0563327125966548,-0.0104474519953131,-0.1565244406640529,-0.0525932200253009,-0.0065331468358635,0.0354057401418685
1761132298930349600,-0.0583545738130807,-0.0456495156167075,-0.1229874972432851,-0.0624504461884498,-0.0119973802939057,0.0349172875285148
1761132298950197800,-0.0389945512395352,-0.030722178260982,-0.1995341458290815,-0.0954780504107475,-0.0207491554319858,0.0415152534842491
1761132298970045400,0.0297926423259079,0.060291642822884,0.053452773246169,-0.0992379039525985,-0.0207766760140657,0.0399034731090068
1761132298989893000,0.081869524108991,0.0373239694125019,0.3387053006321192,-0.0390212163329124,0.0017660621087998,0.022752795368433
1761132299009741300,-0.0289469852820038,0.0463839856374077,0.2875309937119484,0.0173740275204181,0.0043761455453932,0.0178939122706651
1761132299029589500,-0.0204742674257606,0.0524616067843511,0.042673020556569,0.0335577689111232,0.0064855311065912,0.0167771391570568
1761132299049437200,-0.0340348099403083,0.0344175256475806,-0.1243178690642118,0.0129198916256427,0.0149831622838974,0.0249746907502412
1761132299069284000,-0.0504398551657795,0.0282683188354596,-0.1419236683815717,-0.0218780860304832,-0.017876548692584,0.0190189145505428
1761132299089132300,-0.066090136501193,-0.052527054969687,0.0477414098620414,-0.0223180651664733,-0.0189738776534795,0.0126117719337344
1761132299108980200,-0.0970950772263109,-0.0645982539756223,0.0600812514752149,-0.0091043030843138,-0.0270829610526561,0.0121224028989672
1761132299128828200,-0.0429163277931511,-0.0711518403375521,0.0876034646511077,0.0077777388505637,-0.0308972354978323,0.0054791099391877
1761132299148675300,0.0031491847459226,-0.0232952065980061,0.0222393043369054,0.0185924973338842,-0.0231165047734975,-0.0019516698084771
1761132299168523300,0.0470006014320999,0.0234641151578165,-0.0762462043344974,0.0090301502496004,-0.0086046746000647,-0.00888760574162
1761132299188371200,0.0147075205925852,0.0317339491194114,-0.1431570095688104,-0.0172184221446514,0.0012647928670048,-0.0050079552456736
1761132299208219400,-0.0915866160031408,0.0092144944005645,-0.0655009384363889,-0.027249027043581,-0.005151973105967,0.0059632095508277
1761132299228066300,-0.1078477957785129,0.0247879476401023,0.0674649319857358,-0.0147037720307707,-0.0174781251698732,0.0160056222230196
1761132299247914200,-0.0940084363225847,0.0499224436955526,0.1535287659794092,0.0025951312854886,-0.0190994068980216,0.0213282797485589
1761132299267762200,-0.0880082460597157,0.0285739324522204,0.1531219387441873,0.025126539170742,-0.0219913329929113,0.0236417688429355
1761132299287609300,-0.0367759984072297,-0.0248508750747889,0.1404132638186216,0.0564727671444416,-0.0255261342972517,0.0222042668610811
1761132299307457300,0.0560584987651556,-0.0056333297118544,0.0697621030122041,0.0779086276888847,-0.0159433204680681,0.0102376453578472
1761132299327305200,0.0970014075934886,-0.0208301316587254,-0.0422007268697023,0.0879897251725196,-0.0062421481125056,-0.0076671973802149
1761132299347153200,0.0241599702011793,-0.0339790611650794,-0.2157657341837882,0.0546784028410911,-0.0037579319905489,-0.0143904304131865
1761132299367000300,-0.0642374213065952,-0.0812039728723466,-0.2886234651237726,-0.0011946195736527,0.0029514324851334,-0.0138654932379722
1761132299386848300,-0.0950074572972953,-0.0625809228038415,-0.1588344711720943,-0.027461789548397,0.0065223635174334,0.0014212979003787
1761132299406696200,-0.056382689218223,0.0148608479907736,-0.00113747959733,-0.0300320014357566,0.0215688794851303,0.0068331826478242
1761132299426544000,-0.0630424393683671,0.0358703182717785,0.0655944619387388,-0.0163880512118339,0.0393127426505088,0.0159053858369588
1761132299446391300,-0.1762074846468865,0.0321406302241608,-0.0289940392941236,-0.0164518691599369,0.0339230149984359,0.0318546257913112
1761132299466239200,-0.1884677582178264,0.0215610397491604,0.0319078809142112,-0.0143478754907846,0.0140978042036294,0.0435873605310916
1761132299486087400,-0.1434548234716057,-0.0003624401042237,0.1495873348772525,0.0073132603429257,-0.0095749162137508,0.0603579990565776
1761132299505935000,0.001737710512802,0.0356519993459805,0.1491699862480163,0.0373114943504333,-0.0235332623124122,0.0623952560126781
1761132299525782300,0.1477623114071786,0.0399983214545995,0.0619482143908739,0.0474237389862537,-0.025937583297491,0.0451370365917682
1761132299545630200,0.1794043079268187,0.0109063747439533,-0.020261282262206,0.039609171450138,-0.0112864216789603,0.0236680060625076
1761132299565478400,0.1094086884196847,-0.0165222418643534,-0.0902455035924911,0.0240287836641073,0.0024639423936605,-7.34151690267e-05
1761132299585326000,0.0057418315876275,-0.0678191157182678,-0.1456201848119497,0.0043704928830266,0.0065152123570442,-0.0117291333153843
1761132299605173200,-0.047360739981383,-0.0610253639249131,-0.1829272944211959,-0.0238461606204509,-0.0038450565189123,-0.0090462369844317
1761132299625021200,-0.0499057482890784,-0.0197433228027075,0.0020838205367326,-0.032901756465435,-0.0077250562608242,-0.0126132667064666
1761132299644869400,-0.0320125103324651,0.0005245353307574,0.1259942778438329,-0.0052555543370544,-0.0038517145439982,-0.0102920839563012
1761132299664717300,-0.0195676009096205,0.0351684536127373,-0.0854430717468261,-0.0008785747922956,0.0057456623762845,-0.0002426523715257
1761132299684564500,-0.0085683602504432,0.0453970021603628,-0.3240916688680648,-0.0535693392157554,0.0169043093919754,0.001482632709667
1761132299704412200,-0.1676328407861292,-0.027022520025447,-0.0643769028425216,-0.0782621428370475,0.0018748647999018,0.0039088823832571
1761132299724260400,-0.1914052729744464,-0.0664664590002968,0.3467535825312137,-0.0237025190144777,0.0064634773880243,0.0185623206198215
1761132299744108300,-0.1409689980052411,-0.0270577009366825,0.4185772942483425,0.0437906049191951,-0.0108501929789781,0.03140864148736
1761132299763955500,0.0099313191667199,-0.002620776957646,0.2169330243974924,0.0835453271865844,-0.0117808915674686,0.0343773178756237
1761132299783803100,0.0717952893402427,-0.030635194097273,-0.0106482352644205,0.0889744907617569,-0.0223562773317098,0.0335172638297081
1761132299803651300,0.1395696526013314,-0.0145620477072894,-0.2580833654314279,0.0507153011858463,-0.0219316482543945,0.0326505899429321
1761132299823499300,0.1448673936832696,-0.0085008114395663,-0.3434796754270792,-0.0036272723227739,-0.0076985461637377,0.0187013298273086
1761132299843346400,0.0661713850438594,-0.0111014223920181,-0.2448866147279739,-0.0470556803047657,0.00397455599159,0.0043358532711863
1761132299863194000,-0.0716642103064805,-0.0222432498596608,0.0091267247855663,-0.0414314270019531,0.0150552941486239,0.0004267639596946
1761132299883042300,-0.1180113162659108,-0.0245301552204415,0.108759649926424,-0.0153934564441442,0.0128324273973703,0.0060702310875058
1761132299902890200,-0.1587149364456534,-0.0021416151385754,0.0592448006510734,-0.0114563554525375,0.0055071590468287,0.0141370417550206
1761132299922737400,-0.1112883646864444,0.0111001437503844,0.1090618477433919,0.0020840703509747,-0.0083767212927341,0.0250620320439338
1761132299942585300,-0.0087396251641213,0.0340371845604851,0.1200175415217876,0.027619183063507,-0.0151864746585488,0.0285365935415029
1761132299962433300,0.0146610511023551,0.0169692915121093,-0.0274620074212551,0.0246999710798263,-0.0214982479810714,0.0322541557252407
1761132299982281200,0.0593203501053154,0.0275845378223806,-0.0528109682112932,0.0096665006130933,-0.0179019551724195,0.0320541784167289
1761132300002128000,0.0571706977907568,-0.0204274691419675,-0.0475607925981283,-0.0012846840545535,-0.0045675933361053,0.0198334287852048
1761132300021975800,-0.0017055618088692,-0.0462372889094054,0.0045329672545194,0.0078364750370383,0.0013597852084785,0.017645213752985
1761132300041823700,-0.0259217922419309,-0.0138293860511854,-0.0099456399530172,0.0156540125608444,-0.0044524194672703,0.0127403745427727
1761132300061671700,-0.0327220468413084,-0.0163532054403796,-0.0362964712619781,0.0064926669001579,-0.003266206709668,0.0039061093702912
1761132300081518800,-0.055759881144762,-0.00029945787061,-0.0423445192545652,-0.0030214278958737,-0.00691142026335,0.0055366805754601
1761132300101366800,-0.0264584564018994,0.0040576048277318,-0.0090612583339214,-0.0080005936324596,-0.0036833921913057,0.0057817827910184
1761132300121215000,0.0022030630022287,0.0211115058833733,0.0105132107079029,-0.0060874233022332,-0.0161334220319986,0.0002145679318346
1761132300141062700,0.0072694064810872,-0.0084246409308165,0.1105091239422559,0.0123136602342128,-0.0178060960024595,-0.0147733204066753
1761132300160909800,0.0404163276709616,0.0085451985705643,0.0432312389612197,0.0315022431313991,-0.0144503526389598,-0.0220550447702407
1761132300180757800,0.0541311839643865,0.0561437658958137,-0.0731552525818347,0.0195703394711017,-0.0140645522624254,-0.0279907174408435
1761132300200606000,0.0257750041823834,0.0357124973615631,-0.1056891564399003,-0.0014025163836777,-0.0151456641033291,-0.0389443077147007
1761132300220453600,-0.0420643871389329,-0.0148389649525284,-0.0316992065995931,-0.0021223686635494,-0.019619595259428,-0.0516180619597435
1761132300240300800,-0.0997377737548202,-0.0224211271772161,-0.0320072496354579,0.003993047401309,-0.0055324519053101,-0.0417520776391029
1761132300260148700,-0.1106206214927136,0.0120726420443505,-0.0255833540678024,0.0003800098784267,0.0079068839550018,-0.0320195294916629
1761132300279997000,-0.1674566805016249,0.001144055468589,-0.0515536616265773,-0.0073608797974884,0.0083881970494985,-0.0161697808653116
1761132300299844900,-0.1699422137070447,0.0077603683358058,-0.0004576806396245,-0.0072664334438741,-0.0061808647587895,-0.0006559037719853
1761132300319691800,-0.0860812965851277,0.0496381833940744,0.0406482367306947,-0.0012957244180142,-0.0033949986100196,0.0064298305660486
1761132300339539700,0.0112380909163504,0.0712799967618659,0.0505903695523738,0.0095116263255476,0.0154430316761136,0.0034493771381676
1761132300359388000,-0.0076021455667912,0.0519549724364653,-0.0343301396250724,0.0091915652155876,0.0194809604436159,0.0042587048374116
1761132300379235800,0.0029123072501271,0.0482874263722449,-0.0369265858590602,-0.0032359082251787,0.0130948973819613,-0.0007681506685912
1761132300399083000,0.0073672408323735,0.0377635116072371,0.0201391171872615,-0.0018401453271508,0.0075957356020808,-0.0061538615263998
1761132300418930700,-0.0150982734758406,0.0288990910196676,0.0072439797788858,0.0070197572931647,-9.16759017854e-05,-0.0124688763171434
1761132300438779000,-0.0441697619203478,-0.0362957040769979,0.0020499182671308,0.0040459986776113,-0.0007174792699515,-0.0084858806803822
1761132300458626800,-0.0264981308251619,0.0004421542769297,-0.0100941085129976,-0.0002161497250199,0.0031810130458325,-0.0065581290982663
1761132300478474000,-0.0817749776933342,-0.0006690218353644,0.0406295320302248,0.0062031336128711,0.0119603900238871,-0.0116242598742246
1761132300498321700,-0.0790092393070459,0.0226485792575404,0.0435445426940917,0.0158515702933073,0.007346061989665,-0.0064028771594166
1761132300518169900,-0.0334771760575473,0.0368160746892914,-0.062188452887535,0.0102530978620052,0.0091069601476192,-0.0056890761479735
1761132300538017800,-0.0383754694931209,0.0142081562357023,-0.060532502374053,-0.0026582451537251,0.0075882896780967,-0.0071876281872391
1761132300557865000,-0.0152825440015643,0.0225302501074969,0.0108382048785686,0.0002401708625257,0.0052719404920935,-0.0030529322102665
1761132300577713000,0.0053949178460985,0.064260582986474,0.0016132804155349,0.0004101055674254,0.0068286657333374,0.0020332839339971
1761132300597560800,-0.026815964602679,0.0571335806507617,-0.0523696541845798,-0.003777983598411,0.0027784348931163,0.0089257722720503
1761132300617408800,-0.0639266748569905,0.0316143047951161,-0.0072252750784158,-0.0092714773491024,-0.0033430506009608,0.0145749356597661
1761132300637256000,-0.0946096901513636,0.0222775539880618,0.0950502735257148,0.0024276687763631,-0.0077117783948779,0.0158186890184879
1761132300657104000,-0.0775456695605069,0.0115046694306656,0.1263122577518224,0.0333221741020679,0.0046067349612712,0.0098938047885894
1761132300676951800,-0.0528242660842835,-0.0121184539474546,-0.0124561614692211,0.0311770252883434,0.0092938356101512,0.0085314810276031
1761132300696799700,0.0068145023204386,0.0034734117316082,-0.1630056193768978,0.0087651461362838,0.0204475708305835,-2.59713851846e-05
1761132300716647000,0.0070400547046214,0.0041224502248689,-0.2001332807660102,-0.0242570396512746,0.0332647860050201,-0.0080380858853459
1761132300736494800,-0.0165339323021471,-0.0230222348755225,-0.0492103133708238,-0.036924310028553,0.0349269099533557,-0.0214311275631189
1761132300756342800,-0.0522211125593632,-0.0127097343714907,0.0885772781193256,-0.0093808863312006,0.0226423274725675,-0.0188102684915065
1761132300776190700,0.0239946235716342,0.0482710597593337,0.0744645816147327,0.0146621074527502,0.0198948122560977,-0.0233274027705192
1761132300796038000,0.0159605163283646,0.0824940126828849,-0.0955704980075359,-0.0049694566987454,0.0247613377869129,-0.0270390417426824
1761132300815885800,-0.0643459231823682,0.0531199976278468,-0.0406073201984167,-0.0217677094042301,0.0188590865582227,-0.0267555881291627
1761132300835734000,-0.1353285809654742,0.0137487220304086,0.0455810169577598,-0.0109398048371076,0.0131461769342422,-0.0159925799816846
1761132300855581700,-0.1351203450422733,-0.0142396838851273,0.0623141250938177,-0.0015440015122294,0.0033373406622558,-0.0004075586330145
1761132300875428900,-0.0572954932142049,0.0333527094276621,0.0624094021618366,0.00985071901232,0.0049839597195386,0.0006967614754103
1761132300895276800,-0.0132750035714358,0.0343181203937158,0.0202156895548105,0.016847351565957,0.0063536087982356,-0.010705635882914
1761132300915125000,-0.0044251960311084,0.0026223113276064,-0.0166635500311851,0.0184980295598506,-0.0021664269734174,-0.0264303162693977
1761132300934972700,0.062009954515472,0.0081546283503994,-0.0757020144551992,0.0204014852643013,-0.0020709396339952,-0.0365622490644454
1761132300954819600,0.0864085557781159,0.0379650620613247,-0.1127355678200721,-0.0038800309412181,0.0157020129263401,-0.0465813837945461
1761132300974667800,0.0095472152199596,0.0002469239657744,-0.029836335337162,-0.0145586039870977,0.0168550126254558,-0.0523221567273139
1761132300994515700,-0.0890226837992668,-0.0265652412446215,0.1132329959481954,-0.0029106647707521,0.0237476732581853,-0.0417131967842578
1761132301014363600,-0.0755757577270269,0.0317406345885247,0.0740782126456499,0.0151878148317337,0.0227654334157705,-0.0312625579535961
1761132301034210600,-0.0466126980930566,0.0247770426535978,-0.0259475112050771,0.0207712315022945,0.0164368636906147,-0.0207896083593368
1761132301054058800,-0.1233072307169437,0.0014080036344006,-0.0747018975019454,0.0067013860680162,0.0031006529461592,-0.0129690384492278
1761132301073904600,-0.1556117097333073,-0.0317848025238141,-0.0483370376676321,0.0098404297605156,0.0008560367859899,0.014227052219212
1761132301093752600,-0.1186506370827555,0.0239762111321091,0.0107844288647174,0.003003466874361,0.018736882135272,0.0232583004981279
1761132301113600800,-0.0619796324424445,0.0268812118586152,-0.0444786086738109,-0.0060497326776385,0.0110757332295179,0.036435630172491
1761132301133448700,-0.0653335459802299,0.0355314051736146,-0.010908347505331,-0.002068500034511,-0.0052584521472454,0.0400061942636966
1761132301153296000,-0.0366086790163069,0.0001978241270408,0.1388970140367746,0.0279210172593593,-0.0158588588237762,0.0438352599740028
1761132301173143600,0.002943433040753,0.0148729768199846,0.1420084240555763,0.0408883392810821,-0.0154669340699911,0.0448898561298847
1761132301192991700,0.0434855059832334,0.0211964076878502,-0.0081166709601879,0.0289656557142734,-0.0195813290774822,0.0363033264875412
1761132301212839700,-0.0009763707514852,-0.0232764288323,-0.0229027366816997,0.0272675994783639,-0.019645432010293,0.0319365076720714
1761132301232686800,-0.0381986516214907,-0.0600352934416383,-0.0496142179965972,0.0119934016838669,-0.0282330904155969,0.0227476339787244
1761132301252534500,-0.0397268841020762,-0.046852644328773,-0.0852665461361408,-0.0002098781988024,-0.0261436644941568,0.010761528275907
1761132301272382700,-0.0169756847202777,-0.0567433757567778,-0.0611918430656194,-0.0105835953727364,-0.040313933044672,-0.0005272823618724
1761132301292230700,0.0140310095705091,-0.0244685246936976,0.0072404726475477,0.005294123198837,-0.041175402700901,-0.0162699799984693
1761132301312077800,0.0483631219569593,-0.0145981419339776,0.100738256034255,0.030048981308937,-0.0272054560482502,-0.0240693502128124
1761132301331925500,-0.0007656506102532,-0.0099531656723469,-0.0358142407029867,0.017778443172574,-0.0032370176631957,-0.0245408024638891
1761132301351773700,0.0197745216585695,0.0750636434864252,-0.1086824930369853,-0.0060663651674985,0.0019943604711443,-0.0297795180231332
1761132301371621600,-0.0884477334555238,0.0594879252245649,-0.1535597456395626,-0.0271694473922252,-0.0097800474613904,-0.021349785849452
1761132301391468800,-0.1622459601160139,0.0506709239752963,-0.0725204618096351,-0.0174520090222358,0.0081097120419144,-0.0084711704403162
1761132301411316700,-0.0934475145041942,0.0774378618044778,0.0270218624383211,0.0002199057489633,0.029446143656969,-0.0110710216686129
1761132301431164700,-0.0657807782910764,0.1140897589080035,-0.086388828164339,-0.0364878624677658,0.0436948202550411,-0.0035701999440789
1761132301451012600,-0.0530315521594136,0.0944216202333569,-0.1538420697122812,-0.0547551214694976,0.0330202430486679,0.0063620214350521
1761132301470859800,-0.1214186404913663,0.0681131667613983,0.0194476277917623,-0.0232407767325639,0.026111003011465,0.0265350714325904
1761132301490707700,-0.0427908017173409,0.0899062617007643,0.1591273166388273,-0.0006834869273006,0.032507237046957,0.0316330753266811
1761132301510556700,-0.007709843724966,0.0716691422099247,0.0226087221711874,0.0006786477752029,0.0207730382680892,0.0369369685649871
1761132301530404600,0.0179570969730615,0.0412350236427038,0.0490378794133663,-0.000598847400397,0.0134681779891252,0.0333580933511257
1761132301550252800,0.0545424681790173,0.0248418515181168,0.0756616824448108,0.0166901536285877,-0.0088377250358462,0.0185150019824504
1761132301570100700,0.0954653571326285,-0.0077723875671625,0.1210702654451131,0.0321457125246524,-0.0038524491246789,-0.0042292601428925
1761132301589947600,0.130805404452607,-0.0188102066710591,0.0485866285145282,0.0444354750216007,-0.0034041851758956,-0.030332701280713
1761132301609795600,0.1024338079057633,-0.0007786927549168,-0.0426490551590919,0.0356909856200218,-0.0006872282829135,-0.0478800013661384
1761132301629643800,0.0839107476130127,-0.0025779972618445,-0.1074140805363655,0.0176828578114509,-0.0121846953406929,-0.0592353269457817
1761132301649491700,0.0174991240724921,-0.0112428401567041,-0.0940659386634826,0.0018377532251179,-0.0201887972652912,-0.0621111057698726
1761132301669338600,-0.017460618693009,-0.0052319458367303,0.0339846871882677,0.0041116559877991,-0.0184449888765811,-0.0457906238734722
1761132301689186600,-0.052447687856853,0.0160808182397857,0.0031353754162788,0.0030105109326541,-0.0212329160422086,-0.0338657982647419
1761132301709034800,-0.1207896949380636,0.056252377369441,-0.0466986228108406,-0.0068375919945538,-0.0383785218000412,-0.0136470422148704
1761132301728882700,-0.1736372688326984,0.0705506230413913,0.0121001876384019,-0.0115119004622101,-0.0563914775848388,-0.0051105553284287
1761132301748729600,-0.1146508999221026,0.0902189078465104,0.0671516282528638,-0.0168064348399639,-0.0614010840654373,-0.0133624887093901
1761132301768577500,-0.1189352261777967,0.0417989776683971,-0.0193681328147649,-0.0024764221161603,-0.0435432009398937,0.006846709176898
1761132301788425700,-0.0847847539685666,0.0751230820560827,-0.089783146777749,-0.007656390313059,-0.0263693518936634,0.0217143949121236
1761132301808273700,-0.0586049683775752,0.0547033578291535,-0.0517114825367927,-0.0078809102997183,-0.0045315930619835,0.0252861976623535
1761132301828120800,-0.0687223116356879,0.0318489538012072,-0.0647521658957004,-0.004812161438167,0.0146209327504038,0.0285050049424171
1761132301847968500,-0.0807307293374091,0.0023739625897258,-0.0029319617986679,-0.0009083547629415,0.0192526206374168,0.0339384414255619
1761132301867816700,-0.0986212638802826,-0.0641544191982597,0.0901625014841556,0.016680397093296,0.0133682172745466,0.0390039719641208
1761132301887664600,-0.0554638938728719,-0.0535399400729686,0.0257937819480895,0.0205552466213703,0.0043587945401668,0.0428762547671794
1761132301907511800,0.0087701664328575,-0.0372539911825209,0.0353869552016258,0.0180371068418025,-0.0073437476530671,0.0378266908228397
1761132301927359500,0.046421851696074,-0.0699994188994169,0.0362847808241844,0.0218429565429687,-0.0100895147770643,0.0217107739299535
1761132301947207700,0.1372883367311209,-0.0657497255656868,0.0032703999727964,0.0274682603776454,-0.0042874231003224,0.0090802973136305
1761132301967055600,0.1574507617287337,-0.0195383017498999,-0.1271726739734411,0.003153619589284,0.0004441274795681,-0.0185908693820238
1761132301986902800,0.1431637315705418,-0.0229366389513015,-0.0360468804150819,-0.0010035722516477,0.0004301997832953,-0.0384090840816497
1761132302006750500,0.0714210492003709,-0.0036026641344651,-0.0109627080410718,-0.0040392852388322,0.0028082402423024,-0.0496937446296215
1761132302026598400,-0.0359712578956037,0.0118472723232582,0.0611450813144445,0.0023346976377069,-0.0044741984456777,-0.0494084358215332
1761132302046446600,-0.0654858869977295,0.0343206776769831,0.072272624528408,0.0181474573910236,-0.0178824327886104,-0.0372969880700111
1761132302066293500,-0.1076283078089356,0.0329881138989701,-0.0297235226124525,-0.0012480532750487,-0.0197879076004028,-0.033282995223999
1761132302086141700,-0.1714320138733834,-0.0351531829783692,-0.0820949303627014,-0.0194532535970211,-0.0230076480656862,-0.0193739403039217
1761132302105989400,-0.1769573531661182,-0.0066142305079847,-0.1404986040145158,-0.0411383099853992,-0.0414132848381996,0.0042379116639494
1761132302125837600,-0.0694672117188572,0.0068200187457725,0.113319505187869,-0.0248686932027339,-0.0362102873623371,0.0086261043325066
1761132302145685500,-0.0560803452707827,0.0001137260401621,0.144972534558177,0.0154765984043478,-0.0232478864490985,0.0094956271350383
1761132302165532700,-0.038813568649441,-0.0265795620309188,0.0276888019144535,0.0271837804466485,-0.014169842004776,0.0144914584234356
1761132302185380400,-0.0198245713453739,-0.0369845265913754,-0.0630050299674272,0.0272036828100681,-0.007029952481389,0.0149886077269911
1761132302205228500,-0.024983999935165,-0.0206842203820124,-0.1502817468822002,0.0062493276782333,-0.0068278657272458,0.0229009054601192
1761132302225075500,0.0152245302040129,0.0364328840579837,-0.0866407570987939,-0.018225947394967,-0.0068839900195598,0.0237867906689643
1761132302244923600,-0.0050762803509831,0.0038340617375448,0.0320545959085226,-0.0127930250018835,0.0015426613390445,0.0168961212038993
1761132302264771600,-0.0458066424071788,-0.0263371681097894,0.0898123728722333,0.0053361528553068,0.0105157168582081,0.0172420274466276
1761132302284619500,-0.1505661167815327,-0.0437703508066013,0.0323719912946224,0.0144554711878299,0.007126753218472,0.0330510661005973
1761132302304466400,-0.0947487332958728,-0.0417423521103337,-0.0393447529166936,0.0131770800799131,0.0036850955802947,0.0367216356098651
1761132302324314600,-0.0577648642916232,-0.0300166238075122,-0.0538385576933622,0.0048156511038541,-0.0121834548190236,0.0356417894363403
1761132302344162600,0.0033966567009687,-0.0254806974109262,0.0959592050641775,0.0170284956693649,-0.0072907106950879,0.0207874923944473
1761132302364010500,0.0312322466749697,-0.0017781155884265,0.1012222401589155,0.0359559915959835,-0.0063064862042665,0.0033656805753707
1761132302383858400,0.0750861475791782,-0.0173518245562911,-0.0217541511684656,0.035035602748394,0.002592732431367,-0.0129272723570466
1761132302403705600,0.0273839737489819,-0.0297814268121495,-0.1042541552007198,0.0159860868006944,0.0090426970273256,-0.0239890217781066
1761132302423553500,0.0558478516891598,0.0226460585068911,-0.1037783543825149,0.0021808668971061,0.0132669676095247,-0.0225475803017616
1761132302443401500,0.0461989296603947,0.0880786444148048,-0.0762462043344974,-0.0186689272522926,0.0051331962458789,-0.0242178905755281
1761132302463248400,-0.0138021692506968,0.0754146854138001,0.0187654907464981,-0.0231095291674137,-0.0119141684845089,-0.0235040057450532
1761132302483096600,-0.0020310674361884,0.0756122172798961,0.1114776767134666,-0.005882509984076,-0.0320371352136135,-0.0190359577536582
1761132302502944500,-0.0503774574540555,0.0573179973069578,0.1421574771374464,0.01836659014225,-0.040854088962078,-0.0188893638551235
1761132302522792700,-0.0847029209040105,-0.004661050613597,0.1503589037716388,0.0466388054192066,-0.0582487247884273,-0.0035078718792647
1761132302542640400,-0.0836876063816249,-0.0005143792629241,0.0278477918684482,0.0587118789553642,-0.0564919970929622,-0.0055608130060136
1761132302562487600,-0.1757053803436458,-0.0629218086633831,-0.1031266124755144,0.033984936773777,-0.0477497465908527,0.0108353607356548
1761132302582335500,-0.0804786542724818,-0.0310296367749571,-0.1791717412799596,0.0052952878177165,-0.0527657680213451,0.0024179001338779
1761132302602183700,-0.0391856168322265,-0.0350849765803664,-0.2103419555693864,-0.0271775089204311,-0.0517507977783679,-0.0077738869003951
1761132302622030600,0.0050968847475945,-0.0392353011928498,-0.0513835657566785,-0.0310050770640373,-0.0202193781733512,-0.0049053896218538
1761132302641878500,0.0556406386792659,0.001251132572256,-0.0555558830052614,-0.027515560388565,-0.0035469443537294,-0.0071326657198369
1761132302661726500,0.0183615861207246,-0.045949156150408,0.0222211841583251,-0.0366170331835746,-0.0097810383886098,-0.026115657761693
1761132302681574700,-0.029528584562242,-0.0073653046036139,0.1385702663004398,-0.0085293287411332,-0.0141758685931563,-0.0158059746026992
1761132302701422300,0.0106960929941385,0.0543271083952859,0.162542678040266,0.0142782963812351,-0.0117420637980103,-0.0081097520887851
1761132302721269500,-0.0523661470532417,-0.0086781407678499,0.1275847619056701,0.0334963463246822,-0.0290806554257869,0.0029400247149169
1761132302741117400,-0.1196830488704144,0.0123167895311489,-0.0162877024561166,0.0298096090555191,-0.0646207109093666,0.0182702634483575
1761132302760965600,-0.0196408122763037,0.0294723608629778,-0.0705816027015447,0.0085632987320423,-0.0841115042567253,0.0257116146385669
1761132302780812500,0.0534149254538118,0.0018716756233945,-0.020367665246129,0.0074258623644709,-0.0788218453526496,0.0156574174761772
1761132302800660700,0.0584857989773154,-0.0821059997459873,-0.0408610026985406,0.0138884345069527,-0.0475369729101657,-0.0067735337652266
1761132302820508400,0.0346136327415704,-0.0812095623629167,-0.1595259605675935,0.018934179097414,0.0023144653532654,-0.0198311023414134
1761132302840356600,-0.0408616602856665,-0.0329282369378954,-0.3468792547374963,-0.0278385803103446,0.0464878305792808,-0.0198922920972108
1761132302860204500,-0.0770932496178895,-0.0044443391229957,-0.3279945215255022,-0.0865270644426345,0.0591193884611129,-0.0096578896045684
1761132302880051700,-0.1415142107978463,-0.0212774735674262,-0.0402589451521635,-0.1062821075320243,0.0449044145643711,0.0020668206270784
1761132302899899400,-0.0936159298736602,0.0437495637468993,0.2052303116440773,-0.0758078470826149,0.034052550792694,0.0211384426802396
1761132302919747600,-0.0573046994339674,0.0585560512019321,0.2915495817035436,-0.0297544095665216,0.0264010597020387,0.0344608761370182
1761132302939595500,-0.0937592838671058,-0.0385201386608183,0.2168278104573488,0.0162490848451852,0.0146936597302556,0.04327292740345
1761132302959442700,-0.0823947900921106,-0.032010720234178,0.1045703815430402,0.0321523696184158,-0.0033602034673094,0.0513355024158954
1761132302979290400,0.0473772527247667,0.01043112191502,-0.1134299798250198,0.0165139734745025,0.0042433524504303,0.0464281029999256
1761132302999139000,0.0618143588781356,0.0095546678740531,-0.1941197195649147,-0.0173048079013824,0.0077686011791229,0.0330179221928119
1761132303018987300,0.1041414155412465,0.009614252574183,-0.1168073473036289,-0.0336547270417213,0.0061521669849753,0.0114240571856498
1761132303038834200,0.105874815205112,-0.0374789590448141,0.0022685294538736,-0.0315341986715793,0.015601591207087,-0.0149844707921147
1761132303058682000,0.0397487306077033,-0.0414841395655646,0.0267360312342643,-0.027162667363882,0.0234347116202116,-0.0213029682636261
1761132303078530000,-0.0223972713775932,-0.0053552068902179,0.032585341784358,-0.0228516869246959,0.0192005448043346,-0.0278874598443508
1761132303098378200,-0.052369361923635,0.0489848705844953,0.055329088512063,-0.0194384343922138,0.0098780682310462,-0.0279771536588668
1761132303118225200,-0.0568125320028513,0.0345218993375077,0.099074706736207,-0.0048958812840282,-0.0004127640277147,-0.0287980306893587
1761132303138073000,-0.0948432797115296,0.0572351778617128,0.0631207653015852,0.0071022640913724,-0.0079355267807841,-0.0224844850599765
1761132303157921000,-0.0561597671825438,0.0665990358714014,-0.0179366387069225,0.0098482025787234,-0.0125220492482185,-0.0150674609467387
1761132303177769200,-0.0629789456780999,0.0651010523986071,-0.1178156475633382,-0.0039469008333981,-0.0190445315092802,-0.0027934948448091
1761132303197616000,-0.0267260943621397,0.0683105159644037,-0.0474222609102725,-0.014564486220479,-0.0050835907459259,-0.0052983700297772
1761132303217464300,-0.0820901080571114,0.0382177581807598,0.0385708459347486,-1.30487605929e-05,0.0035225383471697,-0.0042384248226881
1761132303237312000,-0.0821631002280861,0.0204307936102151,0.0341939460247755,0.0072249635122716,0.0118874870240688,0.004905033390969
1761132303257160200,-0.0775779643949121,0.0223247906632721,-0.0807628049761056,0.0021973992697894,0.0114276185631752,0.0123462192714214
1761132303277007000,-0.0258530378546565,0.0474734431082382,-0.0787625710695981,-0.0060092764906585,0.0040811039507389,0.0085652749985456
1761132303296855300,-0.0180784583304077,0.0369037164401263,-0.0007090250521898,-0.0030340417288243,0.0042216824367642,-0.0034731610212475
1761132303316703000,-0.0087784228045493,0.0096437709296122,0.0491138672590255,0.0016115526668727,0.0102861281484365,-0.0155642889440059
1761132303336551200,-0.0047553047683089,0.0064641545128077,-0.0125707277595996,0.0024716085754334,0.022188764065504,-0.0192975271493196
1761132303356398000,-0.0070955112189054,0.0122036480128765,-0.0729389794826507,-0.012784382328391,0.0232347231358289,-0.025540605187416
1761132303376246300,-0.0024328531701117,0.0015576777707785,-0.0671440294682979,-0.017805241048336,0.0042355470359325,-0.0232502538710832
1761132303396094200,-0.0010099076949059,0.0360431906206533,0.0489969628810882,-0.0158004611730575,-0.0049572736024856,-0.0172801632434129
1761132303415942100,0.0490823761422187,0.0480826610477641,0.1457826818972825,0.0043558911420404,0.0072244368493556,-0.0264661237597465
1761132303435789000,0.007181655132398,0.0429315618949011,0.0080967972159385,0.0043609756976366,0.0150457136332988,-0.0345854572951793
1761132303455637200,-0.0654512540757656,0.01553542278409,-0.1972176855802536,-0.0230919998139143,0.0202140901237726,-0.0366314426064491
1761132303475485200,-0.0840549053240567,-0.004212941519916,-0.0835194102078676,-0.0398238189518451,0.0250196792185306,-0.031054750084877
1761132303495333000,-0.0788422852423042,-0.0206358146630227,0.0539402645021677,-0.0219391677528619,0.0188292935490608,-0.0151636572554707
1761132303515180000,-0.124208782666549,-0.003310110928677,0.1770855826556682,0.0172142386436462,0.0052303159609436,-0.0009958508890122
1761132303535028200,-0.0879352538887411,0.0506411133589223,0.1738876633971929,0.0446997582912445,-0.0030795738566666,0.0097178798168897
1761132303554876200,-0.1321479051027446,0.0072725848188623,0.0543435846060514,0.0583193302154541,-0.0143798701465129,0.0189099460840225
1761132303574724000,-0.1127902206167578,-0.0132835156714543,-0.0847585966140031,0.0483130365610122,-0.0044369590468704,0.0290680415928363
1761132303594571000,-0.0637065293002873,0.0004985241066664,-0.2370195346146821,0.0013594473712146,0.0191593114286661,0.0345309749245643
1761132303614419200,-0.0539926522765308,-0.0125491735149174,-0.2605196526676416,-0.0442022755742073,0.027996415272355,0.0327798090875148
1761132303634267100,-0.0237256704371422,-0.0199442522022873,-0.1563841554105281,-0.0764868780970573,0.0192221626639366,0.0257862191647291
1761132303654115300,0.0649706309519708,-0.0142272627949714,0.0456955832481384,-0.0792545303702354,0.0240028463304042,0.0221484024077653
1761132303673962200,0.127308867573738,0.0066722443055361,0.0713572632491588,-0.075409360229969,0.0330329649150371,0.0088719148188829
1761132303693810200,0.0971017261628061,0.0173759726168587,0.0550286442607641,-0.0750878006219863,0.01755927875638,-0.0093391025438904
1761132303713658000,0.0319460940327495,-0.0216004584440961,0.1833423049628734,0.0021966001950204,0.0258737541735172,-0.0170377343893051
1761132303733506300,-0.0646937137067318,-0.0058183308899402,0.1931236942648887,0.042911373078823,-0.0078763226047158,-0.0120902024209499
1761132303753353200,-0.062651101963222,0.0336195802029222,0.0253927999317646,0.045633241534233,-0.0157190822064876,-0.0081272460520267
1761132303773201200,-0.1294739366531372,-0.0580961420726031,0.0271866976112127,0.0448783300817012,-0.0390422753989696,-0.0181233193725347
1761132303793049000,-0.1862486208636313,-0.0523657086618244,0.140720137810707,0.0576019957661628,-0.0395946949720382,0.009804505854845
1761132303812897300,-0.063269745318219,0.0430239163534715,0.0929185221940279,0.0602390840649604,-0.0226858146488666,0.0195445250719785
1761132303832744200,-0.0453238273262977,0.0395540482858195,-0.1872235303103923,0.0271269585937261,-0.0160378478467464,0.0195593163371086
1761132303852592000,-0.029065570160374,0.0441621996683999,-0.2930412815660238,-0.0293519087135791,0.0116189839318394,0.0309807956218719
1761132304840110000,-0.1523871947288513,-0.0193129685614258,0.3482961357980966,0.1150754541158676,-0.0135344760492444,0.0430020578205585
1761132304859958000,-0.1790869856059551,-0.0137715183841064,-0.0319423677057027,0.113749511539936,-0.0073797004297375,0.0574730969965457
1761132304879806000,-0.087018212109059,0.0092649642124772,-0.3303273483872413,0.050507117062807,0.0013958283234387,0.0594572350382804
1761132304899652900,-0.0718332101978361,-0.0077454630276188,-0.2922130140483379,0.0031148374546319,-0.0027295760810375,0.0442889742553234
1761132304919501000,-0.0459649017088115,-0.0614798296941444,0.0427647904932498,0.0315638110041618,-0.0023958727251738,0.0400732606649398
1761132304939349000,0.0287056508067995,-0.0247661194007843,0.0215144971936941,0.0339602977037429,0.0059477631002664,0.0340185910463333
1761132304959196000,0.0816907334759831,0.019708836011216,0.0060544777333736,0.0257455799728631,0.0070656985044479,0.0226483531296253
1761132304979043800,0.1055463869683444,-0.0187864604692906,0.0965939958363771,0.0453868769109249,0.0092373872175812,0.0076489802449941
1761132304998892300,0.067146148360148,0.0141478408832103,0.0403004462063312,0.0529854781925678,0.0077131269499659,0.0073557565920054
1761132305018740500,0.0697688980791717,0.051638819159381,-0.082319386768341,0.0337412841618061,0.0118395686149597,0.0029439565259963
1761132305038588200,-0.0016643530156463,0.0455637004967778,-0.1490308700382709,0.0134149966761469,0.0052986806258559,0.0111537929624319
1761132305058435300,-0.1058414243921637,-0.0358547188438475,0.0075473466396331,0.0146618913859128,-0.0015798108652234,0.0209311302751302
1761132305078283300,-0.1755988512292504,-0.0486793117666617,0.128129536306858,0.0445651672780513,-0.0118523593991994,0.0300022400915622
1761132305098131500,-0.1176415331054478,-0.0367489277372136,0.0929775589048862,0.0567376092076301,-0.0091350954025983,0.0331125184893608
1761132305117979400,-0.0896862622745335,-0.02143821708709,-0.0789917036503553,0.033466350287199,0.0008104655425995,0.0262066032737493
1761132305137826600,-0.0497680933840572,-0.0451875971933826,-0.157016608095169,0.0059060929343104,-0.0068416856229305,0.0305634979158639
1761132305157674200,0.0143166946440935,-0.0464886698545888,-0.1417307761579752,-0.020580593496561,-0.0058705755509436,0.0261689331382513
1761132305177522400,0.0926307182285934,-0.0282886309711262,0.0206336227059364,-0.005303731188178,-0.0071530379354953,0.0139526827260851
1761132305197370400,0.0887425516836345,-0.0007778890373185,0.0671317545086145,0.0088331494480371,-0.0004543762188404,0.0015048747882246
1761132305217217300,0.0455441190134733,-0.003396400972642,-0.042348610907793,0.0008393083699047,-0.0011716305743902,-0.0006982297636568
1761132305237065200,-0.0137622756317257,-0.0107434757998213,-0.1199526595920324,-0.0230509154498577,-0.0028871069662272,-0.0023746802471578
1761132305256913400,-0.0425411378052085,-0.023149952908419,0.0713543406397104,-0.0032483777031302,-0.0036052272189408,-0.0106480652466416
1761132305276761300,-0.0956514542892575,-0.0244101821025833,0.1243774902969598,0.0262279994785785,-5.33841084688e-05,-0.0062834848649799
1761132305296608300,-0.0829967745732516,0.0113534243917092,-0.0430763406604528,0.0183243229985237,-0.0032294183038175,-0.0032277782447636
1761132305316456200,-0.1263555854368954,-0.0259562425008043,-0.1058954926669597,0.0004639527760446,-0.0031664902344346,-0.001575342612341
1761132305336304400,-0.0936222865492105,-0.0400957174144685,-0.0055634793460369,0.0051521053537726,0.0112488726153969,-0.0021983236074447
1761132305356152300,-0.0774279614649713,-0.0200052251419052,-0.0647106648415327,0.0019598207436501,0.010134101845324,0.0024072274100035
1761132305375999200,-0.0145789257768541,0.0050595849445089,-0.1122036529004573,-0.0160215012729167,0.0252973921597003,0.0048989453352987
1761132305395847400,-0.0283595407828688,0.005426628158614,-0.0669575669854879,-0.0277829430997371,0.0254934951663017,0.0176341999322175
1761132305415695400,-0.0612071136999875,-0.002282192653045,0.076487611874938,-0.0184802487492561,0.0206003971397876,0.0270882323384284
1761132305435543300,-0.062714887914434,-0.0170425028787925,0.1305769294589757,0.0039895614609122,0.0064948108047246,0.0423693433403968
1761132305455390200,-0.0783710144687444,-0.0334830578090623,0.0781862324863672,0.0085718939080834,-0.0114737376570701,0.0500407181680202
1761132305475238400,-0.0673757923975586,-0.0400647377543151,0.0542395397096872,0.0190963670611381,-0.0136263305321335,0.0582291111350059
1761132305495086300,-0.008640402573347,0.0089283161366358,-0.010477554872632,0.0225167386233806,-0.012012762017548,0.0634689107537269
1761132305514934300,0.0239989344205707,0.0073920099474489,-0.0538157613396644,0.0092325266450643,0.000119469827041,0.0529306419193744
1761132305534781200,-0.0106743926189839,-0.0134657403705641,-0.0910778627634048,-0.0018031280487775,0.002610383555293,0.0582418330013752
1761132305554629400,-0.0449525097958743,0.012889694048278,-0.1555237391889095,-0.0282161608338356,-0.0075063770636916,0.0624827370047569
1761132305574477300,-0.0315259689245373,0.0192051973380148,-0.0255465291887521,-0.0291002877056598,-0.003478861413896,0.0581323392689228
1761132305594325200,-0.059992550278455,0.0406756361942738,0.06178747087121,-0.0183768011629581,-0.0128166116774082,0.0550347454845905
1761132305614172200,-0.055163084295392,0.0118599491417407,0.1939963854461908,0.0211262293159961,-0.0092918565496802,0.0555978752672672
1761132305634020400,-0.0370643138293176,0.010194755875878,0.1095610294371843,0.0393691472709178,0.0058045387268066,0.0537315309047699
1761132305653868500,-0.0081001582168042,0.0150119834318757,-0.0787047034025192,0.0129698608070611,0.0044413283467292,0.0394880175590515
1761132305673716200,0.0189586752310395,-0.0153087013561278,-0.1624228510528803,-0.0105877313762903,0.0012537529692053,0.0295787081122398
1761132305693563100,-0.0085313892409205,-0.022176431701146,-0.0531844776988029,-0.0185382403433322,-0.0137974908575415,0.0168736279010772
1761132305713411300,0.0233408358380198,0.0204824141995981,0.0538444029122591,-0.0082044228911399,-0.0141496825963258,0.0107351243495941
1761132305733259500,0.0929214448034763,0.0147736080987378,0.1613280415534973,0.0231866426765918,-0.0100864171981811,-0.0089848395437002
1761132305753107200,-0.0122946142319589,-0.0594797784507274,0.0284416661083698,0.023521352559328,-0.0216631218791008,-0.0088202096521854
1761132305772954000,-0.0314843217398971,-0.0609886486437171,-0.0840425572991371,0.0133989453315734,-0.0150940790772438,-0.0094801047816872
1761132305792802300,0.0466532492991536,0.0183139110540971,-0.1322632751107215,-0.0069987373426556,0.0066045578569173,-0.0203290246427059
1761132305812650500,0.0349602542221546,0.0177765162417665,-0.1476414615064859,-0.0267351604998111,0.0109736518934369,-0.0327489748597145
1761132305832498400,-0.0196298524908721,-0.0128267118146643,-0.0579343025743961,-0.0321464352309703,0.0098932962864637,-0.0399807542562484
1761132305852345300,-0.0570774665493518,0.0123115288341417,0.0244902981340885,-0.0271845050156116,0.006254225037992,-0.0358918346464633
1761132305872193300,-0.067830623492971,-0.0171059965690597,0.1122597670018673,-0.0026593590155243,-0.0024200798943638,-0.0283796861767768
1761132305892041500,-0.0854340847227722,-0.031629173570685,0.1131868187189102,0.0131611246615648,-0.0192002281546592,-0.017377745360136
1761132305911889400,-0.0529793105155229,-0.0261372616235166,0.1070411555707454,0.0349856354296207,-0.0209234338253736,-0.0132164591923356
1761132305931736300,0.0033997985061258,0.0055205169871449,-0.019907061997056,0.0298696029931306,-0.0216069687157869,-0.0048352940939366
1761132305951584300,0.0366949690602719,-0.0038030820773914,-0.1155477026313543,-0.0008661071769893,-0.0195019412785768,-0.0110389906913042
1761132305971432200,0.0517507916338741,0.0148217580894008,-0.0498263994425535,-0.0036001806147396,-0.0089152120053768,-0.0201826766133308
1761132305991280400,0.0406746132809668,-0.0192866285437718,0.0140419693559408,0.0063819531351327,-0.0022570826113224,-0.0249654203653335
1761132306011126500,-0.0225914057102054,-0.0375352558093145,-0.0797322928845882,-0.0012789689935743,0.006293567828834,-0.0172894187271595
1761132306030974700,-0.0631237609762698,-0.0077155062807723,-0.1397907480061054,-0.0273775625973939,0.0157376583665609,-0.0120992772281169
1761132306050822400,-0.1184079874332994,-0.0166896343205124,-0.0673567954361438,-0.036402553319931,0.0051072495989501,-0.0067356615327298
1761132306070670600,-0.163008834247291,-0.0567612402070313,0.1013923360288143,-0.01256631501019,0.0018704631365835,0.0059056589379906
1761132306090517500,-0.1444156313277781,-0.0799275962609797,0.1426975753635168,0.0118931494653224,0.0005999079439789,0.0172184742987155
1761132306110365700,-0.0473806137256324,-0.0511454826844856,0.0404062446683645,0.0117645151913166,0.0048432908952236,0.0187865030020475
1761132306130213400,0.011083704072237,-0.0265586288407444,-0.0458937361687421,0.0041122613474726,0.0090431468561291,0.0113900629803538
1761132306150061600,0.0363029010027647,0.0148432027362287,-0.0791875184834003,-0.0062816450372338,0.0080761555582284,0.0044699278660118
1761132306169908500,0.0963837140865623,0.0395500296978279,-0.0685439593940973,-0.0111965592950582,0.003505251603201,-0.0087035819888114
1761132306189756700,0.0832959036502987,0.045801162514463,-0.0607025982439517,-0.0229945294559001,0.0052806744351983,-0.0208549853414297
1761132306209604600,0.0325211174417287,0.0014355492284521,0.0208960730344057,-0.0169757828116416,-0.0013399384915828,-0.0275348834693431
1761132306229452500,0.0047393034815788,0.0351019277151674,0.1189700782954692,0.0113648474216461,-0.0044132731854915,-0.0341028533875942
1761132306249299500,-0.0058854047767817,0.0477761158492416,0.0936947672635316,0.0227517485618591,0.0058905989862978,-0.0440520457923412
1761132306269147600,-0.052007542873919,0.0147637077592313,-0.0264063608884811,0.0206984058022499,0.0163470301777124,-0.0439837127923965
1761132306288995600,-0.1185329289872199,2.2284897044e-06,-0.1440980898112058,0.0022804900072515,0.0182343907654285,-0.0244852993637323
1761132306308843500,-0.1194509206149727,0.0620596023434773,-0.164383337470889,-0.0169933848083019,0.0180253982543945,-0.0114197814837098
1761132306328690400,-0.0990770448237657,0.0726118298875168,-0.0508984125882387,-0.0171554274857044,0.0298110395669937,-0.0042445687577128
1761132306348538600,-0.1165530802816152,0.0455700206397101,0.0338192674934864,-0.0084690209478139,0.0240766145288944,0.0013759227003902
1761132306368386600,-0.1492108297150582,-0.0042036622349172,0.0999058968633413,0.0156458541750907,0.021433038637042,0.0199012197554111
1761132306388234500,-0.0485948118209838,0.032904527268745,0.0750783295989036,0.0270583238452672,0.0252623297274112,0.0272712893784046
1761132306408081400,0.0496751544035971,0.0507616709986701,-0.0422971729815006,0.0086243823170661,0.0347777530550956,0.0168306790292263
1761132306427929600,0.07522957463786,0.0094508787060156,-0.0266255565971136,-0.0012018824927508,0.0365737862884998,0.0022349576465785
1761132306447777500,0.0178092129349708,-0.0383771134609356,0.0502583611190319,0.0171503461897373,0.0423643812537193,-0.0044368486851453
1761132306467625700,0.0437872654087841,0.007021897993423,-0.0248263982206583,0.0198392923921346,0.0391739681363105,-0.0104779172688722
1761132306487472600,0.0706827249884605,0.0481507943805307,-0.1504950973719358,-0.0113737536594271,0.0311402752995491,-0.0259809773415327
1761132306507320600,0.0072369655162096,0.0431313953159376,-0.0964297451853752,-0.0243103019893169,0.0137795023620128,-0.0349112413823604
1761132306527168500,-0.0318725904051214,0.0074451649067923,0.1341179630666971,4.23956662416e-05,0.006810784805566,-0.0425795391201972
1761132306547016700,0.0237747702758759,0.0645173707591369,0.1150187103211879,0.0176765657961368,0.0012523590121418,-0.0520626045763492
1761132306566863600,0.0542768029801547,0.1076068996947258,0.0401297658145427,0.0107571147382259,0.0034078983590006,-0.0613829456269741
1761132306586711600,-0.0205900758251547,0.0994010526137426,0.074238371643424,0.021047132089734,-0.0083873607218265,-0.0606759674847126
1761132306606559500,-0.0427194900467991,0.0818044229835271,0.1294148999422788,0.0476477518677711,-0.0266242194920778,-0.0518035180866718
1761132306626407700,-0.1084578174356371,0.0890562207426875,0.0453524688988924,0.0587956011295318,-0.0433274842798709,-0.0391117483377456
1761132306646254600,-0.0505376895170658,0.13213102703318,-0.0630956308603286,0.0375053212046623,-0.0407896004617214,-0.0401741713285446
1761132306666102500,-0.0828012520011514,0.1195487184336408,-0.0783779556661844,0.0278791561722755,-0.040736898779869,-0.0509950295090675
1761132306685950500,-0.0926504458423703,0.0651017830509692,-0.0122065706223249,0.0422355085611343,-0.0334018990397453,-0.0576522164046764
1761132306705798700,-0.0727308166246861,0.0898728708878159,-0.0691769966006279,0.0317467227578163,-0.0113868229091167,-0.0520414039492607
1761132306725645600,-0.0625683921158313,0.0748341090468689,-0.0906622676998376,0.0119417607784271,0.0130230179056525,-0.0386075302958488
1761132306745493800,-0.1388143772546201,0.0280756092749536,-0.1239864451527595,-0.0082079581916332,0.0224099662154912,-0.017534889280796
1761132306765341400,-0.2273361257944255,-0.0659818538211286,-0.0514729976058006,-0.00737458281219,0.0153143787756562,0.0152773754671216
1761132306785189600,-0.2454954673413187,-0.0834446644712239,0.0335223303735256,0.0066851414740085,-0.0025812848471105,0.0504655577242374
1761132306805036500,-0.1827367402851581,-0.0365610770149156,0.0804214441925287,0.023215115070343,-0.0138825913891196,0.0636708810925483
1761132306824884700,-0.0987589187853038,-0.0118882253881543,0.0497141712397336,0.0343198217451572,-0.0197559241205453,0.0618194639682769
1761132306844732400,-0.0082095368754118,0.0174415851989761,-0.0557651418417692,0.0184286404401063,-0.0207843352109193,0.0503240264952182
1761132306864579600,0.0745614661179482,-0.0165786847593262,-0.1051917283117771,-0.00957319047302,-0.0165888965129852,0.0321792662143707
1761132306884427500,0.0997683150235563,-0.0538890092389658,0.0551782818645238,-0.0002626818604767,-0.0082274759188294,0.0283399615436792
1761132306904275700,0.1167046906467527,-0.0212695825219154,0.121790396413207,0.0194658935070037,-0.0139265488833189,0.0169776007533073
1761132306924123600,0.102961850367859,0.0278415082581341,0.0143652099609375,0.0235356166958808,-0.0226318724453449,0.0038294030819088
1761132306943970600,-0.0041896337095648,0.0592302606690674,-0.0849906518042087,0.0188770927488803,-0.0331585519015789,0.0071133263409137
1761132306963818500,-0.0651787938099354,0.0309497034065425,-0.0964712462395429,0.0112536726519465,-0.032760489732027,0.02000068500638
1761132306983666700,-0.1649048040617257,0.0175898345632478,-0.1191898585259914,-0.0243607331067323,-0.0071218507364392,0.0328684635460376
1761132307003515100,-0.1952788264721632,0.0177299371536821,-0.0285556478768587,-0.0484095327556133,0.004725637845695,0.0382952876389026
1761132307023362000,-0.2567801738783717,-0.0562112781740725,0.2096925517499446,-0.0008214148692786,-0.0254198741167783,0.0499876961112022
1761132307043210200,-0.2127207404647022,-0.0881808992128819,0.2481102529495954,0.0491157844662666,-0.0373297967016696,0.0593343265354633
1761132307063058200,-0.031444793447107,-0.0308179302530363,0.0195832368701696,0.0486963614821434,-0.0291699357330799,0.0440323762595653
1761132307082906400,0.0870470728773623,0.0005256678419187,-0.1440951672017574,0.0265575535595417,-0.0244704950600862,0.0292488876730203
1761132307102753300,0.1774425063345581,-0.0253009569298475,-0.1611637909024953,-0.0026568653993308,-0.0042155184783041,0.0067163868807256
1761132307122601200,0.1273944269653409,-0.0562268410693854,-0.1414104581624269,-0.0226427745074033,-0.0082167042419314,-0.0037549412809312
1761132307142449200,0.092393183145672,-0.0500313108975067,-0.0204775553613901,-0.023451667279005,0.0103573817759752,-0.0145756900310516
1761132307162297300,0.0727121849894523,-0.0119188031895086,0.0008545710027217,-0.0236846767365932,0.0120600182563066,-0.0196940246969461
1761132307182144300,0.0065275751378387,-0.0144396999692544,0.0071235682696104,-0.0225040465593338,0.0086717214435338,-0.0261098537594079
1761132307201992200,-0.1211104513250291,-0.0435236095039173,0.1092126543909311,-0.0049060736782848,-0.0121354265138506,-0.0179107896983623
1761132307221840100,-0.1443391320254653,-0.023273323559761,0.0548918661385774,0.0097706792876124,-0.0270825494080781,-0.0045430627651512
1761132307241688300,-0.0709867494363337,-0.0070618646776303,-0.0596411064922809,-0.0043748700991272,-0.0118668666109442,-0.0022840676829218
1761132307261535200,-0.0305618731327354,0.0041684082584455,-0.0523141246050596,-0.0126932766288518,0.0019244763534516,-0.0046338839456439
1761132307281383200,-0.0707392774812877,-0.0201037536129355,0.0180564656943082,-0.0082369865849614,0.0063113374635577,0.0007937475456856
1761132307301231000,-0.1070628559459,-0.0137200073925778,0.0229518365204334,-0.0002053757198154,-0.0012972792610526,0.0091699119657278
1761132307321079300,-0.0355660380955785,-0.005546199417673,-0.0365887322068214,-0.0019814637489616,-0.0007533929310739,0.0040927142836153
1761132307340926200,0.0159589088931679,0.0142590461727231,-0.107450320893526,-0.0227913297712802,0.0077874148264527,-0.0041832607239484
1761132307360774400,0.0256977742277085,-0.0295138984497636,-0.0479687888771295,-0.0239367336034774,0.0068360622972249,-0.0133391702547669
1761132307380622000,-0.0045482378888875,-0.0399915629202499,0.0216156194806098,-0.0128431664779782,0.0004318039864301,-0.0157608482986688
1761132307400470300,0.0473727957453578,-0.0130610685598105,0.0498152935266494,-0.0107499463483691,0.0049778930842876,-0.0286978315562009
1761132307420317200,0.0636375557173043,-0.0001392988728359,0.0310772753089666,-0.0057086306624114,0.0035401962231844,-0.0325801074504852
1761132307440165400,0.0643313832003623,-0.0079924235260114,-0.0022737901508808,-0.0047843921929597,-0.0030389740131795,-0.0448277369141578
1761132307460013000,0.0140706839937716,-0.0275343054724857,0.0224275203853845,0.0025693490169942,-0.0131251867860555,-0.0480319336056709
1761132307479861200,0.0031190088033676,-0.0135865902712568,0.0408574955672025,0.0048126960173249,-0.007628671824932,-0.0577675923705101
1761132307499708200,0.02363411969617,0.0036515447774901,0.0128425304383039,0.005857793148607,0.0004117239732295,-0.0611332319676876
1761132307519556400,-0.0317022022742778,0.0045856838224455,-0.1116495261490344,-0.0159109812229871,0.0096587780863046,-0.0582962706685066
1761132307539404000,-0.1068065430972725,-0.0049685456601902,-0.0894528919100761,-0.0251721981912851,0.002499351510778,-0.0408824533224105
1761132307559252200,-0.1232612726833671,0.0232113277068361,0.0222480721652507,-0.0174082834273576,0.0023953130003064,-0.01643593236804
1761132307579099100,-0.0728327426292002,0.0671391340974718,0.0004091653227806,-0.02292225882411,0.0040595969185233,-0.0054548881016671
1761132307598947300,-0.1471351194195449,0.0326988120961934,0.0193149413228034,-0.0124517064541578,-0.0125219179317355,0.0136816184967756
1761132307618795300,-0.1559371422953903,0.0053452334854751,0.1272410630345344,0.0067700729705393,-0.0283083207905292,0.0410367958247661
1761132307638643200,-0.0614570698730647,0.0299776800366118,0.0788940884947776,0.0234523303806781,-0.0178188793361186,0.0438234135508537
1761132307658490000,-0.0326381679501384,0.0448961399661377,-0.1255722530394792,0.0003530192188918,-0.0021299100480973,0.0447473600506782
1761132307678338300,-0.0073522624589502,0.0489715361788868,-0.2381283726394176,-0.0415251664817333,0.0040282970294356,0.0421662554144859
1761132307698186200,-0.0641453591089695,0.0003802314892411,-0.1257002633333206,-0.0540251284837722,-0.0034748984035104,0.0379692912101745
1761132307718034200,-0.0768896168045699,-0.0373931073922663,0.1045569375395774,-0.0250503234565258,-0.0058023165911436,0.0397973395884037
1761132307737881000,0.0118816495168954,0.045934944961965,0.1330757605373859,0.0058334860950708,-0.004832352977246,0.0320240780711174
1761132307757729300,0.0227384860306978,0.0492608745142817,-0.0538069935113191,-0.0109328562393784,-0.0073153171688318,0.022778894752264
1761132307777577200,0.0490765309233218,0.0075929028144106,-0.0924842224299907,-0.0345398373901844,-0.0063803931698203,0.0041030491702258
1761132307797425200,0.0305946063585579,-0.0062367754977196,0.0373977105021476,-0.0305152274668216,-0.0111914668232202,-0.0021166568621993
1761132307817272000,0.06918466845043,0.0387779493467882,0.1433428875297308,-0.0073874378576874,-0.0133401276543736,-0.0080474140122532
1761132307837120300,0.0613476181492209,0.0477122933654114,0.0273024329453706,0.0008289222605526,-0.010151277296245,-0.0181661695241928
1761132307856968200,-0.0222304634433239,0.0246847977928817,-0.1044318498551845,-0.0089056314900517,-0.0131170786917209,-0.0177164524793624
1761132307876816400,-0.0634806115899234,0.0319672464186325,-0.1402747321307659,-0.0299927107989788,-0.0095222815871238,-0.0071194395422935
1761132307896663300,-0.0529470156811177,0.0812530361784622,-0.04405132317245,-0.0281051620841026,-0.0001779401209205,-0.0041279774159193
1761132307916511200,-0.08833828173168,0.0818670764235779,0.0046048634469509,-0.033575315028429,-0.0013052687281742,-0.0039554773829877
1761132307936359200,-0.1281881346262991,0.0082206062586978,0.0916273133397102,-0.0124507863074541,-0.0032841304782778,0.0042142919264733
1761132307956207400,-0.1643215973462909,-0.0150022657554596,0.1127156940758228,0.0079713016748428,-0.0088914800435304,0.0107841733843088
1761132307976054300,-0.0927984760109335,-0.0370693187979981,0.0844219120055437,0.0249172616750001,-0.0050754370167851,0.0139836948364973
1761132307995902200,-0.0360112976450473,-0.0176760515419766,-0.0591793341994285,0.0192512664943933,-0.002261621877551,0.0132130309939384
1761132308015749600,0.018209902690351,-0.0021085896518081,-0.2013029090672731,-0.0087042972445487,0.0165715776383876,0.010059411637485
1761132308035597800,0.0691229283258318,0.0495492995342239,-0.1729799009025096,-0.0343033522367477,0.0202512890100479,0.0003780086408369
1761132308055444700,0.0063667585529386,0.0308911781523376,-0.0456038133114576,-0.0370217636227607,0.0189280621707439,0.0037876730784773
1761132308075292700,-0.0542263879671692,0.0298582914406433,0.1314975514352321,-0.0234002508223056,0.0107337646186351,0.0087860859930515
1761132308095140600,-0.0944701355502009,0.0164808504080399,0.1744493889331817,0.0029677073471248,-0.0062350067310035,0.0202875174582004
1761132308114988800,-0.0827235105898231,0.0018149404674768,0.1471352655500173,0.0238234773278236,-0.0128106912598013,0.0237611159682273
1761132308134835700,-0.0437099623888731,0.0032450098032131,0.0737298375993967,0.0383913852274417,-0.0156356692314147,0.0248491447418928
1761132308154683600,-0.0098940558962523,-0.0207553859220817,-0.0698749157369136,0.031079962849617,-0.0125155905261635,0.0209215506911277
1761132308174531600,0.0009498480707406,-0.0337941695848479,-0.1563046604335308,0.0054231653921306,-0.0125185428187251,0.015251250937581
1761132308194379800,0.0299480520833283,-0.0494693661658093,-0.1461351485967636,-0.0131985507905483,-0.0171728357672691,0.0080476012080907
1761132308214226700,0.0473993184261024,-0.0634289179353043,0.0402770653307437,0.0001867855899035,-0.0044315471313893,-0.0038004990201443
1761132308234074600,-0.0033141660492867,-0.0484152905356138,0.079434186720848,0.0113430581986904,0.0017541034612804,-0.0099237589165568
1761132308253922800,-0.0060075698517262,-0.0563610619083046,0.0349076472520828,0.0085830781608819,-0.0028933866415172,-0.0178400985896587
1761132308273770800,-0.0059668725151568,-0.0694131069114431,0.0765203451007604,0.0287256557494401,0.0072760879993438,-0.0198796652257442
1761132308293617700,-0.016079539598152,-0.0630794103778898,-0.0865326205492019,0.0090501485392451,0.0059484518133103,-0.0220597926527261
1761132308313465600,-0.0727004945516586,-0.067261883694306,-0.1245271279007196,-0.006416592746973,0.0068394467234611,-0.0086688175797462
1761132308333313800,-0.0753473557986319,-0.0359740343745797,-0.0598188011467456,-0.0130036082118749,0.0051788091659545,0.0050962851382792
1761132308353161700,-0.0767009623646736,-0.0212199346939101,0.0165828860104084,-0.0063046682626008,0.0045309700071811,0.0171706359833478
1761132308373008600,-0.0471781499560922,0.0101085023645311,0.0381581734806299,0.0005324883386492,0.0128051554784178,0.0217518769204616
1761132308392856600,-0.0943612683482468,-0.0251748463321477,-0.0229044902473688,-0.0078677758574485,0.0067987591028213,0.032401081174612
1761132308412704800,-0.11711758229658,-0.0591999751286581,-0.0385159008771181,-0.012876140885055,0.0003109285607933,0.0416056513786315
1761132308432552700,-0.049621743715927,-0.0387289225732907,-0.0252682967692613,-0.014609545469284,-0.0058671301230788,0.0458171293139457
1761132308452399600,0.012725772190839,-0.0193321481859311,0.0170557642191648,-0.0125464387238025,-0.0028082455974072,0.0447023436427116
1761132308472247600,0.0399367274604737,-0.0484371370412409,0.061532034805417,-0.008990685455501,-0.0094231683760881,0.0233831387013196
1761132308492095700,0.0125725543905049,-0.1092522557489573,0.1804886690974235,0.03208002820611,-0.0109686162322759,0.0212847590446472
1761132308511944000,0.0432147992830723,-0.0522818663032725,-0.0096925419747829,0.024426782503724,-0.0024252750445157,0.0173891428858041
1761132308531790800,0.0901100406445562,-0.0288606587054207,-0.1738350564271211,-0.0107835261151194,0.0045070275664329,0.0020581418648362
1761132308551638500,0.0429682041108608,-0.0587854029783979,-0.1072574286699295,-0.0257981847971677,0.0047764349728822,0.0031531241256743
1761132308571486700,-0.0404155239533633,-0.0929633477164432,0.0381739555716514,-0.0144919278100132,-0.001200713799335,0.0033960680011659
1761132308591335000,-0.084001640766859,-0.0482525011893361,0.1059901852130889,0.0051433201879262,-0.0046487664803862,0.010621640831232
1761132308611181800,-0.0911652487859129,-0.0321201719580218,-0.0134866735607385,-0.0074425898492336,-0.0022643255069851,0.0144660761579871
1761132308631029500,-0.0805662594906985,-0.0041835327623412,-0.0253460381805896,-0.0050883069634437,-0.0039067519828677,0.0141371292993426
1761132308650877700,-0.0872902339834719,-0.003474032786116,0.0657598816335201,-0.0025885887444019,0.0029821055941283,0.013026924803853
1761132308670725600,-0.1202230009660124,-0.0180457616372033,0.0935030440837144,0.0202800463885068,-0.0092815309762954,0.0229820031672716
1761132308690572800,-0.0962323229171335,-0.0225629833333194,0.0238210205703973,0.032643336802721,-0.0230253301560878,0.029505094513297
1761132308710420700,0.0055992813117802,0.0186622861003503,-0.0898684869736433,0.0227090436965227,-0.0205707233399152,0.029044734314084
1761132308730268700,0.0317329627387225,0.0241800631411373,-0.1591542046457529,0.0039061573334038,-0.0105220153927803,0.0286896061152219
1761132308750116600,-0.0313051657807081,0.0041227424858137,-0.1363461605101823,-0.0120881348848342,1.278007403e-06,0.0415193289518356
1761132308769963800,-0.0657660191133618,0.0097103698924183,-0.0787245771467685,-0.0247948002070188,0.0077539756894111,0.047906044870615
1761132308789810700,-0.0921964184645563,0.0003492152964696,0.0235673380702734,-0.0215982608497142,-0.0010586474090814,0.05110864341259
1761132308809657900,-0.079951269397512,0.0002827989967539,0.1244324353545904,-0.0020242920145392,-0.0103176599368453,0.0517395474016666
1761132308829505800,-0.0282132641799747,0.0352639133438468,0.1340682787060737,0.0245479550212621,-0.027787622064352,0.0552795343101024
1761132308849353700,0.0744577865477651,0.0340355405926704,0.0210077167153358,0.0205265339463949,-0.0195054896175861,0.0443541929125785
1761132308869201700,0.0668483344573527,0.0198167533650994,-0.0709901835024356,0.0039654476568102,-0.0118763921782374,0.0330745950341224
1761132308889048800,0.0475466179423034,0.0149346438793465,-0.0305927066624164,0.0009616203606128,-0.0027386751025915,0.0289268027991056
1761132308908896800,0.0398797365762293,0.0301889846997335,-0.0292062207400798,0.0080064563080668,0.0042467820458114,0.0132710691541433
1761132308928744700,-0.0166452837221324,0.022737536182627,-0.1157873566061258,-0.0046410891227424,0.0035774901043623,0.0080156149342656
1761132308948592600,-0.0398139047984033,0.0271142899621278,-0.1212619886249303,-0.0310339126735925,0.018372880294919,-0.0037274654023349
1761132308968439800,-0.0863379747599363,0.0034723522856831,0.0316764102458953,-0.0179958753287792,0.0224326029419899,-0.0063429563306272
1761132308988287700,-0.0828857884794473,0.0025624708991497,0.0948012672007083,0.0048699788749217,0.0160776488482952,-0.0031175189651548
1761132309008136000,-0.0620824352297931,0.0531177691381424,-0.0207598794341087,-0.0001848703250288,0.0032815823797136,0.0040246127173304
1761132309027984000,-0.033722090729326,0.0430935840561985,-0.0142810388088226,-0.0021901815198361,0.0023303318303078,0.0125927897170186
1761132309047831000,-0.0064558981411159,0.0312757935557514,0.0257160405367612,0.0023063239641487,0.002636436605826,0.0229195728898048
1761132309067679000,-0.0504614824756979,0.0162344378989189,-0.0107253921538591,0.0018913298845291,-0.0067914733663201,0.0380289554595947
1761132309087527000,-0.0285024563848972,0.0096999215636402,-0.0252361480653285,0.0010419506579637,-0.0155878691002726,0.0392363294959068
1761132309107374800,-0.0497222814809531,1.8047113344e-05,0.0579722964972257,0.0043953545391559,-0.0142122907564044,0.0404300056397914
1761132309127223000,-0.0281025703471153,-0.0157288629969581,0.1332458564072847,0.0209512170404195,-0.0157668981701135,0.0420681461691856
1761132309147070000,0.0143930478159338,-0.0256179504571482,0.044333062723279,0.0289647839963436,-0.0138137619942426,0.0345752462744712
1761132309166918100,0.04268997169137,-0.0103872097080573,-0.0921118819862604,0.0126665355637669,-0.0097775245085358,0.0234151575714349
1761132309186765800,0.0699113022245466,0.0052178077135235,-0.141568863594532,-0.0049593369476497,-0.0030093062669038,0.0143877603113651
1761132309206615000,0.0153008833758533,-0.0390289284331724,-0.0913321297854185,-0.0188418887555599,-0.0071661625988781,0.0026223009917885
1761132309226462700,-0.101810561440885,-0.093079740637727,-0.0183615861207246,-0.0173150263726711,-0.0173397436738014,0.0099473530426621
1761132309246310000,-0.1037175641059875,-0.0707266371954232,0.1105254905551672,-0.0006357436068356,-0.0068163257092237,0.0186847820878028
1761132309266157800,-0.0479568061783909,-0.0057525721773505,0.0204670339673757,0.0075387605465948,-0.0007165705319494,0.0183240082114934
1761132309286006000,-0.0246013572931289,0.0278867356393486,-0.1175268937498331,-0.0095512801781296,-0.0065152635797858,0.0152429193258285
1761132309305854000,-0.0229411689959466,0.0404648064551875,-0.0971720879852771,-0.0227807760238647,0.0002902837004512,0.0100472029298543
1761132309325702000,-0.0444585887990891,0.0280141614113003,0.0216769942790269,-0.0168601535260677,-0.0053532049059867,0.0161073189228773
1761132309345548800,-0.0235461491517722,0.0193882257547229,0.1283271047055721,0.003826648928225,-0.0045525543391704,0.0142320115119218
1761132309365397000,-0.0775359518840908,0.0362546414142474,0.02812427072227,0.0122571028769016,-0.0059289960190653,0.0093057788908481
1761132309385245000,-0.0417515217974781,0.0026258915241807,-0.0358522346258163,0.0128839695826172,-0.0045848167501389,0.0088723786175251
1761132309405092900,0.0091452833555638,0.0014716434551402,-0.0494014520287513,0.0014841803349554,0.0172862876206636,0.0004284986644051
1761132309424939800,-0.0226576758794486,-0.0230356788789853,-0.0342553208231925,-0.0025288402102887,0.0156351923942565,-0.004951215814799
1761132309444788000,-0.0619502602174878,-0.0296677373046055,0.0826116477131843,0.0171201564371585,-0.0075780302286148,0.0016498989425599
1761132309464636000,-0.0076803253695368,0.0242081201918423,0.0470972667396068,0.0293917376548051,-0.0189045406877994,0.0013777969870716
1761132309484483800,-0.0018805530495941,0.075063205095008,-0.0491904396265745,0.0203656777739524,-0.0315172336995601,-0.0016619630623608
1761132309504330800,0.0405047366067767,0.0209023566447198,-0.0894178205966949,0.0072752004489302,-0.0192890502512455,-0.0111568588763475
1761132309524179000,-0.0179535898417234,-0.0325984935268759,0.0365606751561164,0.0038827690295875,0.0077174678444862,-0.0122552830725908
1761132309544027000,-0.0573284456357359,0.0055059039399027,0.1017839656949043,0.0271155815571546,-0.0034556004684418,-0.0091330558061599
1761132309563875000,-0.0572254236526787,0.0737748457849025,0.0149462247192859,0.0308893788605928,-0.0147538185119628,-0.0072643714956939
1761132309583722000,-0.068154667815566,0.0803715041035786,-0.0340928237378597,0.0138241564854979,-0.0504403263330459,-0.0099055115133523
1761132309603570000,-0.0816281896337866,0.049096368134953,-0.0196674080222845,0.0131966900080442,-0.0140800271183252,0.0091682029888033
1761132309623417900,-0.0918066154293715,0.0281803117584437,-0.0735959820866584,0.0092818196862936,-0.0242057386785745,0.0131721561774611
1761132309643266000,-0.1192421732351183,-0.017634258226864,-0.0270095874786376,0.0031716080848127,-0.0188241023570299,0.0108901485800743
1761132309663113000,-0.0447520187877118,-0.0007428177239373,0.0004722936868667,0.0104814041405916,-0.0088663967326283,0.0055346139706671
1761132309682961000,-0.0761664170965552,0.0198049898620694,-0.0989724154055118,-0.0066132573410868,-0.0075682587921619,0.0096050826832652
1761132309702808800,-0.0372927888229489,0.0151073700977489,-0.0946387701153755,-0.0279904529452323,-0.021034799516201,0.0185349285602569
1761132309722657000,-0.0051779871597886,0.0005349836595356,-0.0621048662573099,-0.0470694564282894,-0.0247781313955783,0.017353905364871
1761132309742504000,0.0487784978248178,0.0246054854789748,0.0973392612457275,-0.0242591463029384,-0.0153096579015254,0.0127197317779064
1761132309762351900,0.1273288874484598,0.046656829495728,0.1121627363681793,0.0055175139568746,-0.0033260628115385,-0.003974312916398
