timestamp,accel_x,accel_y,accel_z,gyro_x,gyro_y,gyro_z
1761132733536756000,-0.2403137903871014,0.5950213641300797,-0.0563911647856235,0.2104196101427078,-0.0820928812026977,-0.4285590946674347
1761132733556604000,-0.3096446623751893,0.4878511753521859,0.0547977581143379,0.3099031448364258,-0.0974849313497543,-0.4070480763912201
1761132733576452000,-0.4507962504057213,0.4525279330365359,0.0381032284229993,0.4008081257343292,-0.1134467646479606,-0.3728010952472687
1761132733596299800,-0.6121290046669542,0.7895430886246263,-0.6227776783227921,0.2549147307872772,-0.0642334595322609,-0.3204690515995025
1761132733616148000,-0.382513974155113,0.965458458457142,-1.0843208385944365,-0.1135135143995285,-0.1000398620963096,-0.3355261087417602
1761132733635997200,-0.1763176670230925,0.7653701858766376,-0.1366243929296731,-0.3391366302967071,-0.1964899599552154,-0.324526697397232
1761132733655844900,-0.2003673817828297,0.414596407918632,0.8659802854865789,-0.446989357471466,-0.1793346405029297,-0.2587603032588959
1761132733675693000,-0.06008925211858,-0.2059114257760345,1.719960921099782,-0.3771834671497345,-0.1459602564573288,-0.2310017049312591
1761132733695541000,-0.0951998015316203,-0.7333145670548081,2.079377001327276,-0.1950453221797943,-0.1461990922689438,-0.2277812361717224
1761132733715389000,-0.3084047087840735,-1.1462994481235742,1.5208347715497017,0.005115941632539,-0.1266090422868728,-0.2581304609775543
1761132733735237000,-0.4206596169477328,-1.4223513087049129,0.5425339287847281,0.2176325768232345,-0.0627541318535804,-0.3055447041988373
1761132733755085000,-0.3909572101885453,-1.554253349287808,-0.3824824830383062,0.3592855930328369,0.0358326472342014,-0.3363677859306335
1761132733774933000,-0.3009371493823826,-1.4193174939669668,-1.1414356414794922,0.3350003063678741,0.1356180608272552,-0.3527376055717468
1761132733794782000,-0.086239117495343,-1.128456479049474,-1.7120424030601975,0.1039688065648078,0.2385844588279724,-0.3165960609912872
1761132733814630100,-0.0617411475114524,-0.7888824327588081,-1.5634002400785685,-0.20513816177845,0.2817096710205078,-0.1524043679237365
1761132733834477800,-0.1593016320261172,-0.5977065115608274,-0.97612525229156,-0.5293977856636047,0.2487820237874984,0.094220221042633
1761132733854326000,-0.1482627169436775,-0.5842277290455997,-0.3559329142868518,-0.9036892056465148,0.0818219408392906,0.2895143032073974
1761132733874174200,-0.2701855075648985,-0.5404945319116116,0.7003612687408923,-1.1025999784469604,-0.1351406723260879,0.3871876001358032
1761132733894022000,-0.4905925099495798,-0.4240008536670356,2.0756004053980117,-0.9231988191604614,-0.3517772555351257,0.3922943472862243
1761132733913870000,-0.6130659201908856,-0.0429945075958967,2.618713010853529,-0.3660328686237335,-0.3779233396053314,0.3502967357635498
1761132733933719000,-0.8279640046946704,0.0258783914916217,2.1088024177759883,0.3231528997421264,-0.2042814046144485,0.314602792263031
1761132733953567000,-0.4501848039764911,0.210375784773752,0.6559972263574599,0.7812405228614807,0.0341413170099258,0.3119807839393616
1761132733973415000,-0.2066668837858364,0.2739398368634283,-0.8946165973842144,0.8630751371383667,0.2086891680955886,0.4059635698795318
1761132733993263000,-0.1846983957469463,0.2841175320066511,-1.7475334031581875,0.6544472575187683,0.2514480650424957,0.5513891577720642
1761132734013111000,-0.1114211607532575,0.1582734762884676,-1.8390911583930252,0.3314586579799652,0.1772539913654327,0.6409432291984558
1761132734032959000,-0.1339420219779014,0.2291385721065104,-1.66865801936388,-0.0168586112558841,0.0844602286815643,0.6713699102401733
1761132734052807200,-0.2540873545978218,0.3672413670256734,-1.3187632161974907,-0.2914361655712127,0.0343691557645797,0.6817655563354492
1761132734072654800,-0.5332605620700865,0.4115362896956503,-0.6253378841996192,-0.3849678337574005,0.0059337322600185,0.744765043258667
1761132734092504000,-0.8134151087298989,0.4454930659636855,0.2221311775624752,-0.2875546813011169,0.0151132764294743,0.8514024019241333
1761132734112352000,-1.0387896521277724,0.4329176620289683,0.8807184204131364,-0.0643903091549873,-0.0052429037168622,0.9512835144996644
1761132734132200000,-0.9293930925372988,0.3981635979034006,1.0785095219671723,0.1914559155702591,0.0595973059535026,1.0127640962600708
1761132734152048000,-0.6535133005872369,0.4798422025501728,0.7882143242388964,0.4276432693004608,0.2358560860157013,1.062536120414734
1761132734171896000,-0.5219017673835158,0.567482199819386,0.1755728400051593,0.4869331121444702,0.4186103045940399,1.1077322959899902
1761132734191744000,-0.5535817212933675,0.4085675030179321,-0.0988099183201789,0.4179366528987884,0.4669268131256103,1.162419319152832
1761132734211592000,-0.4609986050661653,0.133248048364371,0.2704074249535799,0.3386133015155792,0.3802686631679535,1.236611008644104
1761132734231440100,-0.6258687031406909,-0.2057386995576322,0.4654547807574272,0.2250779271125793,0.3658487498760223,1.3503451347351074
1761132734251288800,-0.784441454636678,-0.909455270075798,0.8637205238610506,0.2065724730491638,0.3346001207828522,1.406505465507507
1761132734271137000,-0.8522028122857213,-1.5838690276116132,1.276083765900135,0.3407782316207886,0.2913571000099182,1.4201228618621826
1761132734290985200,-1.0968898127883673,-1.9243173725187777,0.8247726613074541,0.381255567073822,0.3438842892646789,1.4452385902404783
1761132734310833000,-1.211977642823011,-2.0754421460963783,-0.2424754619330167,0.148177221417427,0.4340243637561798,1.5289154052734375
1761132734330681000,-1.1652482595477252,-2.1626554423861206,-0.9402145654767752,-0.2410827279090881,0.4771407544612884,1.6288414001464844
1761132734350529000,-0.9290035817630588,-2.4260573724918064,-0.6631301469773053,-0.5453053712844849,0.2489455491304397,1.6643208265304563
1761132734370377000,-0.7314114368472248,-2.578886027377844,0.0801391201198101,-0.5995866060256958,-0.0221891310065984,1.6409786939620972
1761132734390225000,-0.5054061212651432,-2.4979654014915225,0.2878016273468732,-0.4830255806446075,-0.1393726617097854,1.6195582151412964
1761132734410074000,-0.3683510818332433,-2.025559048030525,-0.1912549777835607,-0.3277042210102081,-0.0333147086203098,1.6085412502288818
1761132734429921000,-0.3417620578542351,-1.3414458803877234,-0.636002486076951,-0.2268531322479248,0.1694603413343429,1.5678913593292236
1761132734449769000,-0.3916749300038442,-0.4658475794672965,-0.9277437909603118,-0.2733473479747772,0.3588873744010925,1.4869415760040283
1761132734469617000,-0.4681418278843164,0.1246139294013381,-0.6862994256407022,-0.3922141790390014,0.4223904609680176,1.399600863456726
1761132734489465000,-0.4206997662950307,0.4437244488559663,0.0649000499337911,-0.4792224764823913,0.3821181952953338,1.3580297231674194
1761132734509313000,-0.6154132870346307,0.4814701690781861,1.0758253974497318,-0.4348767697811126,0.2640519738197326,1.3750535249710083
1761132734529161000,-0.7850904931299388,0.2894592583607882,2.04011174338758,-0.188745692372322,0.1040064841508865,1.3753604888916016
1761132734549010000,-0.8013834562830626,0.0684513857398182,2.2893816877663133,0.1783022880554199,0.0569548569619655,1.3558419942855835
1761132734568857900,-1.0282640203297138,-0.1652580014135688,1.6699088962078092,0.5333315134048462,0.1655716896057129,1.3566339015960691
1761132734588706000,-1.15951621870175,-0.2578478031098842,0.5992722995728254,0.7173171043395996,0.2934918403625488,1.364728569984436
1761132734608554000,-1.22380098628141,-0.4259557140618562,-0.4176975888043642,0.7041510343551636,0.343250423669815,1.337878704071045
1761132734628402000,-1.3429391876854002,-0.5220484823778271,-0.98834117526412,0.5404680967330933,0.2465308755636215,1.3064160346984863
1761132734648250000,-1.4188120286628605,-0.5851752390287817,-1.3942688312977551,0.2704643905162811,0.0936911925673484,1.2792057991027832
1761132734668098000,-1.380445765389502,-0.6298556538850069,-1.3296832541406154,0.0776080340147018,-0.0110360169783234,1.2769346237182615
1761132734687946000,-1.364318075800687,-0.6289972834900022,-0.762231741720438,0.0583736896514892,-0.0620872974395751,1.3030908107757568
1761132734707795000,-1.3885880091823637,-0.5558474377356469,-0.2045721399962902,0.1185217872262001,-0.0841382518410682,1.3321385383605957
1761132734727643100,-1.432576057860255,-0.3308043182492255,0.00236848269701,0.1571211665868759,-0.0462741032242774,1.3826292753219604
1761132734747491000,-1.514104878772795,-0.0910854615479707,0.1262093818992376,0.1464532911777496,-0.0213947277516126,1.467314600944519
1761132734767339000,-1.4996845776237546,0.0714125005677342,0.3829968623012304,0.1145597994327545,-0.0338136032223701,1.584722638130188
1761132734787187200,-1.3337901049375531,0.0212318808600306,0.6954723276555538,0.1102534160017967,-0.03453279286623,1.742081642150879
1761132734807035000,-0.969405880908668,-0.1185126899167895,0.8361825285941362,0.1253226995468139,-0.03209213539958,1.8879212141036987
1761132734826883000,-0.435408382866159,-0.5066980607718229,0.9941828870296476,0.1835798770189285,-0.1020099222660064,1.9222701787948608
1761132734846731000,0.1540874958407133,-0.9204286456413566,1.0607283660829068,0.3913886547088623,-0.1466863751411438,1.8554356098175049
1761132734866580000,0.400472240171954,-1.201942571020871,0.5273930582761764,0.6234092116355896,-0.0655001401901245,1.7108047008514404
1761132734886428200,0.1943175802245736,-1.083034452045709,-0.5754097779482603,0.7384114265441895,0.1477956622838974,1.5924291610717771
1761132734906276000,-0.4753024402286857,-1.0239207304283977,-1.4335323356717824,0.6833330392837524,0.3650063872337341,1.555108904838562
1761132734926124000,-0.9176431796412916,-1.0478650851175189,-1.7617904765695331,0.4666370451450348,0.5327037572860718,1.5008430480957031
1761132734945972000,-1.569775328068435,-0.9893602891787886,-1.5116647921442985,0.1420721709728241,0.6045092344284058,1.4249883890151978
1761132734965820200,-2.019046159005165,-1.2308880949981509,-0.5124772286951541,-0.0711991563439369,0.5249151587486267,1.389636754989624
1761132734985667800,-2.255223105315864,-1.5376342229202389,0.834924052965641,-0.0588809624314308,0.3045401871204376,1.464638113975525
1761132735005516000,-2.188732717450708,-1.6191054684266446,1.1441261957377196,-0.1013239622116088,0.2253070622682571,1.6390602588653564
1761132735025365000,-1.813709025985748,-1.5188716547831893,0.5807961471617221,-0.267855554819107,0.2775813639163971,1.865541934967041
1761132735045213000,-1.3508449923738837,-1.4382970658555625,0.4440092571467161,-0.3928506076335907,0.2838748395442962,2.053990602493286
1761132735065061000,-0.902691913420707,-1.5183946849212049,0.5059691619753838,-0.4841850697994232,0.289810448884964,2.181523084640503
1761132735084909000,-0.3659600219782442,-1.645210069889575,0.5616144768297672,-0.5746740102767944,0.2336995750665664,2.192468881607056
1761132735104757000,0.1096168512776493,-1.639793743929267,0.5958440786898136,-0.645885705947876,0.0683773607015609,2.141771078109741
1761132735124605000,0.3703068920761346,-1.5381854270622133,0.5594704505383968,-0.6718543171882629,-0.0724579244852066,2.063496828079224
1761132735144453000,0.5131950215756893,-1.191252469376102,0.5446504825472831,-0.5598683953285217,-0.1017221137881279,1.9630168676376345
1761132735164300800,0.4823751550938934,-0.5968885462414473,0.477726817831397,-0.2819111049175262,0.0192224122583866,1.87153160572052
1761132735184149000,0.2055347744833678,-0.1748652031924575,0.3630652503848076,0.032016783952713,0.2273510694503784,1.8417543172836304
1761132735203998200,-0.0182003311444073,0.0341481341216713,0.0201852944165468,0.2047203779220581,0.4010120630264282,1.8571388721466064
1761132735223846000,-0.4282139413174241,0.0591948970947414,-0.1014794297903776,0.2668268978595733,0.4755840897560119,1.913362741470337
1761132735243694000,-0.879959637935087,0.0056511576294898,-0.0854074159115552,0.1496733129024505,0.4603541195392608,1.980707764625549
1761132735263542000,-1.2910489875808355,-0.0998226755592971,0.029435353320837,-0.0221632961183786,0.3375957608222961,2.116363286972046
1761132735283390000,-1.6939586109675466,-0.4599214042887091,0.3362807038336992,-0.081505112349987,0.2438457757234573,2.2113492488861084
1761132735303238000,-1.6483765710964795,-0.7990292213071137,0.7119768877327441,0.0133974235504865,0.210405483841896,2.2731008529663086
1761132735323086000,-1.605281233474612,-0.9985895244907588,0.8002443692505359,0.1552122384309768,0.2215145975351333,2.3186731338500977
1761132735342934000,-1.1396637364361435,-0.91911215621531,0.4514478827148676,0.2319523245096206,0.3304677009582519,2.3377726078033447
1761132735362783000,-0.480872641576454,-0.7490632672633976,0.0979541782736778,0.2149824947118759,0.488930732011795,2.335721969604492
1761132735382631200,-0.0368055898278951,-0.770567169997841,0.055075406011939,0.1802946627140045,0.5919255614280701,2.3767640590667725
1761132735402478800,0.4801522183474153,-0.858778245153278,0.1253378597617149,0.1420696675777435,0.5106215476989746,2.4150960445404053
1761132735422328000,1.0360229638934135,-0.916449439812079,0.1404933433175086,0.1121276691555976,0.337598979473114,2.3580126762390137
1761132735442175700,1.3586555199943482,-0.7612413424436002,-0.0160807817071676,0.1109422966837883,0.2189649790525436,2.242401599884033
1761132735462024000,1.521955007751286,-0.4720725914619862,-0.2150736602663993,0.11487378180027,0.2005474865436554,2.119933843612671
1761132735481872000,1.5568109248161317,-0.2875911264013499,-0.1825771658092737,0.113094262778759,0.1610293835401535,2.005412101745605
1761132735501720000,1.343336954831332,-0.1262748483508825,-0.0400040936082601,0.0772050246596336,0.1526165604591369,1.9274766445159912
1761132735521569000,0.9046978464156388,-0.195985440371558,0.242982242411375,0.0521927699446678,0.1118587777018547,1.8360710144042969
1761132735541417000,0.4035708272418007,-0.368753671284765,0.6282897197425366,0.1486213654279709,0.0768908262252807,1.728828191757202
1761132735561265000,-0.1700468065926805,-0.6086704617109149,0.8558651341855525,0.3137314915657043,0.0694688633084297,1.5830001831054688
1761132735581112800,-0.6414480381317437,-0.7812650165576487,0.6669295392602682,0.4699092209339142,0.1101071611046791,1.4039292335510254
1761132735600961000,-0.8117597427383064,-0.8145299381040036,0.1371241591453552,0.5812978148460388,0.2459020167589187,1.2607542276382446
1761132735620809000,-1.088887708118558,-0.8931420678522437,-0.4763549449563026,0.5645768046379089,0.3737235069274902,1.2300642728805542
1761132735640657000,-1.4175178971990945,-0.8390452245488762,-1.0162421586245298,0.3851187825202942,0.4202769994735718,1.3106913566589355
1761132735660505000,-1.3881776748158037,-0.7409501034345477,-1.3050240291804074,0.0719114020466804,0.3507076501846313,1.4933061599731443
1761132735680353000,-1.290682053964585,-0.8278621517553925,-1.2961030561000109,-0.2866086661815643,0.192685842514038,1.686313509941101
1761132735700202000,-1.0258362086609003,-0.8475527945227921,-0.8227817797511816,-0.5387707352638245,-0.0201948061585426,1.7625236511230469
1761132735720050000,-0.8049139684967697,-0.7303755179282277,-0.2519891402095556,-0.6083836555480957,-0.1900375634431839,1.751421570777893
1761132735739897900,-0.5078655336486175,-0.7444369226370007,0.3022206133216619,-0.5232040882110596,-0.260590523481369,1.6646816730499268
1761132735759746000,-0.1417968271315097,-0.7762375437844544,0.7551414911985397,-0.3449777066707611,-0.2178763300180435,1.5497888326644895
1761132735779594000,0.1033036130102351,-0.6778305071767419,0.9322948783934116,-0.1034608632326126,-0.0640396252274513,1.4476256370544434
1761132735799442200,0.2593126149654388,-0.4901069183897227,0.9053320526659488,0.142110675573349,0.1453985720872879,1.3707395792007446
1761132735819289900,0.2677266614370048,-0.2271005634728819,0.5456704732447862,0.2650204002857208,0.2670399844646454,1.29847252368927
1761132735839138000,0.1505695873802527,0.1000089919116348,-0.0103296708345413,0.2476814240217209,0.3145813047885895,1.2161422967910769
1761132735858986800,0.0391940558670088,0.3799345521211624,-0.2396697568625211,0.1697496771812439,0.30026376247406,1.1256707906723022
1761132735878835000,-0.1029762807520106,0.583286575737968,-0.2174848130613565,0.1281471103429794,0.2615736722946167,1.0678073167800903
1761132735898683100,-0.2328689908064901,0.695159096987918,-0.0615957476913928,0.171977549791336,0.2294587641954422,1.032448172569275
1761132735918530800,-0.3067922320861369,0.6442991167139261,0.0067114803373813,0.2396739870309829,0.1793558150529861,1.008034348487854
1761132735938379000,-0.3184549781553447,0.5935971034806221,-0.3036082682877778,0.2328021824359893,0.1266876310110092,0.9623998403549194
1761132735958227000,-0.253057427028194,0.5573495859269052,-0.6186427704751492,0.1665932536125183,0.0926402434706687,0.9087554216384888
1761132735978075100,-0.2029701116271317,0.5953755113299936,-0.8271364678293466,0.0780094563961029,0.0825831741094589,0.8371685147285461
1761132735997922800,-0.0934978564519435,0.5651362212151289,-0.7402490424931049,0.0171198174357414,0.0722232311964035,0.7383759021759033
1761132736017772000,-0.0277485327450558,0.6289551979139447,-0.5674538505077362,-0.0224557574838399,0.0685658231377601,0.6463947892189026
1761132736037620000,-0.0309986205821856,0.7500541779968887,-0.3431166873335838,-0.056255605071783,0.0495197027921676,0.5603132247924805
1761132736057468000,-0.0553756676001474,0.8989779343988746,-0.1006669443637132,-0.0613399185240268,0.0173394586890935,0.4776953160762787
1761132736077316000,0.0058858797008171,1.1313058040659874,0.1744546496301889,-0.0244076084345579,-0.014905241318047,0.3969300985336303
1761132736097164000,0.0189798276169225,1.3208695408269762,0.5262292751938105,0.0773621797561645,-0.0374650545418262,0.3169187009334564
1761132736117012000,-0.0350883375812321,1.4900778142362832,0.7115291439652442,0.2317681163549423,-0.0612472742795944,0.2380487024784088
1761132736136860000,-0.0366896352980285,1.5082709119223057,0.6866425399899483,0.3661558032035827,-0.0602111183106899,0.1278054863214492
1761132736156708000,-0.0301445610361173,1.4232171317540108,0.5746709422796964,0.4780699014663696,-0.0543213784694671,0.016532614827156
1761132736176557000,-0.1102247540429234,1.231795419101417,0.3540945929437875,0.5493384599685669,-0.0704882517457008,-0.0623548440635204
1761132736196405000,-0.171711561467126,1.0413800339471548,0.2401911503881215,0.5323768854141235,-0.0803849101066589,-0.1479904502630233
1761132736216253000,-0.3109730979673564,0.8719131826668978,0.010712532672286,0.4536241590976715,-0.0717756077647209,-0.2075191587209701
1761132736236100900,-0.3262888866513967,0.6166846221446991,-0.1020744730740785,0.2779544591903686,-0.0160184372216463,-0.2532241940498352
1761132736255949000,-0.2263702764369547,0.4298800478987395,0.166073190253973,0.0956590697169303,0.0039789900183677,-0.2882337868213653
1761132736275797000,-0.2664870366394519,0.3485710072167217,0.5769008932888507,-0.0771248638629913,0.0553831756114959,-0.2865712642669678
1761132736295645000,-0.2155120516836643,0.2399183247961104,0.8826900127470493,-0.2533504068851471,0.1025260984897613,-0.2227665185928344
1761132736315492900,-0.1187123041421174,0.0296520648114383,1.2334475702226162,-0.3883513212203979,0.058011207729578,-0.1288278400897979
1761132736335341000,-0.0056648938938975,-0.1109194583088159,1.3926789317578077,-0.3886577486991882,-0.0295099969953298,-0.103114515542984
1761132736355190000,0.2188714816467836,-0.3024222003083676,1.4070897344261406,-0.1584632694721222,-0.1317749321460724,-0.1580989956855774
1761132736375038000,0.3673809581594541,-0.645148500084877,1.2604799540549516,0.2185220271348953,-0.1448917537927627,-0.2683300077915191
1761132736394886100,0.5784302948132157,-0.908224266976118,0.369504343521595,0.5224964618682861,-0.0721220672130584,-0.3938154578208923
1761132736414733800,0.7060503472279757,-0.9382271910518408,-1.0759306113898754,0.6153238415718079,0.035795547068119,-0.4533844888210296
1761132736434582000,0.7425118728585541,-0.921703780143708,-2.265999643135071,0.4731549620628357,0.1389291286468505,-0.4745877683162689
1761132736454430200,0.6886832520373165,-0.8242242336444556,-2.921227638685703,0.1522420644760131,0.1540518254041671,-0.4262543022632599
1761132736474278000,0.5010808054119348,-0.7357625447288155,-2.756913274797797,-0.2739110887050628,0.1106744781136512,-0.3585534393787384
1761132736494126000,0.4280501655904576,-0.676722911261022,-1.9656927544802427,-0.6650705337524414,-0.0223592948168516,-0.2903026938438415
1761132736513975000,0.2940978414142504,-0.2813425143353641,-0.9050327774584292,-0.9086920022964478,-0.2149208188056945,-0.207053542137146
1761132736533823000,0.092210885381326,0.2468639061503112,0.2590647776842117,-0.8989937901496887,-0.3993763923645019,-0.1113079339265823
1761132736553671200,-0.0632493235846981,0.8147837667346001,1.1139145973473787,-0.6342672109603882,-0.4427154064178467,-0.0859336704015731
1761132736573519000,-0.0509474758943542,1.3121803306758404,1.3878969581782816,-0.2106553167104721,-0.3194946348667145,-0.1328109204769134
1761132736593367000,0.0923989918319508,1.51428681121096,0.9438397702366114,0.1801923662424087,-0.1274504959583282,-0.1903944164514541
1761132736613215000,0.1679946963684633,1.5598744040399788,0.0688601857364177,0.4132353961467743,0.0285060256719589,-0.1976293474435806
1761132736633063200,0.1415572096893563,1.3627519955277445,-0.7658879261404276,0.4748828411102295,0.1187400072813034,-0.1393595337867736
1761132736652911000,0.1174726062793284,1.120734871821478,-1.5675141051381825,0.3240991830825805,0.1304850578308105,-0.0747337639331817
1761132736672759000,0.1072166948007419,0.9699159493226558,-1.9722522591263052,0.0810467153787612,0.0738251656293869,-0.0265143550932407
1761132736692608000,-0.0325942922757938,0.872439398498088,-1.9832593908309932,-0.1367892175912857,0.049411617219448,0.0190013851970434
1761132736712456000,-0.1006650081349536,0.7318844611864537,-1.5987509549230337,-0.2559334635734558,0.0377203598618507,0.0622490756213665
1761132736732304100,-0.1317937213702127,0.7074078993167727,-0.9802841255366802,-0.2966529726982116,0.0336100980639457,0.1045696139335632
1761132736752152300,-0.0631445480359718,0.7167115881044417,-0.4256383186757564,-0.3037634789943695,0.0629301145672798,0.1296055018901825
1761132736772000000,-0.0585516307551413,0.7422684194914996,0.0462976407945156,-0.3101718425750732,0.1403643935918808,0.1362993568181991
1761132736791848200,-0.0777853235352784,0.723217535932362,0.5509720867842436,-0.2859591245651245,0.2462215572595596,0.1423087120056152
1761132736811696000,-0.2623161806955933,0.755139518437162,1.2175444831699131,-0.18621326982975,0.3185223042964935,0.1718678623437881
1761132736831544000,-0.4768811242548748,0.8720259953916072,1.6908324417710303,-0.080818623304367,0.3653331100940704,0.2479762434959411
1761132736851393000,-0.7135483017679304,0.9806068546850234,1.5137351686775684,-0.2011342942714691,0.4619746506214142,0.3540962338447571
1761132736871241200,-0.7515558877967298,0.93704652989991,1.9108745380997656,-0.2553959488868713,0.3623682260513305,0.4465059638023376
1761132736891089200,-0.6405375722233205,0.8268868039172143,2.6157073992967605,-0.1229062154889106,0.2319820821285247,0.528420627117157
1761132736910937000,-0.0755237170125357,0.2974096328433603,2.8167198009848597,-0.0087606580927968,0.0466108806431293,0.4462887048721313
1761132736930785300,0.5568650172803551,-0.1408987092480063,2.202614673939347,0.0277492627501487,-0.0671604350209236,0.3305746018886566
1761132736950633000,0.9799205529212952,-0.4974126382932066,1.496551394164562,0.062203049659729,-0.090021975338459,0.2883596420288086
1761132736970481200,1.0831306058965622,-0.7847877107910811,1.1711796223580837,0.2180320471525192,-0.0777853205800056,0.2739067673683166
1761132736990329000,0.9149189423091708,-0.9227411603674291,0.9386515539437532,0.5132254958152771,-0.1213961690664291,0.253401517868042
1761132737010178000,0.4495351078961044,-0.9224855051059276,0.2240747128456831,0.8484170436859131,-0.1138419806957244,0.1995585411787033
1761132737030026200,0.2248554148945957,-1.0699835395537316,-0.9859294379472732,0.9224131107330322,0.0765982270240783,0.1900897920131683
1761132737049874200,-0.1341222191167063,-0.9831965058520435,-2.202297863075137,0.6505343317985535,0.2951303720474243,0.1695976257324218
1761132737069722000,0.0494082470957189,-1.21675800896734,-2.816386623507738,0.2103630304336547,0.4206735789775848,0.1448993384838104
1761132737089570000,-0.063985748100467,-1.321614952366799,-2.3936335048794746,-0.2288829088211059,0.3917155265808105,0.1268981099128723
1761132737109418200,0.0113624582231801,-1.3908902947753667,-1.7797767996370792,-0.6390122771263123,0.1802392452955246,0.1072490960359573
1761132737129266000,0.1207445406220853,-1.2770397514507177,-0.8638304139763117,-0.8598871231079102,-0.1326147615909576,0.1042377650737762
1761132737149114000,0.2688872661815956,-0.9106407535333186,0.0611018266946077,-0.8236791491508484,-0.3485376536846161,0.0710926577448844
1761132737168962000,0.6142872056141495,-0.4136654106788337,0.4199608575612306,-0.5869396328926086,-0.3537365794181824,-0.0089540900662541
1761132737188811000,0.6390105818517505,0.1935166391052305,0.1770253769010305,-0.2494295090436935,-0.2204274237155914,-0.0996870324015617
1761132737208659200,0.3069937094749883,0.8381391425546258,-0.3668862699776887,0.0012816693633794,-0.0670411065220832,-0.1680285036563873
1761132737228507100,-0.0098052451016381,1.196593830404058,-1.02821492049098,0.0605707876384258,0.0027089721988886,-0.2299261093139648
1761132737248355000,-0.2864147395657375,1.3307991064280271,-1.319667471560836,-0.0232138391584157,-0.0608328655362129,-0.2861912548542022
1761132737268203000,-0.529478559313342,1.3769275281354785,-1.2010557051837445,-0.1353618055582046,-0.1365537494421005,-0.3373746871948242
1761132737288051200,-0.6260189983315766,1.280731299445033,-0.8049182062804698,-0.196786031126976,-0.1370670795440673,-0.3445668220520019
1761132737307899000,-0.5807358683418482,1.1659366802033035,-0.1805710866838693,-0.1450807452201843,-0.1492107808589935,-0.3332849740982055
1761132737327747000,-0.5237939743382856,1.0216639644775538,0.5346574963212013,0.0789966136217117,-0.1624052375555038,-0.3311521112918854
1761132737347596300,-0.4809009543554857,0.9739728234980256,0.8390449322879314,0.3054476678371429,-0.1119826063513755,-0.365222156047821
1761132737367444000,-0.4390288018530234,0.8924835308782756,0.6038911915451288,0.4075896143913269,-0.0739333629608154,-0.4039272665977478
1761132737387292200,-0.5086000219356268,0.8445460139222443,0.4000701621770858,0.4055895805358886,-0.0793014466762542,-0.416106253862381
1761132737407140000,-0.5629825503125786,0.7495746508516371,0.4030079691946506,0.3413331806659698,-0.0954086184501648,-0.3910588324069977
1761132737426987300,-0.4906259007625281,0.7172751402713358,0.4944985044121742,0.2412678599357605,-0.1846981644630432,-0.3649093210697174
1761132737446835000,-0.4374744120178744,0.8981973784804343,0.5679325739353895,0.0722012892365455,-0.1414368748664856,-0.2770533561706543
1761132737466683100,-0.2516776631075889,0.8895456507954745,0.5571452224612236,-0.1861375570297241,-0.0724962875247001,-0.229288250207901
1761132737486531000,0.163705072883144,0.521341795413196,1.9336802441477772,-0.0509058572351932,-0.155365839600563,-0.2394009232521057
1761132737506380000,0.3711770259741693,0.0289299610819667,3.1043712062060838,0.3367044031620025,-0.1246089786291122,-0.2325719743967056
1761132737526228200,0.4909298521451651,-0.4553486164804547,2.797855526039004,0.5503078699111938,-0.048642873764038,-0.3087281286716461
1761132737546076200,0.5270256132032722,-0.7725028142355382,1.7165899833619591,0.5035167932510376,0.0731159299612045,-0.4226360321044922
1761132737565924000,0.4896079558916389,-1.0899245038203895,0.7296142512321472,0.3796266913414001,0.1157101169228553,-0.4627198278903961
1761132737585772000,0.350701114580594,-1.3424933436140418,0.5039969851195812,0.3813563287258148,0.000568339601159,-0.4723927080631256
1761132737605620200,0.6010765725158155,-1.6404427093572913,0.3902496099084615,0.5259938836097717,-0.1576180160045623,-0.549900233745575
1761132737625468000,0.7501771467894315,-1.6949273098692297,-0.4166840278476476,0.5202441811561584,-0.2411888688802719,-0.7501499056816101
1761132737645316000,0.7206875059980898,-1.6280099287636578,-2.164518459779024,0.1984879076480865,-0.2190574556589126,-0.7910611033439636
1761132737665164300,0.4172217514535412,-1.3010543948970734,-3.027235359555483,-0.1389864534139633,-0.1008810922503471,-0.6519112586975098
1761132737685013000,0.2258246983181685,-1.366122641004622,-2.638810042464733,-0.348892480134964,-0.0408627167344093,-0.4828221797943115
1761132737704861200,0.0892766220277175,-1.167901477470249,-2.1751637724339963,-0.6980338096618652,-0.0762274116277694,-0.3852500021457672
1761132737724709000,0.0512348780009895,-0.820361128475517,-1.6323936968058346,-1.0198886394500732,-0.2225326895713806,-0.3742788136005401
1761132737744557000,-0.1196803454566746,-0.3812391319137066,-0.7640420060127973,-1.1126867532730105,-0.3605138063430786,-0.3730282783508301
1761132737764405000,-0.3755155666351318,0.0599146627366542,0.1730038662999868,-0.8991440534591675,-0.4466537833213806,-0.3699873387813568
1761132737784253200,-0.6757413528777658,0.5681675517350435,0.545118684580922,-0.5382146239280701,-0.3816350698471069,-0.3322592675685882
1761132737804101000,-0.6560385812811553,1.1400836423486471,0.1308645142287015,-0.2202418148517608,-0.1586463898420334,-0.3037247657775879
1761132737823949000,-0.2994510024778545,1.3693144227832554,-0.6804869399696588,-0.0665089860558509,0.059022556990385,-0.2766963541507721
1761132737843799000,0.0235959065776318,1.377819800800085,-1.255198798781633,-0.0527954958379268,0.2131138145923614,-0.2237933278083801
1761132737863647200,0.1452035668350756,1.2172694656208156,-1.1688438728868962,-0.1424911618232727,0.268411248922348,-0.0995695143938064
1761132737883495200,0.3677407679151743,1.1279087820388376,-0.5416092151552439,-0.3087742030620575,0.093986228108406,0.028413638472557
1761132737903343000,0.4797106851249933,1.1710808381587263,0.2717833894819021,-0.3933445513248443,-0.1149392053484916,0.0561766251921653
1761132737923191000,0.3954289853077382,1.228573388314992,0.8855927484512328,-0.2697979211807251,-0.2099625766277313,0.0376639887690544
1761132737943039200,0.296889335296303,1.12164285351187,1.0415735837578772,0.0023905229754745,-0.126505821943283,0.0118151046335697
1761132737962887200,0.2843736987248063,1.0078358570680022,0.9731243169099092,0.3236241340637207,0.0696951150894165,0.0013430090621113
1761132737982735000,0.1040043816907331,0.9450279571078716,0.5254062683731318,0.5408909320831299,0.1860152184963226,0.0429285950958728
1761132738002584300,0.0053126829227432,0.7786558569725602,0.2940887447923421,0.6944615840911865,0.2272470295429229,0.1100166589021682
1761132738022432000,-0.2800728962583467,1.001342111134529,-0.4272515990912914,0.6637404561042786,0.3017591536045074,0.2248111367225647
1761132738042280200,-0.4254183192495256,0.5119400530785322,-0.8373971650809049,0.2406355142593383,0.4206981956958771,0.3767032921314239
1761132738062128000,-0.584686030739732,-0.0426897524956613,0.6738321582555771,-0.1710006296634674,0.3428123593330383,0.5271121263504028
1761132738081976000,-0.6573442570522428,-0.8839804909490049,2.543461662775278,-0.3033211231231689,0.1889812350273132,0.6374270915985107
1761132738101824000,-0.4308546650845557,-1.5397092756286264,3.490512796273827,-0.2695198953151703,-0.0845290571451187,0.5976264476776123
1761132738121672200,-0.1910855029681697,-1.8695067549228668,3.147024937540293,-0.2400212883949279,-0.2532372772693634,0.515047550201416
1761132738141520100,0.20005210528858,-1.9765730449348689,2.633371650803089,-0.1435777395963668,-0.288241297006607,0.4378034770488739
1761132738161369000,0.3115333256660029,-1.7299530305430293,2.1217805572927,0.1775322407484054,-0.3020091950893402,0.3678954541683197
1761132738181217300,0.0814840319227427,-1.134904413079843,0.9833592951983212,0.5729900002479553,-0.2929684221744537,0.3300757110118866
1761132738201065000,-0.3265101281866431,-0.4176727466240525,-0.8458931907474995,0.8261447548866272,-0.1403079479932785,0.3666897118091583
1761132738220913200,-0.6100119394477457,-0.327253859226033,-2.3424802407473324,0.7627507448196411,0.0687528699636459,0.3422874808311462
1761132738240761000,-0.8104446415517479,-0.3474490174494684,-2.497282095402479,0.3976742029190063,0.1172168478369712,0.240560233592987
1761132738260609000,-1.0601355878215282,-0.3969399013273417,-1.964925277239084,0.0737075805664062,0.2369517683982849,0.2366275340318679
1761132738280457000,-0.9453107195720076,-0.8895616520822047,-1.1368792933493852,-0.1423133462667465,0.212652638554573,0.2506304681301117
1761132738300305200,-0.7505284444451331,-1.1314524459950626,-0.5447983665853738,-0.3095220327377319,0.064430184662342,0.2746241390705108
1761132738320154000,-0.5517379200575873,-0.9077774730566888,0.0405108740866184,-0.3227199912071228,-0.1421083956956863,0.306846022605896
1761132738340002000,-0.3239914964292198,-0.4779617225658148,0.064426587203145,-0.1332354545593261,-0.2001091092824936,0.343334287405014
1761132738359850200,-0.1651579751051962,0.077624360819906,-0.7097989591717719,0.0861561223864555,-0.0937389656901359,0.3783349990844726
1761132738379698000,-0.3933230990696698,0.5264587000355124,-1.7074153277814388,0.1530641019344329,0.0627490803599357,0.3886987864971161
1761132738399546000,-0.6716725690688937,0.7406662449918687,-2.0583155085980893,0.1196527108550071,0.1585842818021774,0.3846389353275299
1761132738419394000,-0.8702342896692454,0.8493163701292127,-1.822703502693772,0.0465486794710159,0.1195786148309707,0.3338417112827301
1761132738439242200,-1.048864982875064,0.8861984592594205,-1.6587416055053472,-0.1361093670129776,0.015676412731409,0.2522737681865692
1761132738459090200,-1.036169459692016,0.7688177690472453,-1.1150304496347905,-0.3208028078079223,-0.0460623614490032,0.1901686787605285
1761132738478938000,-0.6982502679362893,0.549477829638496,-0.269482126802206,-0.4086152613162994,-0.0312041938304901,0.1392162442207336
1761132738498787000,-0.421323012759909,0.5156963368721306,0.8708166196018456,-0.2725463807582855,-0.0353941656649112,0.1102441623806953
1761132738518635000,-0.2280028460748493,0.458208609021455,1.5639502751767635,0.0512893684208393,-0.0623587220907211,0.0620186142623424
1761132738538483200,-0.0606990180473774,0.4167459141027182,1.490147372341156,0.3607034087181091,-0.0627020299434661,-0.0313146151602268
1761132738558331100,-0.0550260869774967,0.598200944014266,1.0345517222970724,0.5465360879898071,-0.0305481329560279,-0.1275313347578048
1761132738578179000,-0.2518574766539037,0.7753696749087423,0.5971142447561025,0.5740377306938171,0.0069075189530849,-0.1572183221578598
1761132738598027300,-0.5134595177307725,1.1279603660956024,0.1522428178220987,0.4314049184322357,0.0971311256289482,-0.0866028368473053
1761132738617875200,-0.427978598191589,0.7495783041134476,0.3277420080691576,-0.0034720287658274,0.3305268287658691,0.0186194386333227
1761132738637723100,-0.0957656187208369,-0.137476918105781,2.301851293238997,-0.2215060442686081,0.2404513955116272,0.0515728890895843
1761132738657572000,-0.0546909732716158,-0.94379081652835,3.939650063958764,-0.0020835944451391,0.0456246212124824,0.1065811216831207
1761132738677420000,0.1057151311313733,-1.559738941092044,3.390379520395398,0.309813380241394,0.0091016804799437,0.0537444725632667
1761132738697268200,0.1802240998771041,-1.7591995832934977,1.7053753463864323,0.4496960937976837,0.0350147858262062,-0.0742166563868522
1761132738717116200,0.0917635800052434,-1.8453699464015665,0.1247819794446229,0.4837558269500732,0.1156727969646453,-0.1416666060686111
1761132738736964400,0.0625933438939973,-2.043688725091517,-0.7573854707330465,0.4572527706623077,0.1591106057167053,-0.1927897185087204
1761132738756812000,0.0974342095201835,-1.9291249189309772,-1.5047095661789178,0.4467473328113556,0.0976946949958801,-0.2377501279115677
1761132738776660200,0.1079628004603087,-1.677270364886522,-2.250396415811777,0.3239949345588684,0.0976120084524154,-0.2663010060787201
1761132738796508200,0.0262017416944727,-1.3654142004743215,-2.511332248064876,0.0780014023184776,0.1808896213769912,-0.2125085592269897
1761132738816356000,-0.0118305403841659,-1.25245841403231,-1.88682672303617,-0.1949397325515747,0.1983613669872284,-0.0585223957896232
1761132738836205300,-0.001765457036253,-1.1274589924447238,-1.4833786088585852,-0.5286740660667419,0.199858620762825,0.1514879763126373
1761132738856053000,-0.1238529184335842,-1.19758086868003,-0.5377706599056721,-0.9000363349914551,0.0108866542577743,0.3046573400497436
1761132738875901200,-0.3861285844556987,-1.0646762269258498,0.9410387413412332,-1.0496530532836914,-0.2090696394443512,0.4219199419021606
1761132738895749000,-0.774687172537297,-0.8239492891605943,2.3466128105074167,-0.7934238910675049,-0.3135794401168823,0.5455630421638489
1761132738915597300,-1.1416853784568608,-0.3440731843408197,2.502722240629792,-0.2624703645706177,-0.308722585439682,0.6099823117256165
1761132738935445000,-1.154814616882056,-0.0165968414705246,1.4004951584666967,0.2729494273662567,-0.1013724878430366,0.5969817042350769
1761132738955293200,-1.120838478326425,0.1378278504353016,0.0318505977690219,0.5468841791152954,0.1322474479675293,0.6640030741691589
1761132738975141000,-0.9744964820459484,0.0958085445471108,-0.9779115511864424,0.5652616620063782,0.3040434122085571,0.8711296319961548
1761132738994990000,-0.7571390216913074,-0.2512885907247662,-1.352628076398373,0.4607627689838409,0.3469754159450531,1.1125929355621338
1761132739014838300,-0.6220543324843049,-0.5012814425505697,-1.3207558513194322,0.2867899537086487,0.2840866148471832,1.3050254583358765
1761132739034686200,-0.5438608665395528,-0.646441900896281,-1.1249059469610452,0.0616719648241996,0.1960035562515258,1.4330250024795532
1761132739054534100,-0.631498452655971,-0.7907667852006852,-0.5838292312473058,-0.1348890960216522,0.1176352724432945,1.502200722694397
1761132739074382000,-0.7818517304044217,-0.9448663368053734,0.0738087480545044,-0.1706674695014953,0.0820676088333129,1.561331272125244
1761132739094230300,-0.8321970391545445,-1.1348296673431992,0.4920546183913946,-0.0803018882870674,0.1053643897175788,1.6448498964309692
1761132739114078000,-0.6879707929190247,-1.25385717491433,0.5958037466794252,0.0578363314270973,0.1419116109609604,1.7536113262176514
1761132739133926100,-0.391289474350214,-1.3440338510543106,0.2630664145410061,0.1340073496103286,0.1758889853954315,1.884962558746338
1761132739153774000,-0.1244941024139523,-1.222126111871749,-0.1519914734095334,0.097391590476036,0.2067737877368927,1.995642900466919
1761132739173623000,0.1530983752055093,-0.996888346596062,-0.2066243963509798,-0.0268388651311397,0.2585911452770233,2.091880798339844
1761132739193471200,0.3759895042898133,-0.8618968155652285,0.2242021386176347,-0.2226455062627792,0.2509552836418152,2.12971305847168
1761132739213319200,0.4208353388408198,-0.8189413248054682,1.0514596024781464,-0.3748763501644134,0.2047572433948516,2.13928747177124
1761132739233167000,0.4923895859668031,-0.9445436076570302,2.349371169304848,-0.2565587759017944,0.0543182455003261,2.096941947937012
1761132739253015000,0.2636107505507767,-1.1111492973525077,2.625962835851312,0.0755635350942611,-0.0995106697082519,2.0380921363830566
1761132739272863200,0.0621611995544284,-1.1444762512844056,1.5344342578351498,0.3652702569961548,-0.1153487339615821,1.9298325777053835
1761132739292711000,-0.2964008941922336,-0.9769199098005892,0.0982797569662332,0.495482325553894,-0.0428631864488124,1.8515819311141968
1761132739312559000,-0.6094365507125854,-0.927391031999886,-0.8766051398754119,0.4795010685920715,0.1020943969488143,1.82053804397583
1761132739332408000,-0.7183631547037511,-1.0858246672861278,-1.2021049219757318,0.4053483307361603,0.2714119255542755,1.7908600568771362
1761132739352256000,-0.8558059513442218,-1.3780067016743125,-1.0577432127922772,0.2945601344108581,0.3874298930168152,1.7571425437927246
1761132739372104200,-1.0707666527554391,-1.5750485922962427,-0.8299217146337032,0.2053654640913009,0.4613025188446045,1.7184630632400513
1761132739391952100,-1.4012361860923468,-1.614170057851076,-0.8789590095251798,0.239504262804985,0.6103468537330627,1.6394057273864746
1761132739411800000,-1.345073277104646,-1.595132910556346,-0.8858481845170258,0.0391560532152652,0.5638861060142517,1.5708166360855105
1761132739431648500,-1.4333338904902335,-1.5058670656509696,-0.8605535842627287,-0.2107200771570205,0.4191694855690002,1.504281520843506
1761132739451496400,-1.4946809241175651,-1.0890151338905096,-0.6693558896243572,-0.4672501385211944,0.2821303904056549,1.5140495300292969
1761132739471344400,-1.2760846426829695,-0.8126752501480281,-0.0601876344591379,-0.6557392477989197,0.1396088451147079,1.5171741247177124
1761132739491193600,-0.9964530969839542,-0.586186681093648,0.6825479641526937,-0.50225430727005,0.2160864472389221,1.503105878829956
1761132741158527700,-0.8842086736816912,0.2781868998486548,0.6860317146152257,-0.456619381904602,0.1212808489799499,1.1070841550827026
1761132741178375700,-0.4547312152344733,0.3862677006654441,1.1071166077703236,-0.3206939995288849,0.0044624963775277,1.0981436967849731
1761132741198224000,-0.0682281714431941,0.505719388465397,0.9245230753481388,-0.033448614180088,0.0198860745877027,1.0564857721328735
1761132741218072600,0.0931981428530067,0.58340994638931,0.0685328534781932,0.18596713244915,0.1067541241645813,0.9874486327171326
1761132741237920800,0.0687841248255223,0.6275545373357833,-0.8485188630759716,0.2335562258958816,0.1822852045297622,0.9040005803108216
1761132741257768700,-0.065510656112805,0.7091068121891468,-1.3819038552433252,0.1872871369123459,0.2242263257503509,0.7975119352340698
1761132741277616600,-0.3074107293106615,0.7959423612076789,-1.5688164199084045,0.0463065840303897,0.2154912054538726,0.6984912157058716
1761132741297464800,-0.4844799453534185,0.8029640034727752,-1.2608861967682838,-0.119704470038414,0.1227778866887092,0.6165406107902527
1761132741317312800,-0.6003379195103421,0.7705174856372177,-0.7730366288512944,-0.2298333644866943,0.0432407520711422,0.5566189885139465
1761132741337160700,-0.7563954367823899,0.8182672249361872,-0.2463835752874612,-0.2544281482696533,0.0208822861313819,0.5399092435836792
1761132741357008600,-0.7723828411176801,0.8507548784997314,0.3313204510778189,-0.1908489018678665,-0.000726917060092,0.519646942615509
1761132741376856800,-0.7801911767810583,0.9600472470633684,0.7261649875611066,-0.0531331822276115,-0.0333681106567382,0.472908616065979
1761132741396705500,-0.8282641566850244,1.1646792274881153,0.7627309234142303,0.1081650108098983,-0.0668302029371261,0.4289059638977051
1761132741416553700,-0.8757229502134024,1.3368367791570723,0.5679524476796388,0.2187822163105011,-0.1307236701250076,0.4147484600543976
1761132741436402000,-0.6253428526356816,1.3731681756019591,0.3289320946365595,0.2426497936248779,-0.1706957370042801,0.4183210134506225
1761132741456249600,-0.374535177295655,1.315376350238174,0.3264122207701206,0.2642520368099212,-0.1742697060108184,0.4256178140640259
1761132741476097800,-0.1625095064230263,1.4478154203072189,0.3211281428873538,0.229347288608551,-0.1434313952922821,0.4378420710563659
1761132741495945700,0.2201677685350179,1.235451165129989,0.510791467565298,0.0075944601558148,0.0480268746614456,0.443075567483902
1761132741515794000,0.6748517836268991,0.5022080924088135,1.823838059681654,-0.2231304049491882,0.0932648703455925,0.3825355768203735
1761132741535641600,0.6719378689415753,-0.4593021398792043,3.378148399853706,-0.132529005408287,0.104334644973278,0.3549756407737732
1761132741555489800,0.5467283847998827,-1.2545339051321147,3.742271050336957,0.1994022578001022,0.1205118596553802,0.3104138970375061
1761132741575338800,0.4669151356335729,-1.4945174041189253,2.394682137149572,0.4713513553142547,0.1361663192510604,0.1849250048398971
1761132741595186700,0.1423640325602144,-1.535677828155458,0.7316846277654171,0.5076669454574585,0.2183538675308227,0.0420080535113811
1761132741615035000,-0.2509814244717359,-1.535814752408117,0.2309036820828914,0.5271162986755371,0.2285413146018982,-0.0699203535914421
1761132741634882800,-0.5900866842068732,-1.444799871878326,0.1620791521817445,0.6864251494407654,0.1388258337974548,-0.1618033349514007
1761132741654730800,-0.6674960871018469,-1.1208112249933182,-0.5559218181461095,0.8956636786460876,0.0401751436293125,-0.2234276235103607
1761132741674578700,-0.1543548050073906,-0.7360469146281481,-1.7601134832680223,0.9289895296096802,0.0038832586724311,-0.2611408531665802
1761132741694427000,0.3428128820814192,-0.5607748111352324,-2.932580222827196,0.6656113266944885,-0.0031810936052352,-0.2475562989711761
1761132741714274600,0.6789503780521452,-0.6623549248211086,-3.1949627467572688,0.2433561235666275,0.0055013345554471,-0.1593620181083679
1761132741734123800,0.8435118485689163,-0.8146623323120177,-2.732677828207612,-0.2197092622518539,-0.0191933363676071,-0.0292744990438222
1761132741753971700,0.8962434679336846,-0.9545072947233916,-1.868575611552596,-0.6659867763519287,-0.0972266644239425,0.0362763181328773
1761132741773819600,0.6128804806213826,-0.7790974632602184,-0.6768827779978513,-0.9927381873130798,-0.1834868043661117,0.0933457389473915
1761132741793667800,0.0883589591935277,-0.5208353071957826,0.70491644782722,-1.04814875125885,-0.2536003887653351,0.1252630949020385
1761132741813515800,-0.3040923254776745,-0.1207975129183381,1.7554712104201315,-0.7652842998504639,-0.2769496738910675,0.0901183485984802
1761132741833363700,-0.3908631386969238,0.3839576701574027,1.7141729853481054,-0.3129578232765198,-0.206386461853981,0.0062959636561572
1761132741853211600,-0.3450436368081718,0.8005643949851393,0.7908885118842125,0.0706270337104797,-0.0931475386023521,-0.0478820689022541
1761132741873059800,-0.159799224551022,0.956934521870315,-0.1535445480704307,0.2921852469444275,0.029618639498949,-0.050086461007595
1761132741892907500,-0.0190083595916628,0.9545947538111358,-0.652485418844223,0.4038288295269012,0.1702940762042999,-0.0117768393829464
1761132741912755700,0.0608590309146791,1.0209456601403653,-0.94507311142385,0.4067239761352539,0.2220324426889419,0.054315086454153
1761132741932604700,0.0157064685020595,1.0175875088188795,-1.249910044723749,0.2418555915355682,0.1781474202871322,0.1135126054286956
1761132741952452600,-0.1441398465937003,1.0765559036813677,-1.2729437143087383,0.0117083825170993,0.076218195259571,0.1824779212474823
1761132741972300800,-0.1801552724245935,1.113614591487497,-0.8968307663023471,-0.1068513393402099,0.0036429658066481,0.2752889692783355
1761132741992148700,-0.0525377772931009,1.0792837212100623,-0.4790238719046115,-0.1499310433864593,-0.0678378194570541,0.3712458312511444
1761132742011996700,0.1315494277529418,0.9943947762146592,-0.1319505558997392,-0.1419672518968582,-0.1278522312641143,0.4414637386798858
1761132742031844900,0.3587285363547504,0.8471642335966229,0.1585743589311838,-0.0829387530684471,-0.061835192143917,0.4841585159301758
1761132742051692800,0.4804576310347765,0.732495944148302,0.5914882215678692,0.0405717939138412,0.0846199169754982,0.4793934226036072
1761132742071540700,0.36103242938295,0.645251083676517,1.053631685820222,0.2457403540611267,0.2627709209918976,0.4654348790645599
1761132742091388700,0.1665420864073559,0.5235289301939309,1.2158546303868294,0.4305316209793091,0.3445900082588196,0.4250015616416931
1761132742111238000,-0.1294323260011151,0.6892025266710669,0.8693225816518068,0.5279319882392883,0.3125481903553009,0.4046669006347656
1761132742131085600,-0.5528651705218479,0.8689376739874481,0.1365928287476301,0.3939158618450165,0.3581262230873108,0.5095576643943787
1761132742150933800,-0.4306845692146569,0.5774820541776716,0.5302905332833528,0.1129656359553337,0.20493084192276,0.6013516187667847
1761132742170782000,-0.4662518859518691,0.2015497965004295,1.257439271184802,0.093680091202259,0.0549621134996414,0.7251140475273132
1761132742190629600,-0.1513326441746205,-0.2892618360925466,1.319762164106965,0.0669953376054763,-0.0754038244485855,0.7555193305015564
1761132742210477800,0.0478952852495014,-0.5531378865160048,1.0192717355787753,0.0043491534888744,-0.1959475576877594,0.7132565379142761
1761132742230325800,0.1880668492667377,-0.875187674292922,0.6888759981304406,-0.1090705469250679,-0.167519673705101,0.6606535911560059
1761132742250173700,0.2842807597443461,-1.3080188270822166,0.8052414468854665,-0.143008142709732,-0.151162788271904,0.5807698369026184
1761132742270021600,0.1768544773135334,-1.6163048779226838,1.1235305669546127,0.0388021878898143,-0.2393715530633926,0.5011497735977173
1761132742289870800,-0.0908648775998502,-1.780937075588107,0.7995821059495211,0.4076966643333435,-0.3490893542766571,0.4039207994937897
1761132742309718800,-0.4788984919592738,-1.6859738958239554,-0.550258970078826,0.7121729254722595,-0.2647436261177063,0.3578229546546936
1761132742329566700,-0.7737240265935659,-1.361402334484458,-2.175544296184182,0.6477702260017395,-0.0516497679054737,0.3697556257247925
1761132742349415000,-1.0764693213764578,-1.027575453543663,-2.9877029751121995,0.2440903931856155,0.0738280713558197,0.3904188275337219
1761132742369262600,-1.3295023446157574,-0.8169735318638384,-2.7813533040493725,-0.2365470975637436,0.1113680899143219,0.4136923849582672
1761132742389110800,-1.1091208602648228,-0.7210011019919067,-2.0560878956764936,-0.667944073677063,0.0794026404619216,0.4093188941478729
1761132742408958700,-0.8138353799685836,-0.3068670508880168,-1.086259697702527,-1.035541534423828,-0.0180651862174272,0.3907251954078674
1761132742428806400,-0.4480521758619695,0.2410255553856491,0.3949292921572923,-1.166783094406128,-0.1856517791748047,0.3810175955295563
1761132742448654000,0.0605434621594846,0.7440912510044873,1.6349930656492708,-0.956130027770996,-0.3088419437408447,0.3749892711639404
1761132742468503300,0.42520496875979,1.117092788992077,2.02992878754735,-0.4613720178604126,-0.261655181646347,0.3210693895816803
1761132742488351200,0.3683961630839854,1.3377698222234844,1.5309177741467952,0.128215879201889,-0.0532032176852226,0.2240470647811889
1761132742508199200,0.1845624213423579,1.3134499122202397,0.2809492772340774,0.4906699061393738,0.1446931511163711,0.1073134914040565
1761132742528047000,-0.1136929416101425,1.0688238481245935,-0.7280337040424346,0.5725868344306946,0.2727370858192444,-0.0064319288358092
1761132742547895300,-0.3935790465921163,0.782172779052332,-1.1424836892277002,0.4792903065681457,0.2437126338481903,-0.1056026667356491
1761132742567743200,-0.6183362618092447,0.4253345134235918,-1.231233985826373,0.3203359246253967,0.1669463962316513,-0.171682134270668
1761132742587591200,-0.8243429646532983,0.2561421682357788,-1.2062930213153362,0.1707131117582321,0.0819470435380935,-0.1852520257234573
1761132742607439400,-0.8829285707432776,0.2665589328318834,-1.1082564254552123,0.0481465049088001,0.0095701217651367,-0.1781442016363144
1761132742627287000,-0.6758361915543675,0.2815182362284511,-0.6102414373546838,-0.0120338145643472,-0.0282389819622039,-0.2121573239564895
1761132742647136300,-0.4408063694521784,0.361828475131467,0.082425769752264,0.071285180747509,-0.0130311213433742,-0.3110391199588775
1761132742666984200,-0.4291697807375341,0.5438786944571882,0.5507651660352945,0.1925243139266967,-0.0061834901571273,-0.4281189143657684
1761132742686832000,-0.5925018555898219,0.8657635739959776,0.8004448602586984,0.2739342749118805,-0.0089718587696552,-0.507111668586731
1761132742706680300,-0.6832427414838225,1.1489989163406191,0.9385796577513216,0.2830152511596679,-0.0750006437301635,-0.5207452774047852
1761132742726528300,-1.000590415984392,1.610290878330171,0.4464554812550544,0.0591562576591968,0.1092177554965019,-0.390764057636261
1761132742746376200,-0.4791157879717648,1.1201833754185586,1.3765613251715898,-0.312663197517395,0.1758980751037597,-0.260017454624176
1761132742766224100,-0.0730414900090545,0.1679156763155013,3.430185461083054,-0.2538885474205017,0.0858635082840919,-0.1583366096019745
1761132742786072300,0.2585392194401472,-0.700856724107638,4.175882832109928,0.1462511718273162,0.0092863403260707,-0.1422726064920425
1761132742805920000,0.3827837310072034,-1.049430215542391,2.698909998640418,0.4537562429904938,0.016028132289648,-0.2483889162540435
1761132742825768200,0.3625780513897538,-1.1973783318452536,0.7263496964782477,0.4222983419895172,0.1422533243894577,-0.3752818703651428
1761132742845617400,0.425926889826171,-1.354394355418533,0.0468511830240488,0.3454406261444092,0.1428589820861816,-0.4576469957828522
1761132742865465000,0.4533902489542961,-1.608780912158638,-0.0739379273921251,0.4160573482513428,0.0223696008324623,-0.5356672406196594
1761132742885313300,0.62189804594405,-1.746281649531424,-0.8185773137986659,0.5378285050392151,-0.048376128077507,-0.6466898918151855
1761132742905161200,0.5819094786984845,-1.615532432245463,-2.1719734519600866,0.5364493727684021,-0.0227447599172592,-0.7011273503303528
1761132742925009200,0.4496818594230338,-1.5789280640780925,-3.3332442592442035,0.2879228889942169,0.0665557160973548,-0.6388707756996155
1761132742944857000,0.5116418007843196,-1.3914292239576578,-3.5378409491598606,-0.1399228125810623,0.0923206731677055,-0.5351054668426514
1761132742964705300,0.6735334675699473,-1.1496626409463584,-2.8489859938174487,-0.6058716773986816,0.0282091069966554,-0.4349832236766815
1761132742984553200,0.557172037402913,-0.9966153748735784,-1.7450123602479697,-1.036694049835205,-0.1198519617319107,-0.3653526604175567
1761132743004401200,0.4406539919020608,-0.78561283650361,-0.283266322004795,-1.3623675107955933,-0.2749147117137909,-0.2943476438522339
1761132743024250400,0.2343712120629847,-0.6361799615357071,1.5636726272791623,-1.3766050338745115,-0.3830710649490356,-0.2124618142843246
1761132743044098000,-0.1696005606625229,-0.2126042014129459,2.694908361783624,-0.9584852457046508,-0.3626377582550049,-0.1986386626958847
1761132743063946200,-0.5756513316191733,0.3474962175920605,2.3081512701660394,-0.355002760887146,-0.2148082107305526,-0.2581837177276611
1761132743083794200,-0.7245330755103379,0.6464716384474187,0.9088374304383992,0.1711743474006652,-0.0751463025808334,-0.3232548236846924
1761132743103642000,-0.7615820456400513,0.848812585325539,-0.6477361784905195,0.3801738917827606,0.0880613774061203,-0.295355349779129
1761132743123490000,-0.7566525533486157,0.9447940752867608,-1.5708388656467198,0.3632340133190155,0.2054135352373123,-0.1863807886838913
1761132743143338200,-0.6454404687687755,0.820626282217726,-1.8957383437663315,0.2213710099458694,0.2165732979774475,-0.0160738062113523
1761132743163186400,-0.5156691566042602,0.7646414332106709,-1.7242898902148007,-0.0230285357683897,0.1534553617238998,0.1710333377122879
1761132743183034000,-0.2901110733330249,0.7990720375355332,-1.0239175155580045,-0.2193363308906555,0.0843882262706756,0.301669716835022
1761132743202883300,-0.1792875496793538,0.904752645342797,-0.182595285987854,-0.2792523205280304,0.0237092897295951,0.3639541566371918
1761132743222731000,-0.089873236213997,0.8658760944597422,0.5296031355410814,-0.2208969444036483,-0.0413460284471511,0.3652374148368835
1761132743242579200,-0.0150747099371626,0.7773203705850988,0.9526549448549748,-0.0477689877152442,-0.0075145382434129,0.3861114084720611
1761132743262427100,0.0610275193493813,0.6492948061093687,1.1216986753523348,0.1576815694570541,0.0729156285524368,0.4339083731174469
1761132743282275000,0.1617573728814721,0.5133237990545109,0.9583353285789488,0.3416768908500671,0.1793412417173385,0.4712633490562439
1761132743302123300,0.1930554148016497,0.4106463551186025,0.6839654297351837,0.4654857516288757,0.2410686463117599,0.458179622888565
1761132743321971200,0.0860494036095216,0.378804963569343,0.40560149281919,0.5678364038467407,0.2568808495998382,0.4216430783271789
1761132743341819400,-0.1304032533925026,0.4640593078110366,0.1370025785923004,0.6639320850372314,0.2123733907938003,0.4158362150192261
1761132743361667000,-0.4497849910039454,0.7772062426861375,-0.716930710747838,0.5368775725364685,0.2248228043317794,0.5065692663192749
1761132743381515300,-0.6145065474532544,0.909022066290304,-0.8766624230206013,0.1188965067267417,0.2280543446540832,0.6922035813331604
1761132743401364000,-0.8470512016762047,0.8697102657951414,-0.1350520290464162,-0.2658165097236633,0.2632844150066376,0.946096122264862
1761132743421212200,-0.8960862315453588,-0.0066886109184473,1.5652233638525008,-0.6075640320777893,0.2470567971467971,1.1192773580551147
1761132743441060600,-0.7584468894194811,-1.0429731483574955,3.7394700214415786,-0.6122849583625793,0.0359833762049675,1.1580654382705688
1761132743460908500,-0.733033119764924,-1.809829992595315,4.404278330764174,-0.2326675802469253,-0.0893902033567428,1.03672194480896
1761132743480756500,-0.4706050761926919,-2.3827046991080043,3.4877842480927703,0.2443050891160965,-0.0974929705262184,0.8088053464889526
1761132743500604700,-0.4751007801767438,-2.453553428313136,1.39853058039546,0.694176197052002,-0.1034646108746528,0.6346014738082886
1761132743520452600,-0.7618607164509594,-2.1957398197337983,-1.2069734047949314,1.066751480102539,-0.0751776173710823,0.6027781367301941
1761132743540300500,-0.9124791479416192,-1.7850749060451985,-3.819634276002645,1.0137876272201538,0.0123294834047555,0.6693492531776428
1761132743560148500,-1.003962157439813,-1.2635418258436024,-5.298712557318806,0.4714649319648742,0.1797760277986526,0.7950724363327026
1761132743579996700,-1.144718024151027,-0.7911129682898521,-5.15640602709949,-0.2819056212902069,0.3323926329612732,0.9217734932899476
1761132743599845600,-1.2968722869068383,-0.8765110318511724,-3.3987001894950866,-0.9696907997131348,0.3561645448207855,1.0038398504257202
1761132743619693600,-0.9063245708346368,-1.1102981604158877,-1.2858850289463997,-1.4145687818527222,0.1854470819234848,1.0102874040603638
1761132743639541500,-0.7011720736671239,-1.1264464544013142,0.7792097645282745,-1.5621596574783323,-0.0771992579102516,1.0439863204956057
1761132743659389400,-0.3369639368575066,-0.6753006233729422,2.4794933407336472,-1.2826594114303589,-0.2929255962371826,1.0733469724655151
1761132743679237600,0.1704050454458221,-0.1633933217865414,3.0156092191696167,-0.740147054195404,-0.3436881303787231,1.0695593357086182
1761132743699085600,0.5674433291137219,0.2442872788616455,2.22698514508605,-0.1080941036343574,-0.18052938580513,0.9816378951072692
1761132743718933500,0.405385585046187,0.7039033252619207,0.7673691046088934,0.2613982558250427,-0.0056887362152338,0.8198205232620239
1761132743738781400,-0.1567044368734583,1.0402579711146651,-0.2424509120136499,0.3618102371692657,0.0668464004993438,0.6914045214653015
1761132743758629600,-0.6780715493910014,1.1195835098292677,-0.5309463668435812,0.3786380589008331,0.0638035461306572,0.6220289468765259
1761132743778478600,-1.1117722515564412,1.069410781167075,-0.4931231244057417,0.3375660479068756,0.0524262189865112,0.5488001704216003
1761132743798326500,-1.4427500997416671,1.0332134594306348,-0.1831581805676221,0.312911182641983,0.0286232493817806,0.499102771282196
1761132743818174700,-1.6739054184980688,0.918076602622494,0.0677957713752984,0.3185693323612213,-0.0343392305076122,0.5390737652778625
1761132743838022400,-1.6216956310503183,0.7131709198229015,0.1046142206847667,0.3804776966571808,-0.0936150178313255,0.6053943634033203
1761132743857870600,-1.3319547062039374,0.5281452283503487,0.0415197588682174,0.4376730322837829,-0.1198958531022071,0.617923378944397
1761132743877718800,-1.0895612234659493,0.3963630512874573,-0.0028442835152149,0.4576505422592163,-0.0640509277582168,0.5745960474014282
1761132743897566500,-0.8750364292539655,0.2537507430545985,0.1785807896494865,0.4830705225467682,-0.0099777467548847,0.5608957409858704
1761132743917414700,-0.6911603096753358,0.1491961436025798,0.1185094750463962,0.4832141995429992,-0.0280482396483421,0.5843134522438049
1761132743937262600,-0.5749850862627849,0.3263346985545009,-0.2629787362575531,0.3700181543827057,-0.025716058909893,0.6712128520011902
1761132743957110500,-0.3015894027460366,0.2185577760551124,-0.307438640230894,0.0103676272556185,0.0850444138050079,0.7913478016853333
1761132743976959500,0.1240793841332197,-0.2839865260381251,0.9847942964375018,-0.2998720109462738,-0.04484523832798,0.8182797431945801
1761132743996807700,0.2968014378171414,-0.9352351696290075,2.535196523255109,-0.2694156765937805,-0.1158701255917549,0.830163300037384
1761132744016655600,0.5384170680504292,-1.679934761790186,3.328223800733685,0.0186266303062438,-0.1930169910192489,0.6848359107971191
1761132744036503600,0.4517843481276184,-2.211876423281431,2.642618787097931,0.3748361468315124,-0.176995649933815,0.4988762438297272
1761132744056351700,0.087294398701936,-2.382692131887376,1.0194599516272544,0.592471718788147,-0.0810100585222244,0.3617536127567291
1761132744076199400,-0.3717080641109496,-2.3628651493892074,-0.4380699302256107,0.7394021153450012,0.0392189137637615,0.26736781001091
1761132744096047600,-0.7515172362867742,-1.8676077894337475,-1.828832214707136,0.8116670250892639,0.1332568824291229,0.2232761085033416
1761132744115895600,-0.9505511775087564,-1.338451667007804,-3.1160932081818578,0.5526553988456726,0.293751060962677,0.2104908674955368
1761132744135743700,-0.9602722149256616,-0.7563925141729414,-3.374201123532653,0.0205536969006061,0.4655265808105469,0.283594012260437
1761132744155592700,-1.108117601506412,-0.6230446586959064,-2.35382464158237,-0.4591035842895508,0.5227482914924622,0.5537989735603333
1761132744175440600,-1.120708933662623,-0.7482842457149177,-1.0792845979928969,-0.9074528217315674,0.3717020750045776,0.8436596989631653
1761132744195288600,-1.0303153999015688,-1.0399535813406109,0.4762421322315931,-1.1712530851364136,0.0552246309816837,1.0317658185958862
1761132744215136500,-1.04699560880661,-1.02222130609937,1.902366237473488,-1.0684261322021484,-0.2345997989177703,1.102905511856079
1761132744234984700,-0.9216339297778904,-0.7847054393351077,2.379945755788684,-0.7697622179985046,-0.3892281949520111,1.1223597526550293
1761132744254832400,-0.8433828884270042,-0.4233422070952132,2.0045593684911727,-0.3539203405380249,-0.4191189706325531,1.125113844871521
1761132744274680600,-0.8720490109410136,-0.0133941912380047,1.046304119411111,0.0747484043240547,-0.2698782682418823,1.1082381010055542
1761132744294528500,-0.785812816055119,0.2876019765889271,-0.2172305460393428,0.3961815237998962,-0.0172870941460132,1.1344488859176636
1761132744314376700,-0.6110993693582714,0.3970305752854794,-1.1606506295591592,0.4313258230686188,0.2010811269283294,1.2328983545303345
1761132744334224400,-0.386342884793505,0.2306133573668077,-1.401024150776863,0.3215468227863312,0.3354106247425079,1.322701334953308
1761132744354073600,-0.3235433873355388,0.0353429699294269,-1.1181652405291795,0.137769728899002,0.3062236905097961,1.3996615409851074
1761132744373921500,-0.314286533364281,-0.2370082095030695,-0.4384381790161132,-0.0777196660637855,0.2091710716485977,1.4527937173843384
1761132744393769500,-0.4355696378424763,-0.4521383126644417,0.4697457559496164,-0.2024011611938476,0.1390741020441055,1.4814141988754272
1761132744413617700,-0.4785197217747569,-0.7045556516908109,1.4931658433794974,-0.1698856949806213,0.1631364375352859,1.516471028327942
1761132744433465000,-0.5336152207266539,-0.6899025646992027,2.3861381806880235,0.0962086990475654,0.1731189340353012,1.56552255153656
1761132744453313000,-0.4673355895353481,-0.5128090544654056,2.341511103454232,0.4530391693115234,0.1617227345705032,1.628467082977295
1761132744473161000,-0.1124587601726874,-0.3827391977457329,1.412570796185732,0.686086893081665,0.1011866107583046,1.6152942180633545
1761132744493009200,0.1939639444813132,-0.1155984464379027,0.3661918579727411,0.8179992437362671,0.0450463332235813,1.566552758216858
1761132744512857000,0.1727933653544634,0.2518680711131543,-0.8540770817250013,0.700066089630127,0.2045448124408722,1.5722205638885498
1761132744532706000,0.1748547183310612,-0.2267708200618624,-0.9160773185640572,0.1886998265981674,0.4031963348388672,1.5338817834854126
1761132744552554200,-0.195839857888408,-0.7932648856267333,0.9863479556202888,0.2021714895963668,0.3741337656974792,1.5108565092086792
1761132744572402000,-0.85874909212403,-1.5014558250799774,1.4961539192795752,0.6044831871986389,0.287461370229721,1.4898715019226074
1761132744592250000,-1.4523656309574842,-1.6921318339318037,0.324350612065196,0.8225861191749573,0.279633492231369,1.4382328987121582
1761132744612098000,-1.7301413927219806,-1.8245919467888767,-1.0455477480858564,0.70524001121521,0.3073671162128448,1.4061455726623535
1761132744631946000,-1.6542286581255494,-1.8757148157827557,-1.801066255903244,0.5012435913085938,0.282761663198471,1.434894323348999
1761132744651794000,-1.318779290549457,-1.8646464554101227,-2.215530269613862,0.2664818465709686,0.0974591672420501,1.439351201057434
1761132744671642000,-0.6920385538145899,-1.7457181704297662,-2.397668459483981,-0.0585119649767875,-0.0806471854448318,1.3847603797912598
1761132744691490000,0.2876076756773516,-1.415069335003197,-2.2518372622698544,-0.3918075263500213,-0.0459170937538147,1.2746293544769287
1761132744711338000,1.1344932019304483,-1.134751414475217,-1.6045102491021157,-0.6074897050857544,0.1189449280500412,1.1222522258758545
1761132744731187200,1.274428546039015,-0.5524061381753533,-0.472885223019123,-0.653118371963501,0.2699346244335174,0.9785243272781372
1761132744751035000,1.0477198314279317,-0.3400686979398131,0.0536380666851997,-0.7694455981254578,0.3482480347156524,0.8243277072906494
1761132744770883000,0.5919660316800698,0.4199303893577307,0.6367138492166996,-0.7769699096679688,0.1626395881175995,0.7063009142875671
1761132744790731000,0.3571281154207885,0.7096849043380469,0.9439777174025772,-0.7272486686706543,-0.0634822323918342,0.658578097820282
1761132744810579000,0.0366171180510893,1.0324275697499512,1.3395342015475034,-0.5777508616447449,-0.2274980098009109,0.6738042831420898
1761132744830427100,-0.1266579293843358,1.316820849958062,1.2850070770680904,-0.3148834407329559,-0.2832055389881134,0.6423062682151794
1761132744850275000,-0.4962196291163563,1.5686720430016516,0.7392348970144986,0.0169822592288255,-0.2204202562570572,0.5681052207946777
1761132744870123300,-1.0070935142681,1.6752270224906505,-0.0281155028939247,0.3045694231986999,-0.0901804268360138,0.4605969190597534
1761132744889971000,-1.6554831882312893,1.6933125681489705,-0.625800825536251,0.4838424921035766,0.00281926500611,0.4115691184997558
1761132744909820200,-1.975511407052725,1.521177301377058,-1.1192875225573775,0.4577802121639251,0.0654052793979644,0.4109964966773987
1761132744929668000,-2.0639589213125404,1.3096005433157083,-1.3023416582286358,0.2534602284431457,0.0173086859285831,0.434535264968872
1761132744949516000,-2.07471149373427,1.0312326608769595,-1.2527367925822734,-0.0165062621235847,-0.1143683567643165,0.482966274023056
1761132744969364200,-2.0413103055223822,0.7090424417160451,-0.9738187289148568,-0.278628945350647,-0.2384955883026123,0.559914767742157
1761132744989212200,-1.7412302113607523,0.4191953530814498,-0.1741968754768371,-0.3773949742317199,-0.3016590178012848,0.6060572862625122
1761132745009060000,-1.5828554666548966,0.2487622140523046,0.5377952098250389,-0.3255650997161865,-0.3109798729419708,0.6224533319473267
1761132745028908000,-1.4175225733742116,0.1823205241670832,0.938224852964282,-0.180940955877304,-0.2485997229814529,0.6221063137054443
1761132745048756200,-1.1296057952150702,0.2696696852635592,0.8928671233683824,0.0043634120374917,-0.1853197365999221,0.5891337394714355
1761132745068604000,-0.9858812879566102,0.601005735769309,0.3954822498649358,0.1243538558483123,-0.0984808653593063,0.5709946155548096
1761132745088451000,-0.9063128073316068,0.7656057481981814,0.1577016677498817,0.1844041496515274,-0.0259930603206157,0.5608935952186584
1761132745108300000,-0.8092709215972572,1.0554993063230067,-0.103487262481451,0.2341506034135818,-0.016566501930356,0.5990451574325562
1761132745128148000,-0.762779365665838,1.4492480834588408,-0.0640238516211509,0.1666864603757858,0.0803963094949722,0.6909425854682922
1761132745147996200,-0.6651453592572361,1.4831006687000392,0.1730313388288021,0.0042020240798592,0.1642321348190307,0.7000048756599426
1761132745167844000,-0.4525603009361773,1.3354707515008746,1.167640926837921,-0.0124892834573984,0.1718462258577346,0.689437985420227
1761132745187692300,-0.8106170024439692,1.0192077304318548,2.2756571137964725,-0.0323456823825836,0.168907806277275,0.7102742195129395
1761132745207540000,-1.2597617227829991,0.0093010949717834,3.2122634256482123,0.094798095524311,0.0629375874996185,0.7557884454727173
1761132745227388200,-1.6375862970128654,-0.9539015839152036,3.7776340401411055,0.2668419778347015,-0.014997873455286,0.8771964311599731
1761132745247236000,-1.9492437239825724,-1.6198888738892971,3.2836370555102823,0.3578581511974334,-0.0044683199375867,0.9568772315979004
1761132745267084000,-1.8201432968169449,-2.2988421745508907,2.708615400096774,0.493688702583313,-0.0090976925566792,0.9307454824447632
1761132745286933200,-1.505938231191039,-2.5891607531547547,2.155635480621457,0.7557612061500549,-0.0592617206275463,0.7966396808624268
1761132745306781000,-1.080742322520539,-2.4201556011021137,0.9273568374693392,1.037074089050293,-0.0600086376070976,0.7006588578224182
1761132745326629000,-0.6829761995021253,-2.067657629700005,-0.7470861950367689,1.200433611869812,-0.0207232236862182,0.7291656136512756
1761132745346477000,-0.376581003909558,-2.022503898243606,-2.6165537869930264,1.0484638214111328,0.0828771665692329,0.8743820786476135
1761132745366325200,-0.3463975356351584,-2.0419936116114257,-4.002373354375362,0.5475212335586548,0.1775272786617279,1.0166515111923218
1761132745386173000,-0.0902738529041409,-1.8628524116002023,-4.569984441271424,-0.1688573211431503,0.2809526920318603,1.023254156112671
1761132745406021000,0.0755018157079815,-1.6977238087199626,-4.181811637637019,-0.7504128217697144,0.3699365556240082,1.05390727519989
1761132745425869000,-0.1354225428592413,-1.3784781185783446,-2.8442484439015385,-1.1217554807662964,0.3732458651065826,1.0951056480407717
1761132745445717200,-0.3285567585181445,-1.505872764739394,-1.0798071605622768,-1.255506992340088,0.2468937486410141,1.101414442062378
1761132745465565200,-0.9464237953804432,-1.5063681470409034,0.6742144355714321,-1.1319425106048584,0.0706917867064476,1.2536243200302124
1761132745485414100,-1.3635939993098378,-1.2613251727074384,1.7825608773976562,-0.9176558256149292,-0.0795306116342544,1.428569197654724
1761132745505262300,-1.4134554700657724,-0.4967288207475095,2.001980457913876,-0.6617820858955383,-0.2308485358953476,1.580037236213684
1761132745525110300,-1.3006298858746883,0.0432025060570798,1.9897101744055747,-0.2384672909975052,-0.3305378258228302,1.6882681846618652
1761132745544958500,-0.8878636159926653,0.142166893419763,1.5936913334459066,0.1955954283475875,-0.2710373401641845,1.7182815074920654
1761132745564806100,-0.4457031285177916,0.1285285638281144,0.8919085074692964,0.5214644074440002,-0.1778623014688491,1.7471529245376587
1761132745584654300,-0.3652102265242486,-0.0050571463922504,-0.2019517283648252,0.5661722421646118,-0.0643626078963279,1.8333081007003784
1761132745604502300,-0.3426801225472241,-0.2625782656978815,-1.0406856950074437,0.3865513205528259,0.0181770212948322,1.8898911476135252
1761132745624350200,-0.3809075618717819,-0.4678200485840439,-1.4073983619838952,0.1200041025876998,0.0187662951648235,1.923457145690918
1761132745644198400,-0.651128962733969,-0.5791119934670627,-1.216774667841196,-0.0742440447211265,0.0186781249940395,1.9720549583435056
1761132745664047400,-0.8462710841491818,-0.7166617576133459,-0.618717589277029,-0.1511776000261306,0.0328525528311729,2.0407536029815674
1761132745683895300,-0.965531889019534,-0.7863496994107961,-0.0196837746351957,-0.1518256813287735,0.0482568703591823,2.099898099899292
1761132745703743200,-0.8175887411527335,-0.8206025360159576,0.4963794958531856,-0.0627216249704361,0.1412290185689926,2.120326280593872
1761132745723591400,-0.6512404602844267,-0.7146947683893143,0.8293956449329852,0.0896702408790588,0.2388320714235305,2.1522316932678223
1761132745743439400,-0.5413465456310659,-0.4013322180021554,0.8738309989869594,0.22065369784832,0.3263716399669647,2.199153184890747
1761132745763287300,-0.4627054089840501,-0.136715139953047,0.6408370666265487,0.2844362258911133,0.3414400815963745,2.2497332096099854
1761132745783135500,-0.317510683042556,-0.0488289493704214,0.2524666945934296,0.2842230200767517,0.2818313539028168,2.2885935306549072
1761132745802983200,-0.212898800445348,-0.0739924386249156,0.1700111142247915,0.3033725917339325,0.2264722138643264,2.3156285285949707
1761132745822831400,0.0227380476392805,-0.1887229385552927,0.0902367357641458,0.3555079698562622,0.2240820080041885,2.33777403831482
1761132745842680300,0.2998839870676398,-0.3358850555796176,0.0560796146184206,0.4242243468761444,0.2096342295408249,2.3599064350128174
1761132745862528300,0.4135232257291674,-0.2742850335719063,-0.0428507152110338,0.3894554376602173,0.2363342046737671,2.4127440452575684
1761132745882376400,0.2812262310119345,-0.4723978778935969,-0.4700070372343063,0.1212095990777015,0.2986351549625397,2.4917125701904297
1761132745902224400,0.0183437216704711,-0.4711563899325207,-0.7033265482872724,-0.3420419991016388,0.3899425268173218,2.62215518951416
1761132745922072300,-0.3835120087491348,-1.3780956951320171,0.1264841071873903,-0.7257227897644043,0.1947124153375625,2.6240525245666504
1761132745941920300,-0.5608836052719504,-2.126210210303217,2.4199077638208863,-0.5472665429115295,-0.199660375714302,2.4689972400665283
1761132745961768400,-0.6814215174060314,-2.4935063762560485,3.619187691503763,-0.123374730348587,-0.401139885187149,2.209469795227051
1761132745981616400,-0.5574165502158924,-2.306148552041501,2.513101011303067,0.2243809252977371,-0.208636537194252,1.947242021560669
1761132746001464300,-0.7293925713054835,-1.9357967979103323,0.5962947450667619,0.4339577257633209,0.1083838790655136,1.813969135284424
1761132746021312300,-0.5998218962796033,-1.5161552354313432,-1.0805851591974496,0.4801273345947265,0.3379359543323517,1.7486355304718018
1761132746041161200,-0.4414254511985928,-1.225442396812886,-2.092239405509829,0.4093330502510071,0.3714331090450287,1.682560682296753
1761132746061009400,-0.2733704760102555,-1.1835697328537702,-2.237663775488734,0.351967453956604,0.2994274199008941,1.59038507938385
1761132746080857300,-0.3328476606450974,-1.1832495609886944,-1.8320470851004125,0.2962427735328674,0.2873301804065704,1.5229190587997437
1761132746100705300,-0.404055103627406,-1.0880880821734666,-1.6960200735419988,0.1277339905500412,0.3433309197425842,1.4752886295318604
1761132746120553200,-0.6324235316116362,-1.0233083706837147,-1.615751774084568,-0.1553003042936325,0.4027910530567169,1.4595015048980713
1761132746140401400,-0.867833439072594,-0.8572598034143447,-1.349803666627407,-0.3934507966041565,0.4628877341747284,1.4738103151321411
1761132746160249300,-1.0420357213769107,-0.8512313369050621,-0.622201339739561,-0.4642409682273865,0.5029966831207275,1.5143574476242063
1761132746180097300,-1.1705156054913997,-0.860522531537339,0.07458148599267,-0.5069751739501953,0.4849268496036529,1.5602858066558838
1761132746199945200,-1.0405266319882125,-0.9120029817972332,0.3628518998950719,-0.6360640525817871,0.387591004371643,1.5768622159957886
1761132746219794200,-0.8760068817213177,-0.7123309618674218,0.6687310357242823,-0.6774502396583557,0.2769703269004822,1.576462745666504
1761132746239642400,-0.7258491996102034,-0.4229067017547786,1.0801602117836475,-0.5537158846855164,0.2127777487039566,1.5698091983795166
1761132746259490300,-0.6397548243477941,-0.0076998703202232,1.1367021832168105,-0.3907693028450012,0.1761262416839599,1.544125199317932
1761132746279338200,-0.5970900236302986,0.3872918926140293,0.9381400972902776,-0.2375625371932983,0.1343816816806793,1.5112260580062866
1761132746299186200,-0.6749807437688112,0.6750046361010521,0.7486831088393926,-0.0772348046302795,0.0795511826872825,1.4856704473495483
1761132746319034400,-0.7108300557851791,0.8189708431608974,0.4451397224813699,0.0162817612290382,-0.0093158185482025,1.4913512468338013
1761132746338882300,-0.696217885325849,0.8709578547034412,0.1485147372096777,0.0306427329778671,-0.0626379549503326,1.4912583827972412
1761132746358730200,-0.6152645992789417,0.7354720373496413,0.1332277362287044,0.0473950281739234,-0.0734776556491851,1.445145845413208
1761132746378578400,-0.5418961788704618,0.4465489682247862,0.2804851668536663,0.1094153895974159,-0.0413675680756568,1.370545506477356
1761132746398427100,-0.548705310896039,0.1475854204703122,0.3912976576566696,0.1764829009771347,-0.0161885283887386,1.2910540103912354
1761132746418275300,-0.6456453436911106,-0.0171046448621898,0.4981161103874444,0.2459882646799087,-0.0330658666789531,1.19040048122406
1761132746438123800,-0.6702206897601485,-0.1375871735472232,0.5097352365106343,0.3110390305519104,-0.0738177001476287,1.0839486122131348
1761132746457971700,-0.6158338505342602,-0.1945380911074578,0.3293202171713114,0.3504162132740021,-0.1232068762183189,0.993877649307251
1761132746477819600,-0.5455599255423993,-0.1755216760735027,-0.0486404045283794,0.3457027971744537,-0.1352115720510482,0.9324767589569092
1761132746497667800,-0.4704700881687924,-0.082153556081606,-0.627343378803134,0.2909426987171173,-0.1325724273920059,0.8950759172439575
1761132746517515800,-0.4476190816743299,0.1032688339577987,-1.156207094153762,0.1949433237314224,-0.1412914991378784,0.866882860660553
1761132746537363700,-0.3772262795431539,0.2868256949868053,-1.3999895470321178,0.0757907852530479,-0.1713635325431823,0.8350307941436768
1761132746557211600,-0.3249349147591739,0.4769327448442578,-1.282640932458639,-0.00480985827744,-0.1947506070137024,0.7762660384178162
1761132746577059800,-0.2715642668385059,0.6113413248879834,-0.893529971191287,-0.0412058271467685,-0.2059613764286041,0.6761845350265503
1761132746596908800,-0.3816931592915207,0.8224184993967414,-0.445984356611967,-0.046353779733181,-0.2183961272239685,0.5668144226074219
1761132746616756700,-0.5553259711448103,0.9655269205834716,-0.0206821380227804,-0.0145132094621658,-0.1939626485109329,0.4494841694831848
1761132746636604700,-0.8099822116717695,1.0891055886529386,0.3877747442275285,0.1093362420797348,-0.1584031730890274,0.3751603960990906
1761132746656452600,-1.1089021760128437,1.3046277233392,0.7987310420781374,0.2718847095966339,-0.1492827981710434,0.335669994354248
1761132746676300800,-1.122306724248081,1.462035961100459,0.9841758722782136,0.4828791320323944,-0.1761525571346283,0.3113155961036682
1761132746696148700,-1.0243592679761349,1.6505096376024186,1.181082007691264,0.7018595933914185,-0.1618724465370178,0.2726457118988037
1761132746715996700,-0.6582355068035424,1.632479767654091,0.964745195621252,0.8793411254882812,-0.122353546321392,0.2243335396051406
1761132746735844600,-0.6041447279147804,2.0253207092300056,0.28909458976686,0.7022803425788879,0.0115579664707183,0.2361197918653488
1761132746755692800,-0.3320380247626453,1.7102705710820854,-0.0496773463606834,0.4206568300724029,0.002556008985266,0.2421212047338485
1761132746775540500,-0.0423531592187471,1.0046155798472465,1.0510527752429246,0.3096829652786255,-0.0966228321194648,0.3014844059944153
1761132746795389700,0.2013212849741801,0.251121490529552,2.069278216639161,0.325543999671936,-0.2281703352928161,0.3232645690441131
1761132746815238000,0.5506913701467215,-0.6350811334483325,2.731933147320152,0.4679546952247619,-0.2970877885818481,0.2506444454193115
1761132746835085600,0.5793345867091789,-1.1016219558767977,2.570047471883893,0.609998345375061,-0.2844778001308441,0.153995543718338
1761132746854933800,0.209121510396339,-1.3384107504755258,1.5764871006667611,0.7052825689315796,-0.1929396688938141,0.0430445559322834
1761132746874781700,-0.2450714697755873,-1.3838124653436243,0.4791191489726304,0.8113348484039307,-0.1814723908901214,-0.0474418103694915
1761132746894629600,-0.4588486970232799,-1.170155247746408,-0.6374965240269899,0.8308356404304504,-0.2744428515434265,-0.1701239496469497
1761132746914477600,-0.510054312397167,-1.002847985652834,-1.6865911509394644,0.7246068120002747,-0.2832266688346863,-0.2822916209697723
1761132746934325800,-0.3293012932751327,-1.0159671410754323,-2.406928455260396,0.5390003323554993,-0.1879575848579406,-0.2865249514579773
1761132746954173700,-0.2170229494369588,-1.0769601005680858,-2.7697423612326384,0.3414575457572937,-0.0861751064658165,-0.179127961397171
1761132746974022700,0.0176484328826889,-1.1553484314978122,-2.93400879432559,0.1228838041424751,-0.0303856767714023,-0.0808781310915947
1761132746993870800,0.3093746132621541,-0.9772095403969288,-3.022550416609645,-0.1572778075933456,0.0370429269969463,0.0055686947889626
1761132747013718500,0.6745745741207152,-0.8992541940569877,-2.649534265574813,-0.444422036409378,0.1065159887075424,0.0962607562541961
1761132747033566700,1.1048104497198017,-0.9597327742867172,-1.828168197840452,-0.7625203728675842,0.0983802005648613,0.189970389008522
1761132747053414700,1.2393012646868824,-0.9363355320863426,-1.0687801551133391,-1.0843722820281982,0.0310462303459644,0.2563704252243042
1761132747073262600,1.4070111162319778,-0.7081338755037635,-0.1228600714713335,-1.3024195432662964,-0.1471748501062393,0.2725810706615448
1761132747093110800,1.4356762158326803,-0.2350754878748208,1.1330308012276886,-1.3250277042388916,-0.3778789341449737,0.1976546794176101
1761132747112958700,1.3760950228340922,0.3344976928744465,2.144101110172272,-1.0322450399398804,-0.5224968194961548,0.0602487847208976
1761132747132806700,1.2009026335138826,0.9789683667629956,2.637953717896342,-0.5006731152534485,-0.4707029163837433,-0.0968527793884277
1761132747152654600,1.0410299784004688,1.6175154227562247,2.2916268363446,-0.002072459552437,-0.3295935392379761,-0.2090355455875396
1761132747172503800,0.8781634021680802,2.036223503777385,1.3469617211997509,0.3247579932212829,-0.184013694524765,-0.2472336441278457
1761132747192351500,0.6914183030243962,1.9946232270188629,0.2867348748981952,0.4383562207221985,-0.1162310615181922,-0.2227150499820709
1761132747212199700,0.4027716762207448,1.758596064442396,-0.3932622357279062,0.3792420029640198,-0.1279636025428772,-0.1675441563129425
1761132747232047900,0.1403396140605211,1.3826954440124333,-0.7121586740404368,0.2302902042865753,-0.1646107286214828,-0.1209570840001106
1761132747251895600,-0.1181413723863661,1.052179221989587,-0.9481067800313234,0.0522579625248909,-0.1805098354816436,-0.0612768679857254
1761132747271743700,-0.1532224034439772,0.6453205687161535,-1.00434304651618,-0.0878964066505432,-0.2310851365327835,-0.0025406526401638
1761132747291591700,-0.310235431342572,0.1626834747504442,-0.2959481089234352,0.00552095239982,-0.1744371503591537,0.0333410277962684
1761132747311440000,-0.3869311330102384,-0.1189691284473985,0.4563789093762636,0.2785859107971191,-0.0115765519440174,0.0370185486972332
1761132747331287600,-0.2623573894888162,-0.158714790315181,0.2520008306473493,0.5226329565048218,0.0850718766450882,0.0222680326551198
1761132747351135700,-0.1562036842770874,0.2383758445944637,-0.5973907236099243,0.4897755086421966,0.1287514567375183,0.074723795056343
1761132747370984700,-0.1394797823607921,0.5368813829157502,-1.34968617772758,0.2953211069107055,0.1905286312103271,0.1595694422721862
1761132747390832600,0.007654387210682,0.759136186857894,-1.6291677204966544,0.1305574178695678,0.2551974952220917,0.2103118002414703
1761132747410680800,0.1823517595555633,0.9205890969000756,-1.4643027369886636,-0.011861965060234,0.3358372151851654,0.2564564347267151
1761132747430528300,0.3737496529411524,1.091160548421368,-1.1144318992197513,-0.1296007186174392,0.3646170794963836,0.288428783416748
1761132747450376200,0.4930311352733522,1.255518239994347,-0.7016694287300109,-0.2475686967372894,0.3214662373065948,0.279710441827774
1761132747470224100,0.6247576000936329,1.4487193834096193,-0.0813841517448425,-0.2770421206951141,0.2844023108482361,0.2441579103469848
1761132747490072300,0.6312739962503313,1.183433100862056,1.1961351999163627,-0.007500915788114,0.1751927584409713,0.1256673038005828
1761132747509920000,0.7986382492281496,1.0739580692078918,2.308122628593445,0.3002500534057617,0.1935050934553146,0.0423750095069408
1761132747529768200,0.2997048676410689,1.1910718521121888,1.817375585669279,0.2102010250091552,0.3723523318767547,0.1860107332468032
1761132747549617400,0.0102789452943019,1.029256903824583,1.533885391780734,-0.1277100145816803,0.3055592179298401,0.4122249782085418
1761132747569465000,0.0680348408281803,0.4772559123840182,2.4852485432595013,-0.2658077180385589,0.1543129235506057,0.4906826019287109
1761132747589313300,0.8132890711974352,-0.7145473227426409,3.0480215424746278,-0.1117887198925018,0.0173178408294916,0.2764765322208404
1761132747609161200,1.4350057692252098,-1.4290930380500853,2.711800459873676,0.1312994360923767,-0.0964117273688316,0.0530753470957279
1761132747629009200,1.5337484675280748,-1.7391177492514251,1.6079133355438708,0.1887988746166229,-0.2488881349563598,0.0076650655828416
1761132747648857300,1.4212700893394647,-1.6782956162810323,0.8209113097041845,0.2453579753637313,-0.4836677610874176,0.0255002249032259
1761132747668705300,0.9573824117682872,-1.223812384458259,0.0994037925601005,0.4064056575298309,-0.5540258884429932,0.0005364325479604
1761132747688553200,0.3036174014423042,-0.9390421606965362,-1.0529109703302382,0.589110255241394,-0.3631297051906585,-0.1122057363390922
1761132747708401200,-0.2113922318072989,-0.8293143963903188,-2.2898609957158564,0.5114006996154785,-0.0643155798316001,-0.2271485924720764
1761132747728249300,-0.3827442027144134,-0.8817939406901597,-2.653587924879789,0.2218654304742813,0.0636432617902755,-0.298471450805664
1761132747748098000,-0.4003943891627713,-0.9836253987886012,-2.096503492695093,-0.0235023312270641,0.0652028694748878,-0.3184462487697601
1761132747767946200,-0.3488481436576694,-1.267197718002647,-1.333152976077795,-0.1877612322568893,0.060630477964878,-0.3091832995414734
1761132747787794400,-0.3646567938925698,-1.45257839692533,-0.6364455536693334,-0.2985181212425232,0.0201765242964029,-0.3113298118114471
1761132747807642000,-0.167980740908347,-1.3124663080103696,-0.2701817995041609,-0.3621757328510284,-0.0572570599615573,-0.3459335267543793
1761132747827490300,-0.0419140919480472,-1.035862658765167,0.0421720852971076,-0.2812293469905853,-0.1060888245701789,-0.3617001175880432
1761132747847338200,0.1074355617158114,-0.6183589850977063,0.0090793785125017,-0.1790709644556045,-0.1418943703174591,-0.3823135793209076
1761132747867186400,0.1558276175063103,-0.0670722794063389,-0.277602304893732,-0.1248198226094245,-0.1784194111824035,-0.419134110212326
1761132747887034000,-0.0335045024558901,0.3817478851534426,-0.4888011695533991,-0.0772085562348365,-0.1578227877616882,-0.4708135724067688
1761132747906882300,-0.1424655567059293,0.7272388273376971,-0.4980243404507636,-0.0246663969010114,-0.134206086397171,-0.4712186455726623
1761132747926730200,-0.1749117092153057,0.7466981455672532,-0.3298158917337656,0.0231865495443344,-0.1291193515062332,-0.4796179533004761
1761132747946579200,-0.2188057229341939,0.5988650339461863,-0.216003050071001,0.0676577538251876,-0.116417221724987,-0.4851661622524261
1761132747966427400,-0.1844074865089729,0.4510406170882284,-0.2198456969738006,0.2130062878131866,-0.0198666211217641,-0.5004240870475769
1761132747986275000,-0.3041137335918843,0.4172536444291472,-0.25498364585042,0.2485537081956863,-0.0101199680939316,-0.5007327198982239
1761132748006123300,-0.2374591316083446,0.4776403085917234,-0.2077905175209045,0.2340130656957626,-0.0324000641703605,-0.5211830735206604
1761132748025971200,-0.2959399256169795,0.3269827141344547,-0.1369780286729335,0.2151264399290084,-0.085498072206974,-0.5585852861404419
1761132748045819400,-0.4052874584339558,0.3341514367200434,0.1205623159229755,0.1508712768554687,-0.152314692735672,-0.5975565314292908
1761132748065667000,-0.4554101374093443,0.2934403638862073,0.2596042913883924,0.1016605570912361,-0.239828273653984,-0.6492936015129089
1761132748085515300,-0.4310936614722013,0.1486998845182359,0.3173281660825014,0.1640123873949051,-0.1925070434808731,-0.6623640656471252
1761132750323499500,-0.322857925822027,-0.0822531165990978,0.7276140173256397,0.1273298859596252,-0.287248820066452,0.6223466992378235
1761132750343347500,-0.4814660043597221,-0.5234883059225977,0.702001437163353,0.1693672090768814,-0.3801908791065216,0.6020829081535339
1761132750363195400,-0.6929987771488726,-0.856117282315716,0.4129430877536535,0.2504222393035888,-0.3912338614463806,0.5923475623130798
1761132750383043600,-0.9400848746825008,-1.0192285540241748,-0.0740624305546283,0.3118811249732971,-0.2408803254365921,0.6182727217674255
1761132750402891500,-0.97454273234047,-1.0188849282182753,-0.5088800809860229,0.2881903350353241,-0.0419424213469028,0.688633382320404
1761132750422739500,-1.0237626903224737,-0.9613662207074464,-0.6600894641071557,0.1236493736505508,0.0522681251168251,0.8308340907096863
1761132750442587100,-0.9931186918642372,-0.9988001715667544,-0.2621650817871093,-0.0674691796302795,0.0446443408727645,0.9739139676094056
1761132750462436000,-0.694551924875006,-1.2177891786459834,0.3155710932821035,-0.1760930716991424,0.0151920672506093,1.055833101272583
1761132750482284000,-0.669689213231951,-1.347375270436704,0.8282213404566049,-0.1072101294994354,-0.0643495321273803,1.0989447832107544
1761132750502132200,-0.8234381247680633,-1.377447460356355,0.7952437844842671,0.0822328329086303,-0.1467998027801513,1.1238325834274292
1761132750521980200,-1.0643201069645585,-1.2227256121348589,0.2655243290871381,0.3046430051326751,-0.1342064589262008,1.19637131690979
1761132750541828000,-1.1401106764860451,-0.9876791311588138,-0.7665121955186128,0.4241594672203064,0.072959616780281,1.3251795768737793
1761132750561676000,-1.2566745704226194,-0.742011741316691,-1.605324488094449,0.3361621797084808,0.3515424132347107,1.4626353979110718
1761132750581524200,-1.5377224857255816,-0.6060127868089824,-1.5679659405589104,0.0784657970070838,0.4447058737277984,1.5082885026931765
1761132750601372000,-1.545484790290147,-0.4848351154666394,-0.9683552028119564,-0.2550667822360992,0.3903458416461944,1.4609248638153076
1761132750621220000,-1.3462196706607936,-0.303272825788334,-0.0097808047801256,-0.4875701665878296,0.2728084921836853,1.4076606035232544
1761132750641068300,-0.820779792279005,-0.2661965292602777,1.319295715638995,-0.3481421172618866,0.176361858844757,1.3117979764938354
1761132750660917000,-0.6420886741228401,-0.25479718336761,2.040806155392528,0.0473353900015354,0.0816419646143913,1.1969479322433472
1761132750680765200,-0.5026486392505467,-0.0140903385423123,1.3367360952615737,0.3750869035720825,0.0299100615084171,1.1190422773361206
1761132750700613000,-0.3342828810799866,0.0535856058456003,-0.1202455050587654,0.4354769289493561,0.0434109345078468,1.054770827293396
1761132750720461000,-0.1566824807699769,0.16024353425242,-0.9339286170750856,0.3737427890300751,0.0876308009028434,1.0175305604934692
1761132750740309000,-0.1540198374319821,0.1527171573355794,-1.0203139381080866,0.2947197258472442,0.1261542439460754,0.9811455011367798
1761132750760157200,-0.2121147373955696,0.0565096035335212,-0.6283452493220567,0.2231747806072235,0.1267825812101364,0.91963130235672
1761132750780005000,-0.2500592681255191,-0.0048322424620389,-0.0905114610522985,0.1605199724435806,0.1064762696623802,0.8519973158836365
1761132750799853000,-0.3024429508354515,-0.0929529359202832,0.5359931288391352,0.159756451845169,0.0303735882043838,0.7726513743400574
1761132750819701200,-0.3061286536108702,-0.197634084361419,1.173137186166644,0.2358365654945373,0.0107165034860372,0.6937109231948853
1761132750839549200,-0.2804381128415465,-0.2353396917689591,1.549435427612066,0.3309313952922821,0.0493028275668621,0.6354531049728394
1761132750859398100,-0.2512731739599257,-0.2277818968005478,1.6889608026802538,0.3514152765274048,0.0776282176375389,0.595619797706604
1761132750879246000,-0.0744100018832832,-0.5105842545554041,1.8775866010040043,0.3323456645011902,0.1082442924380302,0.5623013377189636
1761132750899094000,0.0764066555932164,-0.9316185865670442,2.045460703200101,0.4177487194538116,0.0003100570756942,0.5630921721458435
1761132750918942200,0.1353778269346803,-1.1889344747573136,1.5597265200018882,0.4988628327846527,-0.1800792962312698,0.5678383111953735
1761132750938790100,0.2675089270330965,-1.3604980791211128,0.4767839840233325,0.4534467458724975,-0.2810135781764984,0.5555619597434998
1761132750958638000,0.438344509383291,-1.3572810167707503,-0.3574064939707517,0.3580639660358429,-0.3235218822956085,0.5458379983901978
1761132750978486000,0.2889141186334192,-1.174143878991157,-0.7656079401552677,0.3707140982151031,-0.2653934359550476,0.5494667291641235
1761132750998334200,-0.0590820113047957,-1.140079112304002,-1.1380763941794634,0.3627585768699646,-0.2458946704864502,0.5104599595069885
1761132751018182100,-0.8395886837758123,-0.9153533882036804,-1.5662427700281143,0.4462992250919342,-0.0411710068583488,0.5022697448730469
1761132751038030000,-1.1100269422590732,-0.6840062001369893,-1.5199007055699825,0.5767833590507507,0.1684135496616363,0.4672399163246155
1761132751057879300,-1.591982191440463,-0.6539202739529312,-1.8937147289842369,0.4848852157592773,0.3059738576412201,0.5222452282905579
1761132751077727000,-2.075157045544684,-0.5597906224034727,-2.002544521537423,0.2467016726732254,0.4240187108516693,0.7328033447265625
1761132751097575200,-2.3792229944720864,-0.5843979710459709,-1.6407880156636236,-0.0413304455578327,0.4906353652477264,1.0434051752090454
1761132751117423000,-2.412078969891369,-0.8481567517653107,-0.760060827422142,-0.2876573204994201,0.5010395646095276,1.3530843257904053
1761132751137271000,-2.143378056594729,-1.2305685076549648,0.3478711883842945,-0.4591973721981048,0.4045084416866302,1.613451361656189
1761132751157119000,-1.6339733672127126,-1.6849528822131454,1.5490210015922783,-0.4616777896881103,0.2230366170406341,1.7749552726745603
1761132751176967200,-1.0854955814622342,-2.141989817106724,2.1854688933491704,-0.2808611392974853,0.0385513789951801,1.8301149606704712
1761132751196815000,-0.5101257701981813,-2.305780887772888,1.9092787933409208,-0.0501127354800701,0.0314487181603908,1.8427631855010984
1761132751216663000,0.012733736301586,-2.303834283749759,0.8959557370334863,0.1315044313669204,0.2008197009563446,1.851804494857788
1761132751236511000,0.1758387974649667,-1.9964361216597255,-0.0607347469478845,0.2095423191785812,0.405840128660202,1.8808568716049197
1761132751256360000,0.0597026274211704,-1.518181188300997,-0.7199222937792539,0.1800542622804641,0.5636491775512695,1.9147711992263796
1761132751276208000,-0.2795622067898511,-1.089264870867878,-0.6004138708233833,0.1336556226015091,0.6528941988945007,1.96455192565918
1761132751296056000,-0.7070309557631611,-0.8223008643664419,-0.2563520115941762,0.0764466524124145,0.6926671266555786,2.0462725162506104
1761132751315904300,-1.1007695037659255,-0.7355699447661638,0.1263625266343355,-0.0039506470784544,0.6765616536140442,2.175682783126831
1761132751335752000,-1.4527914551541208,-0.7684807191126048,0.5692553469717502,-0.0736823976039886,0.6352605819702148,2.3274149894714355
1761132751355600100,-1.6470321707502007,-0.8648243934497236,1.043498998862505,-0.0647662132978439,0.5975901484489441,2.455845355987549
1761132751375448000,-1.7254510429486631,-1.0226660541921853,1.6130647269576788,0.0706646591424942,0.5628886222839355,2.55977725982666
1761132751395296000,-1.6268084440194068,-1.2414283398434518,1.782083907535672,0.2562714517116546,0.6012328267097473,2.635103940963745
1761132751415144200,-1.518928061145544,-1.50960113761276,1.4368793080121278,0.3668318688869476,0.6552441120147705,2.7112390995025635
1761132751434993000,-1.2702915923647582,-1.8097133804783223,0.821887461259961,0.3643852472305298,0.6948322653770447,2.774217367172241
1761132751454841900,-0.9754067287586629,-2.0779642119199035,0.3133136697441339,0.3140572607517242,0.7445530295372009,2.8300588130950928
1761132751474690000,-0.6463678127467631,-2.2597721469223497,-0.0815045632541179,0.2495079785585403,0.7349528074264526,2.839057922363281
1761132751494537700,-0.3253557705197483,-2.469675711074472,-0.4434183055162429,0.2111290395259857,0.7492961883544922,2.82153582572937
1761132751514386000,-0.1352236592862755,-2.62913620519042,-0.8563000184714794,0.2045601606369018,0.8228611946105957,2.796086311340332
1761132751534233900,-0.0814156063290312,-2.7453157759845257,-1.3775479981213807,0.1352750658988952,0.942945659160614,2.7914981842041016
1761132751554081800,-0.1627530328553169,-2.719256913359463,-1.684635340696573,-0.0653064772486686,1.0592777729034424,2.801703453063965
1761132751573929700,-0.494363625986129,-2.510108259227872,-1.7617898920476436,-0.3774118721485138,1.1582942008972168,2.833786725997925
1761132751593778000,-0.9016277913205324,-2.3777052833855152,-1.1453402477025985,-0.6784830689430237,1.1943087577819824,2.7908565998077397
1761132751613626000,-1.1379992372900247,-2.147632060777396,-0.0825777454435825,-0.8435579538345337,1.108350396156311,2.582690477371216
1761132751633473800,-1.2185391932956873,-1.6175538550704716,0.9110340636998414,-0.8668830990791321,0.806115984916687,2.2219386100769043
1761132751653323000,-1.1059759133026004,-0.97874113387838,1.0065116227269173,-0.9055572152137756,0.5073208808898926,1.874310851097107
1761132751673170700,-0.3949203051332384,-0.2845125957388431,1.3602899893283844,-0.8853261470794678,0.230595201253891,1.684754490852356
1761132751693019000,0.254057251720503,-0.0102556922828778,1.2952122447401284,-0.8452939987182617,0.0053437971509993,1.5782021284103394
1761132751712866800,0.9348919822145252,0.2983776741579175,1.2975848190903665,-0.7012465000152588,-0.0369428694248199,1.5184224843978882
1761132751732715000,1.2049912910670042,0.5882178581276908,1.3204869712501763,-0.5485987663269043,0.0038112341426312,1.480319857597351
1761132751752563000,1.3253354341946542,0.8189913744922727,1.3657956010073422,-0.2680497467517853,0.0246518347412347,1.4566549062728882
1761132751772411000,1.234930794517696,0.9450504612006246,1.21486503482759,0.0391562171280384,0.0223073009401559,1.4810138940811155
1761132751792259000,1.0014299355484544,1.0352996180549263,0.6615080987334251,0.2079788595438003,-0.080924391746521,1.511421799659729
1761132751812106800,0.910082608193904,1.2332213602513074,-0.1503694251656532,0.2032691538333892,-0.3112149536609649,1.545408844947815
1761132751831955000,0.8104996596746146,1.4150121979884802,-0.558528201252222,0.2083254903554916,-0.4667703211307525,1.5208170413970947
1761132751851803000,0.7229703562382608,1.4246071248076857,-0.7169727963238954,0.2860410213470459,-0.4757083654403686,1.4567087888717651
1761132751871651800,0.4592413130700588,1.506419584967196,-0.9253145179867744,0.309552788734436,-0.3953699171543121,1.375720739364624
1761132751891500000,-0.0267181211182381,1.589627883399278,-0.9372305812299252,0.2761792838573456,-0.2645734250545501,1.2879242897033691
1761132751911348000,-0.6787531749796122,1.342987264610827,-0.5338619620293379,0.2692216038703918,-0.1652012914419174,1.1844642162322998
1761132751931196000,-1.4431057813115418,1.0223651715494693,0.1502203720837831,0.2994895577430725,-0.0995274633169174,1.1123939752578735
1761132751951043800,-2.056983967733383,0.5954597555473446,0.7030623443931341,0.4056856036186218,-0.1234175786375999,1.033516764640808
1761132751970892000,-2.520465987113118,0.6348651526100934,0.5018634802222252,0.4871619641780853,-0.105586752295494,0.9877661466598512
1761132751990739700,-2.426460984856635,0.8254338286299258,-0.1480950504928827,0.3401297628879547,0.0108111426234245,1.013595700263977
1761132752010588000,-1.750102230732888,0.735963035736978,-0.0484410825639963,0.1189487725496292,0.0425677746534347,1.043281316757202
1761132752030435800,-1.1621887989118695,0.4149007976926863,0.8163806805372238,0.0812863036990165,0.0683380588889122,1.0960774421691897
1761132752050284000,-0.4456379543270915,-0.066506023825705,1.6803759296864271,0.2126492410898208,0.050456054508686,1.0428045988082886
1761132752070131700,0.1918574737213552,-0.2394040916636586,1.8478601557821035,0.3531121909618377,-0.0411366187036037,0.9892118573188782
1761132752089981000,0.7513903950367122,-0.1230382045172154,1.1600123316556217,0.447841465473175,-0.1096388027071952,0.9418549537658693
1761132752109828900,1.2594354134380816,0.1191496726460754,0.2352642153799533,0.4216346740722656,-0.0567378550767898,0.9493942856788636
1761132752129676800,1.692551666779071,0.1920994657836854,-0.167324651619792,0.2731446623802185,0.0212732274085283,1.0037747621536257
1761132752149525000,2.020615454148501,-0.1480574949614703,0.3264168969452381,0.1608918309211731,0.0031670155003666,1.042847752571106
1761132752169372700,2.214542135359346,-0.639784634964168,1.05680563968122,0.1624527871608734,-0.0993397384881973,0.9868751764297484
1761132752189220900,2.104282894524932,-0.7175552723869681,1.336312316891551,0.2603222131729126,-0.1817907840013504,0.8583998680114746
1761132752209069000,2.0579405378058557,-0.7013654773473739,1.0245143124073743,0.3963751792907715,-0.2173361182212829,0.6671801805496216
1761132752228917000,1.862898588829488,-0.7683896798282861,0.2909048540592193,0.4949498176574707,-0.1989055871963501,0.5051440596580505
1761132752248765000,1.702359944088012,-0.7747143528051674,-0.6041881286650895,0.5237488746643066,-0.1264931857585907,0.3839698433876037
1761132752268612900,1.5208831407360732,-0.7364404439903796,-1.3059995962142943,0.4696545600891113,-0.0819060653448104,0.2861225306987762
1761132752288461800,1.2956041666671634,-0.6304616569541395,-1.828179303756356,0.3267664313316345,-0.1044639647006988,0.1943840831518173
1761132752308309800,1.18294305232279,-0.566886133622378,-2.083278100419044,0.1655336618423462,-0.1532158106565475,0.0932727605104446
1761132752328158000,1.0045615115724504,-0.4610663365401327,-2.149122737726569,0.0352722629904747,-0.1836937963962555,-0.0088723618537187
1761132752348006000,1.0122845801051703,-0.3018849516265094,-2.181374902033806,-0.04252864792943,-0.1645699590444564,-0.1239084526896476
1761132752367853800,1.025457584606856,-0.1125783314317464,-2.101527458336949,-0.1232401803135871,-0.1133254915475845,-0.1899001151323318
1761132752387702000,1.0337393830008803,0.1281783438846468,-1.9134324058890344,-0.187938779592514,-0.0401238203048706,-0.1880225241184234
1761132752407550000,0.9496529865600168,0.3324091230973601,-1.5968623646974562,-0.2515574097633362,0.0051143751479685,-0.117814764380455
1761132752427398000,0.8544477416682988,0.5291121371537447,-1.1542220578163862,-0.3367371261119842,-0.0192978400737047,-0.0037312612403184
1761132752447246000,0.697303342474997,0.7513898835800588,-0.7141735209941864,-0.4222638010978699,-0.0731247141957283,0.0970888063311576
1761132752467094300,0.5163993705749511,1.0103818882890043,-0.3141781776189803,-0.4496527016162872,-0.1231177672743797,0.1720072925090789
1761132752486942000,0.2915700399696826,1.2453859914280474,0.0194908824115991,-0.3909602165222168,-0.1442218720912933,0.2134279310703277
1761132752506791200,0.1630318497966975,1.4670911986634134,0.1387082134664058,-0.3415764272212982,-0.1135081425309181,0.2257454097270965
1761132752526639000,-0.0176797413364052,1.5724825412005186,0.1317301911473274,-0.2923926115036011,-0.0770161226391792,0.2507435977458954
1761132752546487000,-0.1297843177765607,1.6508260100752117,0.2919388732820749,-0.1815252751111984,-0.0645670592784881,0.2825568318367004
1761132752566335200,-0.0576631574828177,1.4126004606716334,0.3210182527720928,-0.0399700254201889,0.0040332498028874,0.2910760939121246
1761132752586183200,-0.1604615609172731,1.42942460809201,0.2763081734299659,0.0336267463862896,0.073927454650402,0.2928922176361084
1761132752606031000,-0.184176709960401,1.2289550811089571,0.3628361178040504,0.0535623282194137,0.1250470578670501,0.2893826961517334
1761132752625879000,-0.2677588832061737,1.1484225777573882,0.8527157302439212,0.1152272149920463,0.1527508646249771,0.2782509922981262
1761132752645727200,-0.3911291692219674,1.1828874496780335,0.8325532321810721,0.1087572053074836,0.3377914428710937,0.3386881053447723
1761132752665575000,-0.5272063035324216,0.9806706406362354,0.8805687828093767,-0.003026720136404,0.5561901926994324,0.4056633710861206
1761132752685423000,-0.8173607776157558,0.5568810185670853,1.5115005414932965,-0.1669556349515915,0.7910879254341125,0.5045253038406372
1761132752705271000,-0.8625726690001785,-0.1714019840613007,2.616839033675193,-0.2655618488788605,0.732758641242981,0.5367167592048645
1761132752725120000,-0.9117213153116404,-0.5535968823298811,3.4116450112640857,-0.3325206041336059,0.2974697351455688,0.4645149409770965
1761132752744968200,-0.6834086726352572,-0.7985928757164626,3.5461247933804985,-0.3158080875873565,-0.0955823361873626,0.3316657543182373
1761132752764816100,-0.3841396391281858,-0.8622472364380955,2.7716221836298702,-0.0166707709431648,-0.1993269324302673,0.2456985116004943
1761132752784664000,-0.172308723642677,-0.8231274513836949,1.56923493758142,0.4904201328754425,-0.1267789453268051,0.2113976180553436
1761132752804512000,-0.2150305517770349,-0.4760489477470517,-0.2752162865400314,0.815698504447937,-0.091743066906929,0.233826458454132
1761132752824360200,-0.6435571392402053,-0.0769794870451092,-2.3098387848615647,0.6975955367088318,-0.0135863423347473,0.3280295729637146
1761132752844208000,-0.3666530822763219,-0.3446909509129822,-3.379189433339238,0.3319832682609558,0.078805387020111,0.2956111133098602
1761132752864056000,-0.3974649846473708,-0.2786057828478515,-3.168269385620952,-0.0459423586726188,0.1690373569726944,0.2631612122058868
1761132752883904300,-0.4996921275325119,-0.3038711570076644,-1.919187608414888,-0.2241203635931015,0.1633738279342651,0.2989073097705841
1761132752903752200,-0.6317459976762533,-0.6310448636695742,-0.5368640664547681,-0.2164797484874725,0.075664684176445,0.4007171392440796
1761132752923600100,-0.7516083486363291,-0.7348352007508278,0.5362661005616187,-0.1360599994659423,-0.0067690946161746,0.5508369207382202
1761132752943449000,-0.5885811750147492,-0.8614888192862272,0.7310463298618793,0.050453595817089,0.0031598687637597,0.6324292421340942
1761132752963297000,-0.4007037108402699,-0.8968119154714047,0.3293763312727212,0.2167411148548126,0.0537930279970169,0.6253827810287476
1761132752983145000,-0.4386002011774108,-0.7455050633251666,-0.3160965784609317,0.250990629196167,0.0033530327491462,0.5557036399841309
1761132753002993200,-0.1316360465904697,-0.6169722069144249,-0.6625409489125013,0.2506438493728637,0.0416505746543407,0.4982645511627197
1761132753022841000,-0.1052323891157284,-0.2612980896942317,-1.178191546946764,0.2889311015605926,-0.0302823185920715,0.4792611598968506
1761132753042689000,0.03465644896999,-0.0728990858636796,-1.7323691517740487,0.2404610961675644,-0.1251535266637802,0.4905366599559784
1761132753062537200,0.1157429329425096,0.2109934052154421,-2.175276000636816,0.0555499568581581,-0.2487790137529373,0.4760316908359527
1761132753082385200,0.0841266553860157,0.4700869706027209,-2.182273896700144,-0.1554098129272461,-0.3163234889507293,0.4441973865032196
1761132753102233000,0.0745212071727961,0.6355225936055183,-1.8750111975580448,-0.3398292660713196,-0.32711061835289,0.3618248105049133
1761132753122081000,-0.0137580378480255,0.9559184766955672,-1.2168687758654355,-0.3891118466854095,-0.2742487490177154,0.265199214220047
1761132753141930000,0.0046623657878488,0.9275975143574178,-0.5701578487694263,-0.3943360447883606,-0.2466496527194976,0.1063266918063163
1761132753161778200,-0.064313263021782,1.139020397031307,0.3089128044366836,-0.3511424660682678,-0.2336253523826599,-0.0960851833224296
1761132753181626000,0.0494497481498867,1.1545767164729537,0.8127689197808503,-0.2603451013565063,-0.2418045252561569,-0.2625816166400909
1761132753201474300,0.0488479097992181,1.0294619248773902,1.4509575177252292,-0.1218100786209106,-0.2957271635532379,-0.3691670000553131
1761132753221322000,0.2301421961911022,0.7151572713345289,1.768055382183194,0.0771148204803466,-0.3213899731636047,-0.4636249542236328
1761132753241170200,0.3696905137434602,0.5954997952967882,1.5158710116624832,0.1969098001718521,-0.255256175994873,-0.5611872673034668
1761132753261018000,0.2387242927059531,0.8260216384552419,0.9509861348599196,0.1733595132827758,-0.0035377021413296,-0.5582241415977478
1761132753280866000,0.3902305398818105,0.5920763967193663,1.3164613689959048,0.0874715521931648,0.125606507062912,-0.5503450632095337
1761132753300714000,0.2970445258580148,0.4389557731494307,1.919637690269947,0.1010081321001052,0.133374735713005,-0.4668707251548767
1761132753320562200,0.1671204342845827,0.0621169950865209,2.211998003834486,0.1296842247247696,0.1300400346517563,-0.4349181056022644
1761132753340410000,0.2787037633296102,-0.2082087429329752,2.154931716266274,0.0666761919856071,0.1372627168893814,-0.4660327434539795
1761132753360259000,0.2641516524944454,-0.503081623840332,2.281175000435114,0.0901122614741325,0.0996481403708458,-0.4842396974563598
1761132753380107300,0.2270226759310811,-0.965622709108144,2.137905178141594,0.2998185753822326,-0.1000570505857467,-0.5175237655639648
1761132753399955000,0.1973260413255542,-1.1170327293679116,0.8301409103423356,0.548270583152771,-0.2751449048519134,-0.6062308549880981
1761132753419803100,0.2887515484828502,-0.9739324184224007,-1.2624006929844618,0.627027153968811,-0.3356803357601166,-0.694873034954071
1761132753439650000,0.3593459376007318,-0.7560854940503835,-3.137734546625614,0.4616835117340088,-0.2125406563282013,-0.7079219222068787
1761132753459498200,0.5599170252621174,-0.6979451475098729,-3.7713492607831953,0.161885067820549,-0.0163234192878007,-0.6524555087089539
1761132753479346000,0.575590249081701,-0.7313651865527033,-3.3926012880980965,-0.1679157614707946,0.0920053422451019,-0.5597978234291077
1761132753499194000,0.6340007178004831,-0.6890677213102578,-2.161359118965268,-0.4425041079521179,0.0715447962284088,-0.5310479998588562
1761132753519042000,0.9465625462640076,-0.7849844024069607,-0.8863245698571205,-0.5534313321113586,0.0917363837361335,-0.5980469584465027
1761132753538890200,1.007355453139916,-0.988163042218238,0.3755973996996879,-0.4417498409748077,0.2204018086194992,-0.6516504883766174
1761132753558738000,0.9255427007194608,-0.9499117836266756,1.1984896540880203,-0.1877458393573761,0.2891384065151214,-0.653910756111145
1761132753578587100,0.6466847697414457,-0.5765840824246407,1.1083850202709435,0.0986811146140098,0.2514654994010925,-0.6240300536155701
1761132753598435000,0.4269907927306369,0.0008403963468968,0.1195341419190168,0.2099633663892746,0.1915690004825592,-0.5818076133728027
1761132753618283000,0.493441031248495,0.506718519037962,-0.8858715653926134,0.0703416466712951,0.079657144844532,-0.5846832990646362
1761132753638131200,0.4990410066800191,0.8525000416666269,-1.250882104626298,-0.1087154820561409,-0.0260310750454664,-0.5623142123222351
1761132753657979100,0.602617627945356,0.9335330418862402,-0.9193728529781102,-0.135343536734581,-0.0533167384564876,-0.5144236087799072
1761132753677827000,0.6911261151447892,0.9074176267683506,-0.316377733489871,-0.0058420156128704,-0.0422619581222534,-0.4577387869358063
1761132753697675000,0.6900271409269422,0.8632543676540255,0.0351619142740964,0.159980222582817,-0.0987902954220771,-0.4378165006637573
1761132753717523200,0.8265671435087919,0.9019900487616658,-0.119511345565319,0.2287192195653915,-0.135983794927597,-0.4561561048030853
1761132753737371100,0.876013530657813,1.0131303102143108,-0.2638900058835745,0.2439303249120712,-0.0945138484239578,-0.480922669172287
1761132753757219000,0.966118968192488,0.8799319462105631,0.0132201315790414,0.2669890224933624,0.001410475000739,-0.4985173642635345
1761132753777068000,0.9273243965044616,0.6777564920924604,0.6905734496980905,0.3554418087005615,0.0128713157027959,-0.4961357116699219
1761132753796916000,0.7245201429635286,0.4772080546543001,1.075741226297617,0.4848047196865082,-0.0440067835152149,-0.4626391530036926
1761132753816764200,0.6534556521158665,0.579001226568967,0.622453268674016,0.512414276599884,-0.0202569048851728,-0.4069143831729889
1761132753836612400,0.2624167549932375,0.6936025882609188,-0.1044113915890455,0.3387411832809448,0.2117875516414642,-0.3042014539241791
1761132753856460000,0.4430182002827524,0.1178717616647481,0.3274158448547125,0.1004326269030571,0.3961088359355926,-0.2827377319335937
1761132753876308200,0.2597149669549428,-0.5490981096059083,1.419787887957692,-0.0583675429224967,0.4229166507720947,-0.2465746253728866
1761132753896156200,0.1949920819526538,-1.296905458524078,2.572660284730792,-0.0876297429203987,0.2302808910608291,-0.3554364442825317
1761132753916004000,-0.0624469211606308,-1.3763375994183122,2.7809745338648555,0.0714305341243743,-0.0712343677878379,-0.5367162227630615
1761132753935852000,0.2157122869635,-1.2702308020882307,1.6323364136606453,0.1594171822071075,-0.2305794209241867,-0.7043073177337646
1761132753955700200,0.4352827106598764,-1.0163616933509707,0.2784989614725113,0.1514025330543518,-0.2909858822822571,-0.784124493598938
1761132753975548000,0.6295817323144525,-0.7151948268659413,-0.6863081934690475,0.1565663367509842,-0.3398212194442749,-0.7591281533241272
1761132753995396000,0.5643987737860531,-0.3969093600586056,-1.3234054890453817,0.1499148905277252,-0.3517437279224396,-0.655854344367981
1761132754015245300,0.5098511179752647,-0.3228467833735048,-1.651979271763563,0.1364994794130325,-0.1950661987066269,-0.6038552522659302
1761132754035093000,0.5687233589868992,-0.4166936724588275,-1.5173662186563015,0.0795546546578407,0.0282607357949018,-0.6615937352180481
1761132754054941200,0.3995007282586768,-0.5215430170737206,-1.047027757510543,-0.0465072020888328,0.2002501934766769,-0.7439340353012085
1761132754074789000,0.2296297166243195,-0.9315760625995696,-0.0852519330888986,-0.1110423952341079,0.267117977142334,-0.8005590438842773
1761132754094637000,0.0472004713857546,-1.1963653554104268,0.8786410296171903,-0.1358532309532165,0.0861885249614715,-0.7845417261123657
1761132754114485000,-0.2586722895015962,-1.309957686190307,1.4263058915495872,-0.1438823193311691,-0.3078286051750183,-0.7120528817176819
1761132754134333200,-0.2632857198474929,-1.2293605931699276,1.2370821273326873,-0.1611616611480713,-0.5290247201919556,-0.6415370106697083
1761132754154181000,0.0854349432392977,-1.1278807249881326,0.645383477884531,-0.1140196174383163,-0.5405336022377014,-0.6157807111740112
1761132754174029000,0.2587814124318771,-1.0303016636371611,-0.008267477607727,-0.0281136967241764,-0.5194578766822815,-0.6465640664100647
1761132754193877200,0.286288409772329,-0.9613565760962663,-0.7233920157164335,-0.0021667899563908,-0.4889591336250305,-0.7114973664283752
1761132754213726000,0.3995233784819021,-0.8984982611231506,-1.3009861519664525,-0.0411806255578994,-0.503686249256134,-0.7987858057022095
1761132754233574100,0.5066999239353462,-0.8657330327272414,-1.539476343655586,-0.0992223396897316,-0.5512752532958984,-0.9039255380630492
1761132754253422000,0.5691253639165311,-0.8827028722286224,-1.6740771218031645,-0.2064098566770553,-0.5708212852478027,-0.994045078754425
1761132754273270000,0.5539789404500276,-0.8626004337899387,-1.5756442201018332,-0.3061501979827881,-0.5182431936264038,-1.0726193189620972
1761132754293118000,0.5122141573121771,-1.0922459325052798,-1.0876333241432905,-0.3767483532428741,-0.4705486297607422,-1.1588307619094849
1761132754312966100,0.4766862592699006,-1.1594861158244312,-0.3751058167904615,-0.3702338337898254,-0.4629604518413543,-1.2480323314666748
1761132754332814300,0.4769871784452348,-1.209602730385214,0.1544359439522027,-0.2923836708068847,-0.3893170952796936,-1.3074878454208374
1761132754352662000,0.4072138233866542,-1.1972435995496808,0.460725414147973,-0.2576723396778106,-0.327081024646759,-1.3719145059585571
1761132754372510200,0.3004140022911131,-0.9372966322034596,0.6906494375437497,-0.2780395150184631,-0.3142731487751007,-1.4188809394836426
1761132754392358100,0.2717262524671852,-0.7039009871743619,0.8495119657665491,-0.3459954559803009,-0.2979281842708587,-1.4365849494934082
1761132754412206000,0.2872501309439539,-0.5140419937938452,1.1559060653805733,-0.4266813993453979,-0.257603257894516,-1.4372851848602295
1761132754432055000,0.417711398134008,-0.3720813544027507,1.620233303412795,-0.4667135179042816,-0.2354822009801864,-1.4421749114990234
1761132754451903700,0.4308361795797943,-0.1940188895389437,1.9405249954760075,-0.3643031418323517,-0.231672927737236,-1.433619737625122
1761132754471751700,0.4907255617447197,-0.1742445140108466,1.804139671999216,-0.2028800547122955,-0.2447689622640609,-1.4124302864074707
1761132754491600000,0.4489172682587057,-0.2387178629651665,1.0882716220468285,-0.119406521320343,-0.2810786366462707,-1.3501248359680176
1761132754511447600,0.5040764800965786,-0.4242380964890122,0.406336236834526,-0.0314658768475055,-0.301836758852005,-1.273695945739746
1761132754531295700,0.5389361965537071,-0.5914984507009386,-0.2827045964688062,0.0691675692796707,-0.2563150227069855,-1.2289540767669678
1761132754551144000,0.3929652986079454,-0.6220438110902905,-1.031204749956727,0.0417016074061393,-0.1820851266384124,-1.2103722095489502
1761132754570991900,0.191979419600591,-0.6708642483606934,-1.374384565654397,-0.0631165578961372,-0.1137272641062736,-1.1843446493148804
1761132754590839800,0.0327039997279644,-0.7349504976935685,-1.1536959881156683,-0.1890225410461425,-0.0617897063493728,-1.1401597261428833
1761132754610687700,-0.0957659109817817,-0.7124230240650474,-0.6026052433878183,-0.2572762370109558,-0.0574131198227405,-1.060271978378296
1761132754630536000,-0.1759839050240814,-0.7442068402081727,0.0837988116711378,-0.2958391010761261,-0.0866549462080001,-0.9546085596084596
1761132754650384600,-0.1685722039954736,-0.8404917700953781,0.7842009969443082,-0.3320879936218261,-0.1039840206503868,-0.8508968949317932
1761132754670232800,-0.1204764642704278,-0.8727329746171831,1.4703537075906992,-0.2735751867294311,-0.1625310480594635,-0.7840597033500671
1761132754690080800,-0.067054999477975,-0.7968655404672026,1.6848931148499249,-0.1215451657772064,-0.2428914308547973,-0.7600356936454773
1761132754709928700,-0.0094802143983542,-0.5652626240737736,1.0910387486726043,0.0182921923696994,-0.2862304151058197,-0.7287968397140503
1761132754729777000,0.0386468337804079,-0.297556128641963,0.0179594350606203,0.0535860769450664,-0.2950383126735687,-0.6766825914382935
1761132754749624800,0.1330433926377445,-0.0110942254662513,-0.8094616949290037,0.0105078872293233,-0.3249118030071258,-0.6238450407981873
1761132754769472800,0.1846072103321552,0.2136437735937535,-1.3042372627168892,-0.0645755603909492,-0.3289185166358948,-0.5560598373413086
1761132754789320700,0.3249010855548083,0.373945686969906,-1.3639204547852275,-0.1310253590345382,-0.2826426923274994,-0.505802571773529
1761132754809169000,0.3984813586156815,0.4458040316089987,-1.0470949775278569,-0.1773932725191116,-0.2081087678670883,-0.4779073596000671
1761132754829016600,0.3928068931758403,0.4222045448347926,-0.356583487150073,-0.1568451076745987,-0.1757190823554992,-0.4702008068561554
1761132754848864800,0.2224623822782188,0.4655792839199304,0.2119745252072811,-0.1307129114866256,-0.1557967066764831,-0.4402386546134949
1761132754868713700,0.0732542559769004,0.5398296382620931,0.5073702609449625,-0.1130580380558967,-0.1478644162416458,-0.4035751819610595
1761132754888561700,-0.1153881281554699,0.6062782328121363,0.7936544694662093,-0.0807292237877845,-0.1496099531650543,-0.3565410375595093
1761132754908409900,-0.1759885081339627,0.5956510403357446,1.08586280733943,0.0229155328124761,-0.188206285238266,-0.3283953964710235
