timestamp,accel_x,accel_y,accel_z,gyro_x,gyro_y,gyro_z
1761133504074471200,-0.0056319049397483,0.1156609537474811,-0.2846709281057119,-0.1130340844392776,-0.002463029930368,0.0044879396446049
1761133504094318000,-0.0207989693354815,0.0622728432353585,-0.14780162050426,-0.1313827931880951,-0.0295501835644245,-0.0071801296435296
1761133504114164500,0.0113123982615768,0.0521139989230781,-0.0937467897117137,-0.1575815230607986,-0.0466097630560398,-0.0102746440097689
1761133504134011400,0.1017939756322652,0.0991188381388783,-0.1019932245314121,-0.1520315557718277,0.0016490682028234,-0.0157208014279603
1761133504153858300,0.0480821130584925,0.0621281010024249,-0.0588455722004175,-0.1267779767513275,0.0150530096143484,-0.0152769526466727
1761133504173705200,-0.016333587424457,0.0387806162279099,-0.0586065027475357,-0.1389195173978805,0.0089335422962903,-0.023649226874113
1761133504193551000,-0.0376391545752063,0.0035670448318123,0.0156570033371448,-0.1412172764539718,-0.0052733682096004,-0.0159884858876466
1761133504213398000,-0.0399395039394497,0.0247701379887759,0.0765665223300457,-0.1267533004283905,-0.000420527998358,-0.0130235413089394
1761133504233245000,-0.0510247789142653,0.0332340149514377,0.1585012936949729,-0.0785316228866577,0.0056791193783283,0.0008482373668812
1761133504253090800,-0.0880521947992965,-0.0030232933439314,0.0543383239090442,-0.0659533366560936,-0.0069498857483267,0.0021832326892763
1761133504272938000,-0.0853354101212695,0.0502301579378545,-0.0299339504927396,-0.0910597741603851,-0.0273433793336153,-0.0027881229761987
1761133504292785000,-0.0482149091253057,0.0686884093660861,0.0363449865788221,-0.0644063279032707,-0.0394291505217552,0.0003470755764283
1761133504312632000,-0.1302948245819657,0.0874089649923145,0.2571995683342218,0.0094738658517599,-0.0689746960997581,0.0164502244442701
1761133504332479000,-0.108642526352778,0.084115330274403,-0.0120791448503732,0.0051671164110302,-0.0618711374700069,0.0261074621230363
1761133504352326000,-0.0261218448586761,0.145445266636461,-0.0836444978922605,-0.0267712324857711,-0.0387573093175888,0.0305465850979089
1761133504372171800,0.0066861997656524,0.1654699636638164,-0.1249339551359415,-0.0720183178782463,-0.0280509758740663,0.0365572497248649
1761133504392019000,0.033240006300807,0.1340588532906025,-0.0286579392075538,-0.0738992393016815,-0.0249442644417285,0.0263766553252935
1761133504411865900,0.0276551553731784,0.1286249916736036,0.0369938058763742,-0.0641151294112205,-0.0274323131889104,0.0128171406686306
1761133504431712800,0.0799869252327829,0.1673307890996336,0.0320516732990741,-0.0552494972944259,-0.0049144551157951,-0.0080767376348376
1761133504451560000,0.0787854770211502,0.2156986602969467,-0.0754646985679864,-0.0620266087353229,0.0161524880677461,-0.0246509835124015
1761133504471406800,0.0400468733040615,0.2047613789580762,-0.0164326638847589,-0.0463279895484447,0.0280646700412035,-0.0304894000291824
1761133504491254000,-0.0273420343033969,0.1786179067894816,0.0021346739411354,-0.030156971886754,0.0388739667832851,-0.0270161814987659
1761133504511100200,-0.055542913925834,0.1691512094598263,-0.0371679933995008,-0.0272428039461374,0.0472718961536884,-0.012413240969181
1761133504530947000,-0.1235736631007865,0.1819987083341926,-0.1148661501079797,-0.0546839125454425,0.0177411753684282,0.0048546330071985
1761133504550794000,-0.1079052615867927,0.1079516214791685,-0.1275350775450468,-0.0885158330202102,-0.0127276564016938,0.0062813190743327
1761133504570641200,-0.037655338525027,0.0767940474756062,-0.05341361027956,-0.0877663195133209,-0.0330636240541935,-0.0019392631947994
1761133504590488000,0.0279730987485498,0.0769884010039269,0.0467617511749267,-0.0646547898650169,-0.0733957439661026,-0.0263076890259981
1761133504610335000,0.0833238876357674,-0.0128808166220784,-0.1619821215480566,-0.0998204872012138,-0.0813829228281974,-0.0418237820267677
1761133504630181000,0.0737189508792012,-0.0083862086165696,-0.3966477865129709,-0.1671597510576248,-0.0545344203710556,-0.0618122145533561
1761133504650028000,0.203494939218834,-0.0707842856667935,-0.4355424575746059,-0.1739819794893264,-0.0077921189367771,-0.0622023828327655
1761133504669875000,0.1283080346789211,-0.0449528020568191,-0.2221440370440483,-0.1811504065990448,0.0094121573492884,-0.04244289919734
1761133504689722000,0.0243620686445385,-0.0061395987335592,-0.0802472566694021,-0.1699025630950927,-0.0039358455687761,-0.0337938033044338
1761133504709569000,-0.1703044711481779,0.0044022535469383,-0.3415162663996219,-0.1921885460615158,0.0034614379983395,-0.018613651394844
1761133504729416000,-0.0653708823159337,0.152029102006182,-0.3281739697456359,-0.1437491476535797,0.0463879704475402,-0.0284466445446014
1761133504749263000,-0.1265728814493864,0.1663968327177688,-0.4334826024353504,-0.0622043386101722,0.051118616014719,-0.0345016717910766
1761133504769109000,-0.1494875642972067,-0.0935859731268137,-0.584106879144907,0.1134314015507698,0.0794414207339286,-0.0573735572397708
1761133504788956000,-0.1365235629037022,-0.351135377812013,-1.027616370075941,0.3314528465270996,0.1246025040745735,-0.0718054324388504
1761133504808803000,-0.1742556929919868,-0.4927146166700869,-1.6206103200316428,0.5748058557510376,0.0948259234428405,-0.0526181049644947
1761133504828650000,-0.2320681592850014,-0.7489302154682577,-2.4345517907232046,0.734290599822998,0.0222368147224187,-0.0610908232629299
1761133504848497000,-0.0531576627571135,-0.8949175530921667,-3.5391911947250363,0.6934725642204285,-0.0200478136539459,-0.1442310214042663
1761133504868344000,-0.0911484803142026,-0.7965798553936183,-4.64119732761383,0.2525302171707153,-0.0824511051177978,-0.1679394394159317
1761133504888190000,-0.1767757129888981,-0.6561334930229932,-4.87622598067224,-0.2381418943405151,-0.2412767112255096,-0.1142901480197906
1761133504908036900,-0.0956879869073629,-0.8364696019072085,-3.2085254081636667,-0.5187095403671265,-0.5320680737495422,-0.0890682116150856
1761133504927883800,-0.3097841073784977,-0.7352309220701455,-0.7514367914617062,-0.4909097552299499,-0.639042317867279,0.0181705504655838
1761133504947731000,-0.8544018566999584,-0.606202902553603,1.9848563046336167,-0.3540444374084472,-0.3146785497665405,0.2063787281513214
1761133504967577900,-0.5502553168170153,-0.0836031429685652,4.869647186803817,-0.1932500898838043,0.4234168827533722,0.2366410046815872
1761133504987425000,1.1439221245329827,1.4515578217059373,9.51759398867786,0.0511689074337482,0.3806287348270416,0.0702708438038826
1761133505007271200,1.6899540515013038,2.968589693841338,12.98614746659994,0.1211774051189422,0.0034834954421967,-0.063526414334774
1761133505027118000,1.669900128379464,3.7367715761378406,14.325836566448212,0.0606667920947074,-0.1906142383813858,-0.0919476896524429
1761133505046965000,1.3217790568873284,3.322007994958758,14.214941073536872,0.2121660113334655,0.1226756870746612,-0.0196437034755945
1761133505066812200,1.016343500107154,2.563633805449306,12.53808104301691,0.4200827777385711,0.7704975008964539,-0.0118684684857726
1761133505086659000,0.9494782875802368,0.6310775238301605,10.08046694113612,0.3680269420146942,1.0191882848739624,-0.2625044584274292
1761133505106506000,0.3174297632934525,-1.402739284131676,6.968465970703959,0.2326221764087677,0.7715559005737305,-0.447995513677597
1761133505126353200,-0.1030642695627175,-2.977310760435462,2.513257663169503,-0.0976746752858161,0.0194653254002332,-0.4994900822639465
1761133505146199000,0.0651248899319209,-3.255057734496891,-2.9491017340391874,-0.7013917565345764,-0.7201570272445679,-0.5206995010375977
1761133505166046000,0.2056488658497109,-2.60461142026484,-7.160843230515718,-1.300083875656128,-1.297218680381775,-0.6274726390838623
1761133505185893000,0.0864626971181482,-2.019901752921194,-9.311179435685276,-1.4195442199707031,-1.62395179271698,-0.6813737154006958
1761133505205739300,0.0029861031387001,-1.00300945982486,-9.755300336512922,-0.9045846462249756,-1.753691792488098,-0.7854207158088684
1761133505225586400,-1.6454774886541068,-0.0850722839393652,-10.318981098222732,-0.411295086145401,-1.68230402469635,-0.7324832081794739
1761133505245433300,-2.633053963156044,0.1515206958263181,-10.535005191081762,-0.168001040816307,-0.9849040508270264,-0.4088011980056762
1761133505265279200,-3.1724557313948867,0.0757293043209239,-9.415136653766035,0.2780971527099609,0.0620047487318515,0.1480008214712143
1761133505285126400,-2.4818694222152238,-0.8565485133398324,-7.206637597963214,0.8453589081764221,0.6593940258026123,0.5430740714073181
1761133505304973300,-2.462490768006444,-1.7720637410417197,-6.014901509788632,1.1042027473449707,0.6545794606208801,0.6118746995925903
1761133505324820200,-2.031973298987001,-1.618858800189197,-6.805262782928347,0.7182251214981079,0.3629418909549713,0.1221122965216636
1761133505344667400,-1.658886420803517,-1.1046042596232146,-8.397884441316128,0.4935661256313324,0.0705102011561393,-0.2259896248579025
1761133505364514300,-1.5546933481402694,-0.2413996493950486,-8.457251991564036,0.9024837613105774,-0.1131511852145195,-0.1718970090150833
1761133505384360200,-0.8415906712479889,0.6964919530268758,-9.087118166843055,1.2049636840820312,0.0929384157061576,-0.0371185392141342
1761133505404207400,-0.6346896499127149,0.9625392100095748,-10.921899060821533,0.51779705286026,0.7917843461036682,0.0606962330639362
1761133505424054300,-1.2180560859538614,1.521217487256974,-11.592567786610124,-0.8510966300964355,1.6517764329910278,0.3135268688201904
1761133505443901200,-1.9835595428213475,1.6384236246198416,-7.537278250083327,-2.151924133300781,2.4550373554229736,1.0488430261611938
1761133505463748400,0.0951622094675898,-2.949769550298154,2.371769463595748,-1.6642533540725708,3.055624961853028,1.4645756483078003
1761133505483595300,1.4275393788672983,-6.574264992821216,9.712547236457466,-0.315632700920105,2.3837146759033203,0.8702595829963684
1761133505503441400,0.2466588850975036,-5.494571229505539,10.22399862923622,-0.5043823719024658,0.4355854094028473,0.1177606657147407
1761133505523288300,-0.5923062599524855,1.182535859761387,8.806351844960451,-1.577797770500183,0.2437811642885208,-0.2963885068893432
1761133505543135500,-1.250446928079426,1.7558233848586675,11.98053483853936,-1.604892611503601,-0.0697507709264755,-0.3725833296775818
1761133505562982400,-0.7441768103960901,2.4687878223240376,12.921048094701764,-0.5545263886451721,-0.0282167010009288,-0.4703776240348816
1761133505582829300,-0.6970620810650289,4.158776214486361,12.282825009965896,0.2242818623781204,-0.2862743139266968,-0.2265382707118988
1761133505602676500,0.4310841264588758,3.7081791033819314,9.432498707455396,0.4991476833820343,-0.4237233698368072,-0.2184959948062896
1761133505622522400,1.6278819184698163,1.5361936687231064,6.177773858174682,0.4554795920848846,-0.380020797252655,-0.2065365016460418
1761133505642369300,1.6327166451498865,0.4624311951525509,3.4668940202772616,0.1734007596969604,-0.4738732576370239,-0.1186974570155143
1761133505662216400,0.5352979131165891,0.0222233761154115,2.2507307623326778,-0.1342979520559311,-0.5745337009429932,0.0066286283545196
1761133505682063400,-0.2627148063580505,-0.3744856025328859,1.2775742967188355,-0.3762504160404205,-0.5298507213592529,0.0430432222783565
1761133505701910300,-0.956082654281333,-1.027221963930875,0.7488572963625192,-0.4445758163928985,-0.2246078550815582,0.027083883062005
1761133505721757400,-1.129985953639075,-1.204151113915816,0.5060983413130045,-0.3521815538406372,-0.0180022306740283,-0.101670041680336
1761133505741603300,-0.8458382456898689,-0.8534918291829526,-0.3454740641146898,-0.212412878870964,0.0296384487301111,-0.2819141745567322
1761133505761450200,-0.727079033666104,-0.0272428482452407,-1.3841723846971987,-0.0663084164261818,-0.0625363960862159,-0.3518226742744446
1761133505781297400,-0.566496549782902,0.5825033894710242,-2.851017207384109,0.0784187540411949,-0.2041131108999252,-0.3294129371643066
1761133505801144300,-0.1624334089795127,0.915835691827908,-4.44561513428092,0.0922360494732856,-0.2543554902076721,-0.226311981678009
1761133505820991200,-0.169296317018941,1.0020283398330212,-5.645816268461942,-0.0984682887792587,-0.2565708756446838,-0.0552172698080539
1761133505840838400,-0.0864544224801473,0.7015930024929344,-5.843057334917783,-0.3219295144081116,-0.27439945936203,0.0860943272709846
1761133505860684300,-0.0546374895187094,0.2991270312204956,-5.203916550815105,-0.3048990070819855,-0.2275120913982391,0.1709812581539154
1761133505880531200,-0.2860303798906505,-0.2545810563988983,-4.369579942348599,-0.0676177069544792,-0.1746928840875625,0.200699582695961
1761133505900378400,-0.4719611669767647,-0.6699898036137223,-3.8286329904943694,0.1515298187732696,-0.2173472195863723,0.1525388360023498
1761133505920225300,-0.176779475848563,-1.0512851957593112,-3.8333097501337527,0.0887683555483818,-0.2086424380540847,0.0870448946952819
1761133505940072200,0.1517272512490861,-1.524963249656558,-3.29354470154047,-0.1087452471256256,0.1689993888139724,0.1479481905698776
1761133505959918300,0.4367553404957056,-1.8406220212221145,-1.2426613887697455,-0.1253706812858581,0.5906190276145935,0.3337263762950897
1761133505979765500,-0.0078815150640206,-2.285887415909767,2.401543839612603,-0.0048744296655058,0.6485000252723694,0.6023972034454346
1761133505999612400,0.1132992752505931,-2.661669816787541,6.301350553482771,0.2638212144374847,0.4792923033237457,0.7121736407279968
1761133506019459300,-0.5640478414565324,-1.5061979050405323,9.774592481482028,0.30235755443573,0.0999080389738082,0.5982874631881714
1761133506039306500,0.0854499855448026,1.6327843035586178,12.682121265161037,0.0524131916463375,-0.0825489833950996,0.093131236732006
1761133506059153400,0.4209387626826762,3.668718322870135,17.29582034499645,0.7073501944541931,-0.4495144188404083,-0.1121106073260307
1761133506078999300,0.7378481188312173,3.202009450398385,18.0440808445096,1.4178041219711304,-0.5520349740982056,-0.165796622633934
1761133506098846500,0.5303887694934383,1.8668692460261285,14.59613351676464,1.1353596448898315,-0.8485354781150818,0.0002406758139841
1761133506118693400,0.0639809257948771,0.0350744095205795,8.901218578612804,0.2300689071416854,-0.7700295448303223,0.2619565427303314
1761133506138540300,-0.942369186227396,-1.5534585456483063,5.913155538016557,0.0150912525132298,-0.867091953754425,0.3722071647644043
1761133506158387500,-0.5817849390033633,-2.074768923009932,2.437148236957192,0.3115758299827575,-0.8589859008789062,0.0254866424947977
1761133506178234400,-0.1406882813677191,-2.2587533252686263,-1.96127786064744,0.5641066431999207,-0.5583770871162415,-0.3379809558391571
1761133506198080800,0.1409207018841058,-2.086644215851277,-6.270257496082782,0.7013543248176575,-0.2645967602729797,-0.3735380172729492
1761133506217927700,0.3637558629974722,-1.7846951129473745,-10.111476996427774,0.6094170212745667,-0.1630728542804718,-0.357575386762619
1761133506237774600,-0.0906383753675967,-1.4945005991145968,-12.654349461138247,0.2411773204803466,-0.317290335893631,-0.4822395145893097
1761133506257621800,-0.9138859459996224,-0.9654184187076984,-14.43542740650177,-0.5895736217498779,-0.3440523147583008,-0.6667024493217468
1761133506277468700,-2.0196181136742237,0.3437067256486043,-15.85283102967143,-1.5227521657943726,-0.4330894947052002,-0.396643191576004
1761133506297315800,-3.502515076495707,1.7390367929697037,-14.332147064769266,-1.428062081336975,-0.3254420459270477,0.1143527403473854
1761133506317161700,-3.76498089479506,0.3277087268540635,-9.637556000620126,-0.5479677319526672,-0.2930156886577606,0.2930309176445007
1761133506337008600,-1.5938333722651004,-3.1168060326263305,-4.94407435901761,0.0067501123994588,-0.0952129364013671,0.3970853090286255
1761133506356855600,-1.2604668023124337,-2.6642238851845264,-3.7915497527688737,0.3081372082233429,0.0553109943866729,0.542785108089447
1761133506376702700,-1.2497940171286464,-0.9600064766615628,-5.386408376428484,0.472135454416275,0.3918508291244507,0.2999827563762665
1761133506396549600,-1.3492933790177106,0.1844205651862546,-6.473112895289063,0.9951328039169312,0.3924612998962402,0.1046630814671516
1761133506416396500,-1.0867506230246275,1.4813554324679077,-7.694528666934371,1.60642671585083,0.1753422617912292,-0.0734002813696861
1761133506436243000,-0.8305027293920516,2.283434323669225,-9.536551787126063,1.8186774253845213,0.1385534405708313,-0.1559937596321106
1761133506456089900,-0.497223545461893,1.6125404108226298,-11.306203498589992,1.0559773445129397,0.940436065196991,0.1059140488505363
1761133506475936800,-0.1552509135968983,0.9314233562558888,-9.365428912267088,-0.5835689902305603,2.158829689025879,0.6534883975982666
1761133506495783700,1.3758955547392369,-0.3706067518055438,0.1762204902589321,-1.0345335006713867,3.073052167892456,1.07813823223114
1761133506515630800,0.7616799530565739,-6.116469786906242,12.383942620706556,-0.4859636723995209,2.530876398086548,0.6203315258026123
1761133506535476700,-2.533372522698343,-7.787596826732158,18.77628452771306,-0.0098228678107261,-0.2746128141880035,0.2199982851743698
1761133506555324000,-1.3885883014433085,1.664866518126428,8.803263815817237,-1.0950030088424685,-0.0294534564018249,-0.2386095374822616
1761133506575170800,-3.331933176645636,4.521170433741808,8.33060714085698,-1.237057328224182,-0.4489995539188385,-0.24870665371418
1761133506595017700,1.3672893466964364,5.811923360985517,11.63660917291045,-0.973468780517578,-0.1774708032608032,-0.3865629136562347
1761133506614865000,1.3287576637282967,6.685072807449102,15.185338595831391,-0.6039835810661316,-0.6947533488273621,-0.2499000281095504
1761133506634711800,2.296524399127811,5.589652482691407,14.21662449657917,0.0295260772109031,-1.108877182006836,-0.3372014462947845
1761133506654557700,1.462170401135087,4.315665981331468,8.732862245857715,0.1375196278095245,-1.2574477195739746,-0.376559168100357
1761133506674404600,-0.0829699778978712,3.096631551864743,3.0920313645929096,0.0241561569273471,-1.197720646858215,-0.0704608112573623
1761133506694251800,-1.39839540970847,0.5900399589883163,-1.8724241036742924,-0.4292629957199096,-0.6814491152763367,0.6159980297088623
1761133506714098700,-1.0262695585768669,-1.4570857913471758,-4.317501964586973,-0.6937060356140137,-0.0957903936505317,1.0673648118972778
1761133506733945600,-0.1839173649044707,-3.380944168052077,-4.6109354603409765,-0.549747109413147,0.2101983428001403,0.7013816237449646
1761133506753791700,0.5783383056808262,-4.222945027536154,-5.438611441874504,-0.2519848048686981,0.1261160671710968,-0.2403840273618698
1761133506773638700,0.166661000079289,-3.1545225998193023,-6.0479357643842695,-0.1275219023227691,0.276026964187622,-0.6638977527618408
1761133506793485600,-0.4368965025320649,-1.0382420281823723,-6.073836513838172,-0.1966604888439178,0.437578409910202,-0.4249404072761535
1761133506813332700,-0.4232788595354184,-0.3598690116267651,-4.960834939682483,-0.2589776813983917,0.332720547914505,-0.2446530163288116
1761133506833179600,-0.1386224896780215,-0.4059866196792572,-3.736615216532349,-0.4096738398075104,0.0735324621200561,-0.2586939334869385
1761133506853026600,-0.2884764761348254,-0.0576902646854519,-2.152028396040201,-0.5184320211410522,-0.1115567907691001,-0.1289582103490829
1761133506872872700,-0.1055216909185051,0.0900048267044126,-0.3278407922685146,-0.3046436905860901,-0.0371531881392002,0.0657505169510841
1761133506892719900,0.3208142546325921,0.0592426086939871,0.6019073242515325,0.2217496633529663,0.2139861583709716,0.2663670182228088
1761133506912566800,0.3932795521888881,0.0686271806981414,-0.0324146613925695,0.6365787982940674,0.4987170696258545,0.328792929649353
1761133506932413700,0.4291079675476998,-0.3132859049543738,-1.2203864285975694,0.6925140619277954,0.5431671142578125,0.2481777518987655
1761133506952260600,0.2393778429775498,-0.3983982834421098,-2.420429157346487,0.5395607948303223,0.3237297832965851,0.1067835763096809
1761133506972107800,-0.3021087504450231,0.16567081999816,-3.602918693748116,0.4568438529968261,0.0069267749786376,-0.0046683880500495
1761133506991953700,-0.8452795158285648,0.5683743263535201,-4.875439798730612,0.2920410931110382,-0.1957214921712875,-0.0404123552143573
1761133507011800800,-0.713468441464752,0.9175368697226048,-5.217070631420612,-0.2774086594581604,-0.2916636168956756,0.0114019149914383
1761133507031647700,0.1890291184276342,0.1734558478511869,-2.754150824347138,-0.8800478577613831,-0.4301070868968963,0.0600039400160312
1761133507051495000,0.1569326196061447,-1.166188755268231,4.324330933824181,-0.7693390250205994,-0.4297863841056824,0.2272543758153915
1761133507071341800,-0.3259683494601398,-1.6645798101395368,12.418240027105808,0.3415955007076263,-0.0631805285811424,0.4670065939426422
1761133507091187700,0.0472919855941087,-0.3234549418671056,16.79458581032753,1.3364335298538208,0.3954465091228485,0.4556687772274017
1761133507111034600,0.4548918491562828,1.136528507150337,17.449729634726047,1.5594991445541382,-0.0131862387061119,0.1440260708332061
1761133507130881800,0.8861110732369124,2.28302851934731,14.507505969762802,1.0397812128067017,-0.403315395116806,-0.1776741445064544
1761133507150728700,1.6500718307070432,1.716193385259807,12.453937947952747,0.7916551828384399,-0.559141993522644,-0.1348383277654647
1761133507170575600,2.713263225902617,0.8171043186366558,9.548164483508469,0.7298592925071716,-0.4183117151260376,-0.103123515844345
1761133507190422800,1.6805404725983737,0.140992890337482,6.469226409244537,0.4648404419422149,-0.2835121750831604,-0.1375367492437362
1761133507210268400,0.7354071554198861,-0.6132432495191693,4.093771535134315,0.3527289927005768,-0.1782073676586151,-0.39710533618927
1761133507230115600,-0.1178589752484113,-0.8937775892768055,0.9559031329959632,0.4648562371730804,-0.2322367876768112,-0.5662274956703186
1761133507249962500,-0.8434117491953075,-0.659132309512794,-3.833080617552996,0.3802419304847717,-0.378234326839447,-0.6922427415847778
1761133507269809400,-0.9696241267692296,-0.834392795633152,-8.25110164246559,0.0995979756116867,-0.5929915308952332,-0.8541388511657715
1761133507289656600,-0.9743361038524656,-1.068156981713697,-10.989088682997226,-0.105088397860527,-0.814456582069397,-0.9873188734054564
1761133507309502700,-1.3624918832868338,-1.0890196639351546,-12.898651553976537,-0.3608269393444061,-0.7338941693305969,-0.9553367495536804
1761133507329349600,-1.70363610150367,-0.5680653334695845,-13.571273751920462,-0.5279451012611389,-0.3009388446807861,-0.6563357710838318
1761133507349196800,-2.3713375019192693,-0.3440496208021417,-12.4030003723979,-0.2818362116813659,0.2410376667976379,-0.2101466357707977
1761133507369043700,-2.717658538252115,-0.6836406547602266,-10.683822126108408,0.0623370222747325,0.7277633547782898,0.1915199011564254
1761133507388890600,-2.1735560449764133,-1.5244219823867082,-8.892467116880416,0.0973627194762229,0.8618748188018799,0.2588998973369598
1761133507408737500,-1.0091224628124384,-1.9310583712115883,-7.445862533667683,-0.2420527786016464,0.5565714836120605,0.0786670967936515
1761133507428583700,-0.6669860917530953,-2.3517267925202847,-6.33245880845189,-0.3021135628223419,0.1928750127553939,0.0166301485151052
1761133507448430600,-0.1145815610129386,-2.640838917943835,-4.912459323570132,0.4092170298099518,-0.1828072667121887,-0.1718457639217376
1761133507468277800,0.1427327562747523,-2.1279683060169217,-5.780803415578603,0.953509509563446,-0.2784269750118255,-0.3755717575550079
1761133507488124700,0.4031763845641166,-1.2694321990564466,-8.223356141927837,0.7708096504211426,-0.1305925846099853,-0.5804188251495361
1761133507507971600,0.0350175008347257,0.2704025295827537,-9.936149655616283,0.0161610022187232,0.1932298988103866,-0.3880023062229156
1761133507527817500,-1.5075668553061785,1.146432499918714,-8.572716107565164,-0.8105757832527161,0.677670419216156,0.2128866910934448
1761133507547664600,-0.922895328015834,-0.1244263709399849,-1.1090081206053497,-0.9586420059204102,0.6341904997825623,0.5416629910469055
1761133507567511600,-2.5261153911769387,0.1818382205428555,4.879073186796903,-1.4098494052886963,1.1891837120056152,0.979775071144104
1761133507587358700,-2.4926149803742765,-3.4985970262691377,13.130018177396058,-1.2896114587783811,0.7764714360237122,0.6140026450157166
1761133507607205600,-1.749568562247604,-3.0532392771229144,16.598265950369832,-1.3643357753753662,-0.4712305068969726,0.246782973408699
1761133507627052500,-0.4536178471650928,1.164978868021816,13.383302033591267,-1.4078805446624756,-0.7822787761688232,-0.1269729137420654
1761133507646898400,2.6487314247593283,1.9742349573761224,12.243247032815216,-1.0536868572235107,-0.5084653496742249,-0.5845561623573303
1761133507666745600,3.5339722910329696,3.5853070492118597,10.902772335547208,-0.4978006482124328,-0.0328812375664711,-0.8749938011169434
1761133507686592500,2.6573104525342583,4.864863459658623,7.764686491265892,-0.2962844669818878,0.4906403124332428,-0.5421977639198303
1761133507706439400,0.9423710859235376,5.031819277966022,5.953689208456874,-0.1603751480579376,0.6119728088378906,0.2530959248542785
1761133507726286600,-0.2783721202224493,3.455758586017787,4.184555383387208,-0.0036929342895746,0.4491548240184784,0.6686873435974121
1761133507746132700,-0.6776450676072389,1.3979725081212817,1.843797144126892,-0.1153391674160957,0.0950821489095687,0.5535768270492554
1761133507765979600,-0.9722118782401084,-0.0324684374064207,-0.5238035093516111,-0.1570155769586563,-0.4359511137008667,0.3163883090019226
1761133507785826600,-1.3904660780139266,-0.3933791401058435,-2.7128280493557453,-0.1329542100429535,-0.7999215126037598,0.1468288302421569
1761133507805673500,-1.1637827901050448,-0.4661070341210812,-4.796203180408478,-0.1407355219125747,-0.7588704228401184,-0.012645686045289
1761133507825520600,-0.4984410680254921,-0.3850825094688683,-6.02025689934194,-0.26010662317276,-0.3909722566604614,-0.0551869869232177
1761133507845367600,-0.4230219986975193,-0.5671181888125837,-5.9324488520294425,-0.4595347046852112,-0.0207346826791763,0.0190690588206052
1761133507865213700,-0.088002802699618,-1.1923154954977333,-4.937757430955768,-0.5979917645454407,0.0845837295055389,0.116612821817398
1761133507885060600,0.078669997415319,-1.6869824883446096,-3.3367075514405964,-0.4440019726753235,-0.0510025434195995,0.1308484673500061
1761133507904907800,0.044956893710047,-2.0866504994615918,-1.943064743086696,-0.0458513274788856,-0.1940408945083618,0.0482111684978008
1761133507924754700,-0.4392013819409534,-1.4334085631616411,-1.6265806266129017,0.3141613900661468,-0.1382078677415847,0.1031576991081237
1761133507944601600,-0.7178254676304757,-0.4090557249262929,-2.385562426626682,0.4900873005390167,0.0434925071895122,0.2076973021030426
1761133507964447500,-0.4085366694882512,-0.1602032022420317,-3.195459590363502,0.5026102662086487,0.2071412503719329,0.2489734888076782
1761133507984294700,-0.0721379287654534,-0.4064694347601383,-3.633259471476078,0.3769048452377319,0.1694352179765701,0.2513114511966705
1761133508004140500,0.1171813682477921,-0.559611247248575,-3.834021113273501,0.0733433738350868,-0.0250077582895755,0.2564251124858856
1761133508023987500,0.0731210945839062,-0.4435892781689762,-3.628031507694721,-0.2134552299976349,-0.1920245289802551,0.2766458094120025
1761133508043833600,0.1632272993035614,-0.0442206883899867,-2.9208745874643323,-0.380935400724411,-0.1785738170146942,0.2639716565608978
1761133508063680800,0.490100817442499,0.8255005371905862,-1.3092699961870908,-0.5097857117652893,-0.0924550518393516,0.2743846476078033
1761133508083527700,0.4251230626299977,0.5504447019092739,2.621834357744455,-0.6197494864463806,-0.0625872611999511,0.4281562268733978
1761133508103374600,1.308685035905987,-1.3770020546764137,9.80536112923324,-0.6232550740242004,0.1175512298941612,0.6371220946311951
1761133508123221800,2.336435699886084,-2.0791449461370703,18.048789752852915,0.1083571165800094,-0.0440526269376277,0.500209629535675
1761133508143068700,1.1249133996151388,-0.7081653666205704,19.83524062342644,0.8606578707695007,0.1167552769184112,0.2958279252052307
1761133508162914600,0.1797397138936445,1.2486112370848654,18.47855128893852,1.2479839324951172,0.2739867568016052,0.0765788406133651
1761133508182761700,-0.2067906928285956,1.1841545470044017,15.38066944475174,1.2495334148406982,0.2511940002441406,0.0401156060397625
1761133508202608400,0.4846406888730823,-0.3988612247787416,12.069586748433112,1.03050434589386,0.0400969460606575,0.2496538609266281
1761133508222455300,0.6534279603913427,-1.713649253734946,8.29095785203576,0.9427226781845092,-0.3249653279781341,0.2520724833011627
1761133508242302500,0.4216261969575658,-2.332446484119445,3.145512779411673,0.9827572703361512,-0.5960837602615356,-0.1444848179817199
1761133508262148400,0.8118526817187667,-1.8229865574188528,-2.976043516978621,1.0082801580429075,-0.577383816242218,-0.6169773936271667
1761133508281995300,1.2686334498941898,-1.405646403750032,-8.33747118140757,0.8067498207092285,-0.658964991569519,-0.9291605353355408
1761133508301842400,0.952844622208178,-0.8625620745409279,-12.094583242523669,0.5105483531951904,-0.8050596117973328,-1.0299785137176514
1761133508321689300,0.6621265228927135,0.4426437044145539,-14.637813434630631,0.2134414166212082,-0.6705767512321472,-0.9663059115409852
1761133508341536300,-0.5725883638519793,1.6120669480919838,-15.88076766886711,0.0126168671995401,-0.2942814528942108,-0.6492642760276794
1761133508361382100,-2.837876570782065,2.7064862791135904,-15.834325066643952,-0.2354169338941574,-0.0717488601803779,-0.1322086602449417
1761133508381229300,-3.580565992164612,0.7621816920336335,-12.953998762667178,-0.5744024515151978,-0.0340434052050113,0.1038922071456909
1761133508401077200,-3.3030911130428318,-1.229812282460183,-8.078977481609583,-0.622414767742157,-0.0288719050586223,0.2893131077289581
1761133508420924400,-2.712591902512312,-1.805918372109532,-3.998738797265291,-0.2026236951351165,-0.1755723357200622,0.3806455731391907
1761133508440771300,-1.6997678817681967,-2.246477781063318,-3.0695483146280047,0.5328478813171387,-0.2457073181867599,0.2242607176303863
1761133508460618200,-0.6592723025053739,-2.1885946241542698,-4.60406557457149,1.0270497798919678,-0.1086472272872924,-0.181410402059555
1761133508480465400,-0.1804110007513314,-1.3346993287369608,-7.150030744600295,1.1720024347305298,0.0928553566336631,-0.5083025097846985
1761133508500311300,0.0883693344570696,-0.5638291572045534,-8.951502658694983,1.0728118419647217,0.1856170147657394,-0.658231258392334
1761133508520158200,0.096139968458563,0.3627536271523684,-9.801980254623292,0.7116107940673828,0.3335177600383758,-0.5886538624763489
1761133508540005400,-1.3499078576542436,1.6105600506603717,-10.319188018971682,0.2579684853553772,0.7220732569694519,-0.1254117786884308
1761133508559852300,-2.2490859177350995,0.3561543750178069,-6.829619225549697,-0.0800127610564231,1.1709208488464355,0.6031899452209473
1761133508579699200,-1.7570308609522878,-1.8764158036589624,3.426788219860196,0.0132203102111816,1.14824116230011,0.8329764008522034
1761133508599546400,0.0866794816739857,-2.2865565473429856,9.925102191901209,0.2837289571762085,0.7900554537773132,0.5533173084259033
1761133508619392500,-2.816768316301703,-3.588185234996676,10.222801528406142,-0.6515915393829346,-0.0652261525392532,0.7211532592773438
1761133508639239400,-0.1868561583027243,-0.8044809108417481,10.13419970036745,-2.097996473312378,-0.0032341287005692,0.608467161655426
1761133508659086600,1.2837341345228257,0.7204129999056458,12.21373452260494,-1.9245190620422363,-0.2037499696016311,0.3742537498474121
1761133508678933500,3.9846754928603767,2.134594007766992,12.153192083358764,-1.2113758325576782,0.3846077919006347,-0.2974591553211212
1761133508698780400,3.1192548870831724,3.793862121364474,12.938057681691646,-0.2464440762996673,0.5583863258361816,-0.4331035315990448
1761133508718626300,1.361754508922994,4.675890747593343,10.13140334764719,0.0356522426009178,0.559821367263794,0.0628207027912139
1761133508738473500,0.1187825746330432,3.9357843284413216,5.6088142792791125,-0.1068356335163116,0.2393547296524047,0.2918390035629272
1761133508758320400,-0.4543969052461907,2.3794579722717404,2.1912913158923386,-0.4959397614002228,-0.2153280973434448,0.1822367310523986
1761133508778167300,-0.5413245164623484,0.6388020536676049,-0.4372556912332773,-1.0156080722808838,-0.3767361938953399,0.0667915195226669
1761133508798014500,-0.910273892982304,-0.6536424068596214,-2.0933716244101523,-1.1828057765960691,-0.3336265385150909,0.0787170529365539
1761133508817861400,-0.5980283639263362,-1.9413377731636168,-1.4329916529238222,-0.6125409603118896,-0.216669961810112,-0.0874547436833381
1761133508837707300,-0.0239788049479946,-2.597893802447617,-0.8084341054469346,0.2550411522388458,-0.3591010570526123,-0.4615460634231567
1761133508857554400,-0.4466656168743967,-1.668458697399497,-2.5964976719141006,0.5073086023330688,-0.3915227949619293,-0.4986800849437713
1761133508877401300,-0.5923177677271887,-0.4285929306976497,-5.041835060545802,0.1692788004875183,-0.3281735777854919,-0.4195181429386139
1761133508897248300,-0.2090327726669609,0.2600059309918433,-5.806716439992189,-0.1498281359672546,-0.3011336624622345,-0.2998325824737549
1761133508917095400,-0.1388945298187434,0.778503296759352,-5.540490684637427,-0.2070192396640777,-0.227425679564476,-0.0403962060809135
1761133508936941300,-0.3816598415438085,0.8172812826387583,-5.180940164375305,-0.2001405209302902,-0.053470991551876,0.2091900408267974
1761133508956788200,-0.4909249933069571,-0.0301106222338974,-4.316865420249104,-0.2349376231431961,0.1885560154914856,0.4407539069652557
1761133508976635400,-0.3556950504103675,-0.6964496482551098,-2.741748438891768,-0.1735590249300003,0.3364186584949493,0.534811794757843
1761133508996482300,-0.194993214463815,-1.2976787809841337,-1.573081676137447,-0.059999544173479,0.3294351100921631,0.4174103140830993
1761133509016329200,-0.3595231938637793,-1.270630468930304,-1.3478712372601032,0.0152875641360878,0.2606359720230102,0.2431130856275558
1761133509036175400,-0.6492920296303928,-0.7685621137857437,-1.626932508790493,0.1268393099308014,0.1766922026872635,0.1052614524960517
1761133509056022500,-0.5442365679841489,-0.3510110207799822,-1.9270400754809376,0.1957519501447677,0.0293115079402923,-0.0157434754073619
1761133509075869400,-0.1271216013733297,0.3611621932424604,-2.301056927990913,0.1266761571168899,-0.2106926888227462,-0.0736929327249527
1761133509095716400,-0.0542902469836175,0.8408143531132489,-2.379357726767659,-0.2108775079250335,-0.3686266839504242,-0.0066178571432828
1761133509115563500,0.5802308048965409,0.412561687220633,-0.3284323284208774,-0.6657701730728149,-0.4212976098060608,0.1411044895648956
1761133509135410400,1.5795903273791074,-0.9758127522762864,5.1151569018661975,-0.5874013900756836,-0.1437180638313293,0.4260360300540924
1761133509155256300,2.3271986465938386,-2.512191495242715,13.269530692982674,0.4528611004352569,-0.0576175972819328,0.271596759557724
1761133509175103500,0.5085042699435726,-0.0829310158606618,14.784758730566502,0.8879702687263489,0.1128677129745483,-0.0014672393444925
1761133509194950400,0.2526322969513014,1.233866526287049,14.121072703272104,0.7982193231582642,0.2781997323036194,-0.0546636246144771
1761133509214798000,0.6907362390443682,0.5401353797430172,13.752956014716624,0.7957471013069153,0.072403609752655,-0.0216175056993961
1761133509234645000,0.0320213512260466,1.2704901836767792,12.026142743504046,0.4000053405761719,-0.3673253655433655,0.1124848648905754
1761133509254491100,-0.4393432015644386,0.9977804731301962,9.688189624792336,0.0845493525266647,-0.6371272802352905,0.0588209442794323
1761133509274338000,0.0745480221144855,-0.4688810288790613,7.98871678044796,0.2017379850149154,-0.6913871169090271,-0.213418036699295
1761133509294185000,0.4674703583635389,-1.2877727423891423,5.876244149726629,0.7339131832122803,-0.572242796421051,-0.4509733319282532
1761133509314032000,0.3299295081760734,-1.3792603549972176,0.9548878184735774,1.300711154937744,-0.4998699128627777,-0.5907959342002869
1761133509333879000,0.2214089277025312,-1.4103724093586203,-5.624935977518558,1.362539529800415,-0.3468915224075317,-0.6747022867202759
1761133509353725000,-0.2297008090991526,-1.3382180043824017,-10.695313826459646,0.9809067845344543,-0.2985587418079376,-0.5221798419952393
1761133509373571800,-1.116546699416637,-1.0508883784614502,-13.48393566020727,0.4729745388031006,-0.4050378203392029,-0.232845276594162
1761133509393419000,-2.162533423441648,-0.2723211130877956,-15.14457754637599,-0.0080126132816076,-0.439502477645874,0.0357840433716774
1761133509413266000,-2.9370936085984107,0.4665206929558887,-15.109803170114755,-0.2600079476833343,-0.2842594981193542,0.2673183977603912
1761133509433112800,-3.229040957447886,0.292315305379033,-13.793187487339972,-0.1997719854116439,0.0589236915111541,0.3377432227134704
1761133509452960000,-2.958578587436676,-0.4133762915391474,-11.79144317626953,-0.1492910981178283,0.4042473435401916,0.3099957704544067
1761133509472806000,-2.4622622199475765,-1.2238047126084566,-9.576030980077386,-0.1127530857920646,0.5079144239425659,0.2604895830154419
1761133509492652800,-1.7990210138112306,-2.0672291751548646,-8.14080762257874,0.0478201918303966,0.4810301065444946,0.221364751458168
1761133509512500000,-0.9347242974974216,-2.249620755264163,-7.429667185670137,0.1618166714906692,0.377441942691803,0.1202915087342262
1761133509532347000,-0.1082337263561785,-1.7408606473959982,-7.118750640195608,0.1208225786685943,0.1606472581624984,-0.0852820873260498
1761133509552193800,0.6419754960719496,-0.4557205915980041,-7.212381110051274,-0.1460931748151779,0.0025217325892299,-0.2922762334346771
1761133509572040200,-0.0412912838745862,1.3560378848418593,-7.336275785267353,-0.4497745037078857,0.0963441953063011,-0.1379950493574142
1761133509591887000,-0.7793428893886506,1.6304885938368736,-4.785397708755731,-0.601216733455658,0.309793621301651,0.2433484643697738
1761133509611734000,-0.0676855889990925,0.3158901691686361,1.1014338859587909,-0.9812108278274536,0.219639778137207,0.5380351543426514
1761133509631581200,-0.4454084564201533,-0.616141893570125,7.189445055621862,-0.9857617616653442,1.432775378227234,1.14448344707489
1761133509651428000,0.1285572967322543,-6.727279964059591,15.207898802685737,-0.3942017555236816,0.4754345715045929,0.2194562256336212
1761133509671274000,0.2410912410330027,-6.950622855499386,14.762203199887274,-0.6626096963882446,-0.8231000304222107,-0.388960063457489
1761133509691121000,0.9757635063070804,-0.6857493905425072,9.186838770267366,-1.080974578857422,-0.2641436755657196,-0.3340256512165069
1761133509710968000,1.6539865199327468,1.0100242339577523,7.674800468635558,-1.3150643110275269,0.4623176157474518,0.0397571139037609
1761133509730815000,2.2599606552317737,1.30733654390648,9.002109394860268,-1.2939079999923706,0.4193351864814758,0.0935159027576446
1761133509750662100,1.780573210711777,2.09268656475544,10.333596483552457,-0.8977141380310059,0.0460873134434223,0.3108565807342529
1761133509770508000,0.1367876206673681,2.615091313225031,7.954391316998004,-0.4771757125854492,0.1691767573356628,0.2994843423366546
1761133509790355000,-0.1156823618616908,2.068699247707426,6.17026041380465,-0.0083720302209258,0.070758931338787,0.0685552433133125
1761133509810201900,-0.3642086482662707,1.0947969321623443,3.605720307165384,0.1489623486995697,-0.261221170425415,-0.0119389006868004
1761133509830049000,-0.0725099038830027,0.0647301001943647,1.154483339101076,0.1487658023834228,-0.6025058627128601,-0.0434040240943431
1761133509849896000,-0.1620323904305696,-0.2039886410199105,-1.1246212848007675,0.1938043236732483,-0.7727161645889282,-0.0141407959163188
1761133509869742800,0.129971218650788,0.0516346179082989,-3.46630014603734,0.2056509405374527,-0.5836182236671448,-0.0427373796701431
1761133509889589000,0.4466301802348345,0.0617416589681059,-4.596296109613776,0.2266611605882644,-0.3090884685516357,-0.1279152631759643
1761133509909436000,0.3955425286848097,0.0861686826076358,-4.55251600459814,0.311842679977417,-0.1293350458145141,-0.244510143995285
1761133509929282800,-0.0288041427452117,0.1771734801348298,-3.655311728808284,0.2808526754379272,-0.1748474389314651,-0.2642667591571808
1761133509949130000,-0.4858970456097274,0.0628481589052826,-2.560714410871267,0.1669801771640777,-0.1946179419755935,-0.1045719906687736
1761133509968977000,-0.4964462774790823,-0.5696254954583942,-1.1525006408512593,0.1922393292188644,-0.1240512952208519,0.1336961090564727
1761133509988823000,-0.6665697660371661,-0.944584816450253,0.0848117881059646,0.4094955027103424,-0.0526697970926761,0.1818392872810363
1761133510008670200,-0.3525960980143398,-1.3469938699036836,0.4004711441934108,0.6026000380516052,0.0123538114130496,0.1058959364891052
1761133510028517000,-0.5682092719849199,-0.8738384516410529,-0.5008411514371633,0.5347416996955872,0.0652354285120964,0.1044504195451736
1761133510048364000,-0.4312298550724983,-0.4905781891632825,-1.4467881230860948,0.2375349253416061,0.0289045963436365,0.0439275205135345
1761133510068211200,-0.1637454048935324,-0.1094780273288488,-1.527352190619707,-0.0478129982948303,-0.054831963032484,-0.0170421190559864
1761133510088057000,0.3248844266809523,0.0365901204463094,-0.675775693538785,-0.0620554015040397,-0.0391208492219448,-0.0916962847113609
1761133510107904000,0.5901087499082088,0.277875715007633,0.1838888329297304,0.0731766670942306,0.0618847496807575,-0.1028063297271728
1761133510127751000,0.7439391291826963,0.6313470614865422,0.5591203219264745,0.2222694009542465,0.1806246191263198,-0.0557518303394317
1761133510147598000,0.7235064358763397,0.8677288827195763,0.4695908576488494,0.3109228610992431,0.2258152663707733,-0.0334333144128322
1761133510167445000,0.5042433610960841,0.8317968608558177,0.5209165557384491,0.3740577697753906,0.1335252672433853,-0.0589680708944797
1761133510187291000,0.1456143395930528,0.6776892720751464,0.7341261756986379,0.4732647538185119,0.0088020246475934,-0.0601073279976844
1761133510207137500,0.0332988238159567,0.7787557371504604,0.2666740836441517,0.5168699622154236,-0.01871526427567,-0.0733556672930717
1761133510226984400,-0.0578841798223555,0.7870943802982568,-0.4299176034301519,0.461089938879013,0.0005407170392572,-0.0878790467977523
1761133510246831600,-0.1993167767513543,0.6491213492386043,-0.845274766588211,0.3591823577880859,-0.0042535914108157,-0.1170304268598556
1761133510266678500,-0.2669001474849879,0.4227356925694271,-0.6563672287136316,0.3639538884162903,0.0080093136057257,-0.1436032503843307
1761133510286524400,-0.364003919474408,0.1531530919342767,-0.2566746676772832,0.4628314971923828,0.0239171609282493,-0.1176031827926635
1761133510306371600,-0.4222538638692349,-0.1363770488387905,0.1627548594862222,0.5001112222671509,0.0353997237980365,-0.0995021760463714
1761133510326218500,-0.2244896503221243,-0.1691385143750347,0.3070002488136291,0.504214346408844,-0.028929878026247,-0.082406610250473
1761133510346065400,-0.1370995361607521,-0.3285743672400713,0.5648790315836668,0.5811460018157959,-0.1246532946825027,-0.1212675049901008
1761133510365912600,-0.0617933160901069,-0.4211717311883345,0.4680225854188203,0.6728951334953308,-0.1250482499599456,-0.188066080212593
1761133510385758700,-0.0661138827029615,-0.386753219160065,0.2499509123802185,0.748714029788971,-0.0592891760170459,-0.1977037489414215
1761133510405605600,-0.0740575351838022,-0.2424160598959773,-0.0938075799882411,0.7565307021141052,0.068746730685234,-0.1378358602523803
1761133510425452800,-0.0284242035169154,-0.1392959502264857,-0.6538824261605739,0.6131910681724548,0.1590062379837036,-0.0926930904388427
1761133510445299700,0.0501263322371989,-0.0727777975715696,-0.9881722484380008,0.3659092485904693,0.1768313348293304,-0.0546217672526836
1761133510465146600,0.0212540196266025,-0.1142921496123075,-0.7287205172628164,0.2694302797317505,0.1742412894964218,-0.0559090599417686
1761133510484993800,0.1244166532635688,-0.2716748145408928,-0.0992769513100385,0.4477853178977966,0.1535193026065826,-0.0769960805773735
1761133510504839700,0.1505109525281935,-0.2145092313166707,-0.015595044016838,0.3906891644001007,0.1478616446256637,-0.0780990049242973
1761133510524686600,0.238736056208983,-0.0935099122159183,-0.1731535039037466,0.2627964317798614,0.0919296666979789,-0.0911173373460769
1761133510544533500,0.1825371991250663,0.091363840097934,-0.1642600033521652,0.0523934066295623,-0.0601047836244106,-0.073773093521595
1761133510564380700,0.1328070265986025,0.1283779581099748,0.0026402853757143,-0.1164654716849327,-0.2093155086040496,-0.1025993153452873
1761133510584227600,0.0628409254468977,0.1349991298153996,0.1721849511325359,-0.0203366633504629,-0.2230232805013656,-0.1260348260402679
1761133512837038600,0.1666310433324426,0.0822482212282717,-0.0076589903205633,0.034287229180336,-0.0274882540106773,-0.1338774412870407
1761133512856885500,0.0570315815810114,0.1326109195046126,-0.0703869569122791,0.0400237143039703,-0.0421569682657718,-0.0882510393857956
1761133512876732400,0.1023949372000992,0.2221265013873577,-0.2154711351513862,-0.0010295454412698,-0.0038307341746985,-0.0413447096943855
1761133512896579600,0.0672943246591836,0.2496919691830873,-0.2703039645791054,-0.0421763770282268,0.0486511550843715,-0.0033537622075527
1761133512916426500,0.0439585668550804,0.2226861810967326,-0.186901458749175,-0.0775564312934875,0.0452708750963211,0.0066785607486963
1761133512936272400,0.0295646057236939,0.186611389761418,0.0317523980915546,-0.0897679179906845,0.0256848093122243,-0.0125685613602399
1761133512956119600,-0.0005526654466986,0.1493060337178409,0.0895259571462869,-0.0668657794594764,0.0182894766330719,-0.0185738261789083
1761133512975966500,0.0202511992596089,0.1524257731735706,0.0412345121860504,-0.0201732255518436,0.0380193889141082,-0.0278113521635532
1761133512995813400,0.0108764179971069,0.1337228262692689,-0.1235708500891923,-0.0100494306534528,0.0434231758117675,-0.031638991087675
1761133513015660500,-0.0224083772934973,-0.0231637257054448,-0.0817360339224338,0.0199002027511596,0.0147349070757627,-0.095317855477333
1761133513035506400,-0.1094519795721396,-0.1154999179668724,0.0303437003374099,0.1137791574001312,-0.0323829017579555,-0.1395757496356964
1761133513055353300,-0.1246608007503673,-0.1254391281791031,0.1104495027095079,0.1730795800685882,-0.0611624978482723,-0.1075437515974044
1761133513075200500,0.0300008782491087,-0.1037023665368556,-0.0657762482464313,0.0787659585475921,-0.0520519725978374,-0.0504445880651474
1761133513095047400,0.1487633782085031,-0.0458539886802434,-0.2857721673458814,-0.0789344608783721,-0.0237156730145216,-0.021701356396079
1761133513114894300,0.1882674498727545,0.1123370700217783,-0.3215788092643022,-0.1350808292627334,0.0469405762851238,-0.016713822260499
1761133513134740500,0.2031750230820849,0.2504552086405456,-0.3614806115418672,-0.1261558681726455,0.0843574181199073,-0.03237309679389
1761133513154587400,0.2301953146178275,0.38750630254969,-0.4075333376646041,-0.1140575483441352,0.0789818540215492,-0.0526680424809455
1761133513174434300,0.2252293627735227,0.5135756914563476,-0.5232622420817613,-0.1684961915016174,0.0615525543689727,-0.0471126399934291
1761133513194281200,0.2179516268555074,0.4889207042798399,-0.6664999156713486,-0.2508686184883117,0.0518614649772644,-0.0369368344545364
1761133513214129000,0.2040440610015764,0.5158534271299838,-0.4857499652892351,-0.2537776529788971,-0.0119932275265455,-0.0249327290803194
1761133513233975300,0.1976249877395108,0.3944496919468045,-0.3834299930214881,-0.2258317470550537,0.0330772101879119,-0.0117770694196224
1761133513253822200,-0.0389222166556864,0.381832933088392,-0.5781961937963962,-0.1899447590112686,0.0688658654689788,-0.0022455679718405
1761133513273669000,0.0943482992688193,0.3536559092655778,-0.6553349630564451,-0.184035450220108,0.092599332332611,-0.024941274896264
1761133513293516000,-0.0108295101154595,0.2915836301036179,-1.157220070588589,-0.2570460438728332,0.1623188555240631,-0.0247492790222167
1761133513313363200,-0.0396744232624769,0.1713625288337469,-1.2023521747350692,-0.3375714123249054,0.1575429439544677,-0.0262681748718023
1761133513333210000,-0.1069596512997523,0.0430719567462801,-1.187197275701165,-0.3926761746406555,0.1176597997546196,-0.0244297552853822
1761133513353056000,-0.1095091348531655,-0.1306897421836853,-1.203186287471652,-0.3715877532958984,0.0758955478668212,-0.0173674691468477
1761133513372903200,-0.0547928262108936,-0.1408636379346251,-1.443689572548866,-0.294309139251709,0.0553511492908,0.0027344862464815
1761133513392750000,0.0340166532291099,-0.0969279039658606,-1.875791534280777,-0.2777247726917267,0.0377850569784641,-0.0135418213903903
1761133513412597200,0.1603667405069805,0.0282006969593465,-2.2083605241149664,-0.2932910025119781,0.0466104298830032,-0.0293051060289144
1761133513432444200,0.2425350648994557,-0.0042306963723152,-2.3812667752593755,-0.2461645305156707,0.091273732483387,-0.0357856377959251
1761133513452290000,0.1104466714316047,-0.0775738727416843,-2.3340993658930063,-0.1415546983480453,0.1608588695526123,-0.007512975949794
1761133513472137000,-0.1482898424126207,-0.2073703193474561,-2.4659546447247265,-0.0935050398111343,0.1875304579734802,0.0557282529771328
1761133513491984100,-0.426549661367014,-0.4020756567806005,-2.297213696566224,-0.0900168046355247,0.0839650109410286,0.1295021176338195
1761133513511831000,-0.6529715218607336,-0.570564968265593,-2.0242863977462053,-0.120151862502098,-0.0950627848505973,0.1874293833971023
1761133513531678000,-0.9340447177354246,-0.6485799358382821,-2.0029858355641363,-0.1866641044616699,-0.1614066958427429,0.2616551518440246
1761133513551524000,-0.9377529246035964,-0.7678709897164255,-1.847609395891428,-0.2908174097537994,-0.2123302370309829,0.3411102592945099
1761133513571371000,-0.709537312560901,-0.9002920126721262,-1.2198007376641034,-0.501327633857727,-0.3169853091239929,0.3838472962379455
1761133513591218000,-0.8434389294631779,-1.1057615398995575,0.9520727610528468,-0.3935763537883758,-0.1186478063464164,0.6463767290115356
1761133513611065000,-0.8149437796019017,-1.4835501660332082,7.09910778209269,0.3275453746318817,0.2049675434827804,1.0113835334777832
1761133513630912000,0.5423176922181621,-0.6825571703724562,12.613180415403844,0.785605788230896,0.1732038408517837,0.837949275970459
1761133513650758100,0.971880746589601,1.7096232130892577,13.266181382554768,0.326963871717453,0.3640836775302887,0.4867870509624481
1761133513670605000,1.7974663317151367,2.974787379437685,13.59136026213765,-0.4344828724861145,0.466132789850235,0.1651189178228378
1761133513690452200,2.0918498216703534,3.307210823321342,15.94094770454168,-0.8150313496589661,-0.0363005734980106,-0.0880927592515945
1761133513710299100,1.3896024469219148,2.582173670746386,16.774900282126666,-0.4720393121242523,-0.4514231979846954,-0.1656982898712158
1761133513730146000,0.5937651900565252,2.3995260700494048,13.812725716024636,0.3851509988307953,-0.350063681602478,-0.0576935894787311
1761133513749992200,0.6016437779445201,1.638015920601785,8.119753728634118,1.036052703857422,-0.3634825050830841,-0.1757526248693466
1761133513769839000,0.1062433927891775,0.6539929007977247,2.0796002886891363,1.1896543502807615,-0.9690441489219666,-0.4806771874427795
1761133513789686000,-0.7831825406167656,-0.4785742284409701,-3.4934009189307687,1.023603439331055,-1.3275792598724363,-0.6052054166793823
1761133513809533200,-0.8832563413929194,-1.90907114193961,-7.315340549266338,0.6093471646308899,-1.2237257957458496,-0.5211546421051025
1761133513829380000,-1.5281782661803065,-2.798761534968018,-9.500703059631585,0.38588947057724,-1.176888346672058,-0.401370495557785
1761133513849226000,-2.0999765756331383,-3.894603884530067,-11.19317099364996,0.2463801056146621,-1.1170963048934937,-0.3676395118236542
1761133513869073200,-2.542141812348365,-3.907682561811805,-12.416457235342264,0.1526746749877929,-0.9099031686782836,-0.3538905084133148
1761133513888920000,-3.020772301021218,-3.203533591225743,-12.90824706531763,0.1187359988689422,-0.5643715262413025,-0.1937350332736969
1761133513908767000,-3.3867867566004395,-2.0192408047944306,-12.751578832268716,-0.0345974117517471,0.0684926956892013,0.2422622442245483
1761133513928614100,-3.1477713719934224,-1.8609630907222627,-11.649410202294588,-0.3878436386585235,0.7078502774238586,0.7439848184585571
1761133513948461000,-2.2347775525279343,-2.5297563780277965,-9.505217906707523,-0.6647955179214478,1.030254364013672,1.0161324739456177
1761133513968307000,-1.6447683174714445,-2.705743059530854,-7.5909291762501,-0.6331045031547546,0.8692443370819092,0.9656060934066772
1761133513988154000,-1.5060273707792162,-2.1643131464652714,-6.757300423792004,-0.399187833070755,0.5194095373153687,0.6795592904090881
1761133514008001000,-0.6206576174288988,-1.3406700737096369,-6.506226060339808,-0.100623145699501,0.2793766856193542,0.1936862468719482
1761133514027848000,0.2564817754536867,-0.0042661330118775,-6.681900607153773,-0.022492317482829,0.2258969843387603,-0.1392809152603149
1761133514047695000,0.1394401810027659,1.035965534617752,-4.886250531080365,0.1668286919593811,0.9470118284225464,-0.007913407869637
1761133514067541200,0.7909720254492014,0.8707187121853232,2.0239374381780624,1.1603809595108032,2.1173524856567383,0.3020327687263489
1761133514087388200,0.7337250475518405,2.380634468705207,8.098035233300925,2.1053216457366943,3.4151597023010254,0.4572612941265106
1761133514107235000,-0.3157328231824561,-2.8389965147227048,11.968262216943502,2.5340981483459477,2.073127269744873,1.0845848321914673
1761133514127082000,-1.331656892301142,-5.33710570859909,5.828831825688481,-0.1154606863856315,0.3600548505783081,0.1573186367750167
1761133514146929200,2.761887848339975,1.3536435370512303,2.702221899667382,-3.0127623081207275,0.1291587650775909,-0.1453939378261566
1761133514166775000,0.0477498854294419,3.4041713143825527,7.576895390200614,-2.4230616092681885,-0.1767276972532272,-0.1099117249250412
1761133514186622200,2.9653038040384647,4.205534458529949,9.014698827320336,-1.4965909719467163,0.8860757350921631,-0.4856979846954345
1761133514206468900,0.9342365870457142,4.261486355115473,8.352840015453099,-1.1010427474975586,1.0898691415786743,-0.5025815963745117
1761133514226315800,0.0682722297806292,4.1118788542330265,7.11626583764255,-1.40046489238739,0.3126284480094909,-0.0981738045811653
1761133514246162700,-0.80716751957722,3.3578006083518264,7.926250095140934,-1.0693670511245728,-0.4140258431434631,0.274601936340332
1761133514266008600,-1.76146080622375,2.4296476520687342,6.083977968624234,-0.1799314171075821,-0.747174084186554,0.2569602727890014
1761133514285855700,-0.8949606615815311,1.1961425064399838,2.4131430919915435,0.333950400352478,-0.675917387008667,-0.0984456166625022
1761133514305702700,-0.3146953698934987,-0.1751345947183668,-1.3117770105719566,0.5812489986419678,-0.4766335785388946,-0.2923072874546051
1761133514325549800,-0.422871849637106,-0.7547538801204413,-3.838351835954189,0.7842784523963928,-0.4329754114151001,-0.27445849776268
1761133514345396700,-0.1582554291751235,-1.2996303534433244,-5.908968607720732,0.7056317925453186,-0.3551715612411499,-0.2349132001399994
1761133514365242600,-0.0761735409570857,-1.5874126915678382,-6.914016587635874,0.3538370430469513,-0.1539918035268783,-0.1726853549480438
1761133514385089500,-0.0052704512162134,-1.454381208563596,-6.346224883475899,0.0225667171180248,0.026939895004034,-0.1417605578899383
1761133514404936700,-0.5232658588109538,-1.377529731812328,-4.523526056957245,0.1218285486102104,0.2044275254011154,0.0116114802658557
1761133514424783600,-0.928130671386048,-1.4448163846217097,-2.758695482039452,0.4944454729557037,0.3846341073513031,0.2225351631641388
1761133514444630500,-0.7539591495461762,-1.2728911073386668,-2.627666717159748,0.6791728734970093,0.4463070333003998,0.3316957056522369
1761133514464477000,-0.1593120620885864,-1.050703231152892,-3.429989646250009,0.3595456182956695,0.2755373120307922,0.276256263256073
1761133514484323800,0.1188965016026049,-1.0054200280979275,-4.226673692670464,-0.4991298019886017,0.088224396109581,0.0969107896089553
1761133514504170800,0.2799024715948849,-0.9992119672380388,-3.682775489795208,-1.3263970613479614,-0.1285087168216705,-0.0424442216753959
1761133514524018000,0.9782187174394726,-1.100170734155178,-1.860147390425205,-1.527625560760498,-0.3157435357570648,-0.096882127225399
1761133514543864800,1.0755625087298453,-1.2626944152340291,-0.4615145186990499,-1.1629029512405396,-0.4497124254703522,-0.1366773843765258
1761133514563710700,0.5200643593559041,-0.8764848014313728,-0.8697504516750574,-0.633708655834198,-0.5578247308731079,-0.2257556766271591
1761133514583558000,0.4136591636011377,0.278325595933292,-2.80465176205039,-0.4549748003482818,-0.4424156248569488,-0.3258516788482666
1761133514603404800,0.4372334794014692,1.3503556014217435,-4.231098523375391,-0.8100990056991577,0.1030149832367897,-0.3180336952209472
1761133514623251700,0.5895364299129694,1.6818246671900152,-1.8336054204583168,-1.0232346057891846,0.5562551021575928,-0.3703378438949585
1761133514643099000,-0.7348224143344908,1.3594602605059742,3.5299627631306647,-0.6974657773971558,0.3422811627388,-0.3829344809055328
1761133514662944800,-1.9984614900074895,0.9355692238889634,8.186074751281739,0.008315603248775,-0.0029358002357184,-0.2356664389371872
1761133514682791700,-0.3903675737323239,0.1950200659381225,10.891361299216747,0.5986196398735046,0.3163761496543884,-0.0845718830823898
1761133514702638600,0.671296648428589,-0.4883191581901162,11.692326968479156,0.9127865433692932,0.6115615963935852,0.0832834616303443
1761133514722485800,-0.0964618938893079,-0.3715575131917372,12.953296167355775,0.6134584546089172,0.9077414870262146,0.1817633807659149
1761133514742332700,-0.6054696929082274,0.5889178596232086,15.167938548219205,0.1251326650381088,0.9532339572906494,0.0433258637785911
1761133514762178600,-1.205366188794002,0.5936040812106803,17.039240954387186,0.3464120626449585,0.6557843685150146,-0.2377237826585769
1761133514782025700,-0.8598675747599452,0.1723845470915548,16.782472178685666,1.0526373386383057,0.1755882799625396,-0.626610279083252
1761133514801872600,-0.3547763646628707,-0.1886552070813253,11.886701539587976,1.3031872510910034,0.3956272006034851,-0.603428304195404
1761133514821719600,0.2160219009019434,-0.7328261259507387,6.645833268472552,1.311153531074524,0.2575429379940033,-0.445742130279541
1761133514841566700,0.5474640786632895,-1.3170572890624404,1.0048124175935984,1.1673705577850342,-0.2735249996185303,-0.4783967733383178
1761133514861412900,0.2834361986789852,-1.4193506655842063,-4.587686102178693,0.9728282690048218,-0.7445718050003052,-0.5453253984451294
1761133514881259800,0.2463434624727815,-1.9925114955618977,-8.979998685339092,0.8976848721504211,-1.0206551551818848,-0.7195260524749756
1761133514901107000,0.4063169476121663,-1.758825781545043,-11.641085441541671,1.0469743013381958,-1.1015491485595703,-0.943118453025818
1761133514920953900,0.5848536058589816,-1.268885817220062,-13.450707928866148,1.0985971689224243,-1.0371557474136353,-1.0724835395812988
1761133514940800800,0.7341554017931222,-0.5647596429876983,-14.644542450624703,0.7813416719436646,-0.8566577434539795,-0.9316573143005372
1761133514960646700,0.120864367609471,-0.4129476177982986,-15.043989512467384,0.3485874235630035,-0.7498230338096619,-0.4521977007389068
1761133514980493800,-0.8393792788088321,-0.6047118602782487,-14.634783273154495,-0.010811511427164,-0.4350318908691406,0.1041728630661964
1761133515000340700,-1.1967474865958094,-1.3141720890149473,-13.621361432647705,-0.4002000987529754,-0.4191561043262481,0.3317519128322601
1761133515020187600,-1.327265817735344,-2.217027522434294,-10.88533137140274,-0.9305143356323242,-0.7740679979324341,0.2780351340770721
1761133515040034800,-1.4040354614220558,-2.606059865507483,-9.017482905080914,-1.3101544380187988,-0.9485348463058472,0.2215791493654251
1761133515059880700,-1.3574530123367905,-2.597255504544079,-7.293510410252213,-1.2401387691497805,-0.9762438535690308,0.1514862775802612
1761133515079727600,-1.3031116196878254,-2.649130945470929,-5.787303298991918,-0.746614396572113,-0.93704491853714,0.052682664245367
1761133515099574800,-0.1140506690066307,-2.275177659716457,-4.636372683936357,-0.318589836359024,-0.8779101967811584,-0.2077796757221222
1761133515119421700,0.3673099022172391,-1.2129207688920198,-4.195487696290016,-0.4025121033191681,-0.4633428752422333,-0.3741333782672882
1761133515139268600,0.6236440128285438,0.3828414525438099,-2.3072242184489964,-0.735403299331665,0.2558545470237732,-0.1639524102210998
1761133515159114800,2.45564513989538,1.6540429262951015,4.134280655655265,-0.3272448480129242,1.6297730207443235,0.6183244585990906
1761133515178961700,-0.6901769977264106,0.9841625013399868,10.42251161532402,1.2381547689437866,1.6029155254364014,1.8429350852966309
1761133515198808600,-2.4751681710109112,-6.369242770969867,9.25490283719003,0.054587222635746,0.6142919063568115,0.7560099363327026
1761133515218655200,-0.0474055472374893,-0.2280074491847306,6.676477997583151,-2.475393295288086,-0.6691668033599854,-0.0274667963385581
1761133515238502100,-0.82471720479317,-0.6749637195687741,10.495672713124751,-1.652764916419983,-0.755477249622345,0.1517300903797149
1761133515258349300,1.679617950925976,-0.1286679905651137,11.15088901823759,-0.966324508190155,0.3706702589988708,0.1834977120161056
1761133515278195500,0.5291667168851941,0.7941436412226408,9.847648365342616,-0.8072274327278137,-0.0261232331395149,0.0168351810425519
1761133515298042400,0.1847685383737087,2.0326362929403783,7.530052390483021,-1.1653567552566528,-0.1537199765443802,0.3597869873046875
1761133515317889300,0.1248904447877779,1.851253597612679,6.422378148829937,-1.1572109460830688,-0.114077053964138,0.6052229404449463
1761133515337736400,-0.8658664498485624,1.5501393380977213,5.969578851506114,-0.7840777039527893,-0.1889492869377136,0.6479285955429077
1761133515357583400,-1.1467943920336665,0.6459907230626791,4.816643910890817,-0.259579598903656,-0.4555038213729858,0.4471305906772613
1761133515377429200,-0.9636083736110478,-0.3798972888506948,2.101994491326809,0.17439004778862,-0.5952063798904419,0.2891032099723816
1761133515397276400,-0.2996700155233964,-0.6331264922492206,-1.6647475679218768,0.4027784466743469,-0.4576716125011444,0.1557484120130539
1761133515417123300,0.5470976565036922,-0.0785176563978195,-5.223149074551463,0.3599556386470794,-0.140384629368782,-0.0125048998743295
1761133515436970200,0.7044236958742142,0.6602784838732332,-7.203128128537535,0.0373882539570331,-0.0257651265710592,-0.1331073194742202
1761133515456817400,0.4492539528671652,0.8880361960805953,-7.505079861789941,-0.4220078885555267,-0.0585183054208755,-0.1850900799036026
1761133515476663300,0.5730880570024252,0.7989537449181079,-5.659475960502028,-0.6031225323677063,-0.3429117202758789,-0.2416788339614868
1761133515496510200,0.7827091509513556,-0.173464542614296,-2.419846389022469,-0.5718637704849243,-0.5814130902290344,-0.2499601244926452
1761133515516357400,-0.3416995870772749,-0.219630958244577,-0.157475457778573,-0.3561911582946777,-0.4053260087966919,0.0901206508278846
1761133515536204300,-1.3309749013863503,0.4752080399435013,0.4436427619218826,0.1303153783082962,0.2205159664154052,0.5017865896224976
1761133515556050200,-0.4597015509929508,-0.2530903063844889,0.3303834624886512,0.865862250328064,0.6491065621376038,0.5899479389190674
1761133515575897300,-0.2674848155051469,-1.037633248634264,-1.2556214081078767,0.969365656375885,0.6672893166542053,0.4256171584129333
1761133515595744300,-0.087750508438982,-0.7480159501675516,-3.309413886323571,0.2015142142772674,0.5446295738220215,0.2855474054813385
1761133515615591200,0.349139125960879,-0.0958651701051741,-3.613676819127798,-0.6632078289985657,0.3680377006530761,0.2331069111824035
1761133515635438000,0.6185513658646494,0.0488463754292577,-2.1652374217033383,-1.0193225145339966,0.2238782048225402,0.2051268219947815
1761133515655285200,0.7218823418058454,-0.0154644764397293,-0.2894423802912235,-0.8386151194572449,0.1012388095259666,0.1771179437637329
1761133515675131400,0.3747724566502496,0.2794445717595517,0.7041174064040183,-0.3404801189899444,0.0503593236207962,0.1495353281497955
1761133515694978300,-0.1155537305133417,0.8448862056620419,0.3220411660790443,0.1266996562480926,0.0690509304404258,0.1028864979743957
1761133515714825500,-0.2015063957501202,1.0813066053397953,-0.9561889642000198,0.358765035867691,0.0244947914034128,-0.0248352698981761
1761133515734672400,-0.0267954332713037,1.031116341020912,-2.166151029416919,0.2926988303661346,-0.1980013251304626,-0.1990505456924438
1761133515754519300,0.0008805091615766,0.9771415897272526,-2.828914096647501,0.0878738611936569,-0.2377929389476776,-0.2291335016489029
1761133515774365400,0.1310372039144858,1.0693757098536938,-2.004710175138712,0.0920134261250495,-0.1364533752202987,-0.1249918490648269
1761133515794212400,-0.1588698712790384,1.1658764744486658,-1.0136398671716451,0.0871744751930236,-0.0270562283694744,-0.0289589203894138
1761133515814059300,-0.189829986481741,0.8460162326052785,0.8159276760727167,0.1082587018609047,0.0241859219968318,-0.0462224893271923
1761133515833906400,0.0157788761511445,-0.0532769782878458,3.529576978683472,0.407221257686615,0.0489498861134052,-0.0880903676152229
1761133515853753300,0.0374985405281186,-1.4754671050816774,6.053577569663524,0.7758861184120178,-0.0448663532733917,-0.0240908786654472
1761133515873599200,0.401682456211932,-2.2676710834786293,8.235332410925626,0.8912876844406128,-0.0234101228415966,0.1286074817180633
1761133515893446100,1.4143658629089593,-2.593193954193592,10.572088428807255,0.818180501461029,0.1715412884950637,0.2433473318815231
1761133515913293300,1.176097935668379,-2.5386764743253587,12.197839034336804,0.8488872051239014,0.3239695131778717,0.4844718873500824
1761133515933140200,1.110603865364194,-2.0285990002483127,11.856014140379427,0.7029562592506409,0.2907986342906952,0.5631396174430847
1761133515952987400,0.7692540415726602,-1.5191674228593706,9.196580412080884,-0.0372164994478225,-0.2176377028226852,0.487761527299881
1761133515972833300,1.1164479152172804,-0.7142628797780722,6.948136883902549,-0.6344954371452332,-0.4808892607688904,0.2341079264879226
1761133515992680200,0.3918060090376064,-0.1648817885123193,6.030234687998891,-0.5779668688774109,-0.1625278890132904,-0.0856894999742508
1761133516012527000,-0.0751982296515256,-0.7909345429830252,4.77838753773272,0.1478723138570785,0.0618169829249382,-0.2650126814842224
1761133516032374300,-0.7086535885289311,-0.0204477812776342,1.7103882061123847,0.9699777364730836,-0.2349624633789062,-0.4896192252635956
1761133516052221200,-0.4331427394891157,0.8876903052523731,-4.213006986367702,1.1155606508255005,-0.4704412817955017,-0.7667001485824585
1761133516072067300,0.4939693659715354,1.1622408944252878,-9.0407264180243,0.8064175844192505,-0.5191534161567688,-0.8642716407775879
1761133516091914500,-0.3265560862202197,1.5970581795305012,-11.60436577643156,0.5721204876899719,-0.4425063133239746,-0.6779593825340271
1761133516111761400,-1.3857891722440718,2.037164876280725,-12.774010444307326,0.6425661444664001,-0.3623798489570617,-0.2906688749790191
1761133516131608300,-1.7006703835658727,1.5148019211262465,-13.179930501556395,0.732905387878418,-0.5105168223381042,-0.0042490549385547
1761133516151455500,-1.8944293069943785,0.5185054029434919,-13.452504749155043,0.5884886980056763,-0.5931932330131531,0.168352410197258
1761133516171301400,-1.8687635353401304,-0.7483473010137677,-12.60945467287898,0.2045122683048248,-0.3645582795143127,0.2450917810201645
1761133516191148300,-1.910396399194002,-2.0547414495036005,-11.066766965961456,-0.1210004985332489,-0.0611318759620189,0.2884708642959595
1761133516210995000,-1.755237109403312,-2.4905481109723446,-9.119612907734512,-0.0770396292209625,0.3074480593204498,0.3112652897834778
1761133516230842000,-1.7491015292577443,-1.8991018288500603,-7.878460169962048,0.0841749384999275,0.7405781149864197,0.2625177800655365
1761133516250689000,-1.0210411564040929,-1.1087807415902613,-7.635025507608056,0.1757698357105255,0.9281418919563292,0.0847781375050544
1761133516270535000,0.361433411399275,-0.0822162917200475,-7.174876432043313,-0.0249435827136039,0.8151023983955383,-0.0866885855793953
1761133516290382000,0.8735878378808498,1.058290690607205,-6.7712132138103245,-0.8396958708763123,0.9991682171821594,0.0725207552313804
1761133516310229000,0.2695456570250913,0.3359208210127428,-2.4971301197111604,-1.836924910545349,1.1937942504882812,0.4143966436386108
1761133516330076000,-0.5870366489864886,-1.611760220230371,6.943281845086813,-1.124751329421997,1.6911604404449463,0.4888763427734375
1761133516349923000,-0.7677402029436081,-4.143856000991166,13.450520881861449,0.9110227227211,1.9806973934173584,0.1322066038846969
1761133516369769200,-5.513613199105858,-6.674514004033804,9.818972890478372,1.637237787246704,-0.5440970659255981,0.2494470030069351
1761133516389616000,-1.0168363251253962,-1.667913338476419,3.054457128480077,-0.9065937995910645,-0.0098287984728813,0.0937963500618934
1761133516409463000,-0.8054792011640965,-1.4042169554688035,2.0726228508919475,-2.903238534927368,-0.6715105175971985,0.1320963352918625
1761133516429310200,2.4314260599181057,-0.4350411569889634,7.206913492295145,-3.5565314292907715,-0.1840734779834747,-0.0325499922037124
1761133516449157000,2.4668226597309117,-0.3785653095945716,12.936879285562036,-2.421719074249268,0.0013316329568624,-0.1961886286735534
1761133516469003000,0.3830849789761006,1.339098440478742,14.067947846806048,-0.9718157649040222,0.343956857919693,0.1780917048454284
1761133516488850200,0.4534686479527503,2.4221890066258607,11.239579693603517,0.0025035138241946,0.5845486521720886,0.1731858998537063
1761133516508697000,-0.3620661928774789,2.432467093403637,6.89748163242042,0.2552580833435058,0.4361711144447326,-0.0572343468666076
1761133516528544000,-0.2815354065589606,1.5112258162051435,3.2752105879485605,0.166189357638359,0.1872472018003463,-0.2245022505521774
1761133516548391200,-0.2665800121525302,1.0833167761184277,0.6997440136253833,0.1872642189264297,-0.2334278970956802,-0.2053226828575134
1761133516568237000,-0.5310531151536851,0.890160933149606,-1.6866338210374117,0.2874596714973449,-0.6537102460861206,-0.0877417027950286
1761133516588084000,-0.2153819407642818,0.6502776796668768,-3.860436826512217,0.2278191894292831,-0.8909344673156738,-0.0494807213544845
1761133516607931100,0.3481082850757986,0.5218048828803002,-5.367269376194477,-0.1380113363265991,-0.8616472482681274,-0.0849713683128357
1761133516627778000,0.6039045259507373,0.1431244224734604,-4.5882238623172045,-0.4242918789386749,-0.6089503169059753,-0.1309230327606201
1761133516647625000,0.5660050399389117,-0.5026614987321197,-2.0815356406658885,-0.3270553052425384,-0.5380062460899353,-0.1975980699062347
1761133516667471000,0.2131908056618645,-1.1130595879532397,-0.4802238953441381,-0.1420937329530716,-0.4499504268169403,-0.2801053524017334
1761133516687318000,-0.1345053184164688,-0.3460392967820167,0.8242682189166546,0.4070201516151428,-0.3770691156387329,-0.2323933690786361
1761133516707165000,0.098797460697405,-0.595798485982418,-0.6335112537831068,0.7875772714614868,-0.0203969925642013,-0.1744820177555084
1761133516727012000,-0.3637654345434158,-0.0860924755662679,-1.6920231128603218,0.9315022230148317,0.1724035590887069,-0.1321951150894165
1761133516746859000,-0.5813061790430918,0.4527307621322572,-3.0847523135006427,0.6084291338920593,0.2039296776056289,-0.0975950956344604
1761133516766704000,-0.3682153266243636,1.1057811213828623,-3.8938895987808704,0.0669738128781318,0.2976636290550232,-0.0386696755886077
1761133516786551000,0.1562533869040198,1.5500822010830044,-3.870283097743988,-0.3837469816207886,0.2756954729557037,-0.0549300834536552
1761133516806398200,0.5384998509630561,1.7316649490274487,-3.3091128575503825,-0.6995157599449158,0.189199760556221,-0.0978222116827964
1761133516826244000,0.6913895153213292,2.0557063490130005,-3.018534751227498,-0.7999901175498962,0.0807882770895958,-0.1493409425020218
1761133516846091000,0.8328285419911146,2.679327638553082,-3.059028674179316,-0.7270033359527588,0.0003961126785725,-0.2427489608526229
1761133516865938000,0.9343573638811709,3.2296757482200857,-3.117212567600608,-0.6041285991668701,-0.039686057716608,-0.3287504017353058
1761133516885785000,0.6813261672727763,3.3079549196869134,-2.8807115039020776,-0.560109555721283,-0.1896484494209289,-0.357705682516098
1761133516905632000,0.5701669088587165,3.0669211809948087,-1.0799451077282427,-0.3279598951339721,-0.2280321270227432,-0.3237253129482269
1761133516925478000,0.4257700552966445,2.870317535659671,2.920317538103461,0.2296960055828094,-0.1530009061098098,-0.1232382729649543
1761133516945325000,-0.1133971004687249,1.7386169601224362,7.146378651833534,0.7257910370826721,0.0666839629411697,0.1568818241357803
1761133516965172000,-0.0448438617896288,-1.0283623661376535,13.684814790904522,0.9128892421722412,-0.1730876117944717,0.0734242051839828
1761133516985019000,0.3491644795978442,-4.3090801732003685,20.928076776909823,1.7345367670059204,-0.6583114266395569,-0.1505167633295059
1761133517004866000,0.4192947583353146,-6.942443640697002,22.869996441614628,3.5028884410858154,-0.5006136298179626,-0.2240759581327438
1761133517024712200,0.0057351095858961,-8.359233515882492,16.495148105722667,4.356596946716309,-0.1752272695302963,-0.1525463908910751
1761133517044559000,0.0241682265728712,-7.064487135088443,7.61804573123455,2.7741286754608154,0.3556120097637176,-0.2376590222120285
1761133517064406300,-0.359430912470445,-6.807130914887786,3.539638353970646,1.8215487003326416,0.0612940341234207,-0.3648008406162262
1761133517084253200,-1.7353268325358628,-4.1651410733431575,1.6845494159787893,1.475664496421814,-0.6907749772071838,-0.5857261419296265
1761133517104100000,-2.295966034592688,-1.8080629829227923,-2.055826614391804,0.9491315484046936,-0.9808517694473268,-0.748546838760376
1761133517123946000,-0.9227287392772734,-0.663828358374536,-4.2296249436914914,0.7590137720108032,-0.971638560295105,-0.8783916234970093
1761133517143795000,0.0475515863783657,0.2065067613206803,-6.740726305609941,0.3535054326057434,-0.4391416013240814,-0.8013940453529358
1761133517163641000,0.5268582938123494,0.5127826413825154,-8.180536990898847,0.0121535565704107,-0.0800097808241844,-0.4516350626945495
1761133517183488300,0.2732853184774518,0.0965577554792165,-9.090760907259584,-0.1671047806739807,0.1021754145622253,-0.1491656750440597
1761133517203335200,0.2645882172808051,-1.315508744446188,-9.30415757422447,-0.1569426953792572,-0.1820465475320816,-0.1663759648799896
1761133517223182300,-0.4380133777327835,-2.382865881019085,-8.843122947996854,0.1123803630471229,-0.6229286193847656,-0.3440630137920379
1761133517243029500,-1.8927759868294,-2.3344196838885543,-9.432447854050992,0.4946141242980957,-0.8150190114974976,-0.4378931820392608
1761133517262875600,-2.8991511236950758,-2.383270077905804,-10.899362234842776,0.5597836971282959,-0.5754145979881287,-0.2701533734798431
1761133517282722600,-3.215637285995484,-2.5271920804977417,-12.082041740858552,0.389211893081665,-0.166535347700119,0.0746923834085464
1761133517302569500,-3.0827012261897324,-2.5399670986577867,-12.24521920967102,0.2621790170669555,0.2918102741241455,0.3650731444358825
1761133517322416600,-2.7263307972684503,-2.885698060142994,-12.418939115285871,0.0760428085923194,0.5807572603225708,0.4709019362926483
1761133517342263600,-2.4236507497414945,-2.515674661183357,-12.520098811602592,-0.2491233199834823,0.6606922745704651,0.3842135667800903
1761133517362109400,-1.4133511329084634,-1.662568324186653,-12.691242144727706,-0.7376152873039246,0.5425268411636353,0.0979673340916633
1761133517381956600,-0.4141930878147483,-0.3421254843391478,-13.210402796709536,-1.5939784049987793,0.4112023711204529,-0.221551164984703
1761133517401803500,-1.6600597023665904,0.8919108455568552,-13.28309043177962,-2.8653552532196045,0.9560492038726808,0.0374961569905281
1761133517421650400,-1.1114948228545487,0.97708109171167,-6.207457048776745,-3.8105759620666495,2.272456645965576,0.8822510838508606
1761133517441497600,-1.695150304970145,-3.202711461187899,6.674969346585869,-3.262637138366699,3.6342194080352783,2.4672505855560303
1761133517461343500,-1.5330509867832065,-10.135698414492609,18.80819123958349,-0.8137302994728088,1.1455645561218262,1.9629738330841064
1761133517481190400,5.303558243784308,-10.955890177750586,17.65621316130161,-1.311960220336914,0.6847428679466248,-0.906501054763794
1761133517501037600,-0.6595056728698313,-3.257343215085566,15.111052877914904,-2.120184421539306,-0.8067628741264343,-0.9791648387908936
1761133517520884500,-1.8156760882750151,3.773236974225938,11.802406468832492,-2.461657762527466,-0.1527421325445175,-0.0960556343197822
1761133517540731400,-1.5970441510051487,3.0697388687640426,12.307875280070304,-2.1743550300598145,0.04831999912858,0.1492333561182022
1761133517560577300,-0.3844177619498223,1.6314748283952474,12.753211986428498,-1.625396728515625,-0.2092388719320297,0.0833841413259506
1761133517580424400,-0.9852507349681108,2.543800685471296,11.68510110887885,-0.9468654990196228,-0.6073421239852905,0.0688227489590644
1761133517600271400,-1.026584981201589,2.6226231700345872,7.962872145095467,-0.3040784299373626,-0.5028861165046692,-0.0535346828401088
1761133517620118300,-0.4340368753172457,1.3671910008884969,3.9280022962629793,0.1506406962871551,-0.4335098564624786,-0.0303910914808511
1761133517639965400,-0.2543167063742876,0.6787946029685438,0.0143172791659832,0.2867635190486908,-0.6318618059158325,0.0203353688120841
1761133517659811600,-0.0085845761663047,0.237257581154257,-2.970479453110695,0.0636524409055709,-0.8567802309989929,-0.0718159526586532
1761133517679658500,-0.0516233293293043,0.1948812054567039,-5.042025614681839,-0.2955412268638611,-0.7514538764953613,-0.068129651248455
1761133517699505700,0.1225328488109633,0.3202855545833706,-5.177132004263997,-0.4654813408851623,-0.5254157185554504,0.0074126231484115
1761133517719352600,0.6357726228438317,0.1512947233170271,-4.346563223898411,-0.4227489531040191,-0.2242689877748489,0.0071617295034229
1761133517739199500,0.3570957840537652,-0.0264902397796511,-2.8261265117555854,-0.3278402686119079,-0.0546001866459846,0.0857262164354324
1761133517759045600,-0.2777046692896634,-0.1791279021382331,-1.3465858736246823,-0.2338421642780304,0.0834817364811897,0.2117487639188766
1761133517778892500,-0.218573229352571,-0.4154255522191524,-0.1115770454347133,-0.0272978693246841,0.2056403756141662,0.2230655401945114
1761133517798739500,-0.0222272851055488,-0.4599558910802006,0.6307078868001699,0.2306477129459381,0.3511943221092224,0.1878714710474014
1761133517818586600,-0.0308890775267966,-0.2382192657932638,0.5592191061258316,0.2841481566429138,0.4024171531200409,0.1533405184745788
1761133517838433500,0.0397522194727323,0.0953521790817379,0.3087029610782861,0.0777748376131057,0.2491496950387954,0.1130838319659233
1761133517858279400,0.3183648887190967,0.2583896549016237,0.5751432359665631,-0.0851471051573753,0.070512406527996,0.0367753580212593
1761133517878126300,0.5053401433568447,0.4387856772795319,1.2471382419228554,0.0230940040200948,-0.0357937924563884,-0.0215845201164484
1761133517897973500,0.5468342197945341,0.8443222881689667,1.1868915707528591,0.2850736081600189,-0.0536970943212509,-0.0083998078480362
1761133517917820400,0.6279627528104931,1.3061312597699462,0.2476028879493474,0.4228465557098388,0.009738927707076,0.0168726202100515
1761133517937667300,0.840698983105272,1.625112307626009,-0.6854711581230163,0.4100896716117859,0.1320392340421676,0.0282766539603471
1761133517957513500,0.8162985552117228,1.8004327803052962,-1.1010463479459285,0.4538919031620025,0.2703421413898468,0.0497881509363651
1761133517977360400,0.8192491486456245,1.7739622681394218,-1.542076881542802,0.5027526617050171,0.3616200387477875,0.0111045259982347
1761133517997207300,0.7265213267181069,1.8208806711807848,-2.171595850819349,0.4781336486339569,0.3634487688541412,-0.0815356522798538
1761133518017054500,0.3972948522448539,1.874793463154137,-2.569483992782235,0.4976820647716522,0.2767722904682159,-0.1645989716053009
1761133518036901400,0.544593235934712,1.452006149995327,-2.461968789958953,0.5633834004402161,0.0850738063454628,-0.272661417722702
1761133518056747500,0.3821647953912616,0.756715024125576,-1.7431868983864782,0.5411884188652039,-0.2196163237094879,-0.347232460975647
1761133518076594700,0.2415785678922198,-0.4454620863035321,-1.0547750106364489,0.0825702026486396,-0.7100653648376465,-0.3943657577037811
1761133518096441600,-0.8672029591493308,-1.7988345513284203,0.107301267811656,-0.7051252126693726,-1.5732390880584717,-0.542680561542511
1761133518116288500,-1.244649786107987,-2.425164369174838,3.037256987354159,-1.2399176359176636,-1.9775192737579343,-0.3729308247566223
1761133518136135700,-0.4219241204582154,-5.032354700016975,9.038011313846706,-0.5939679741859436,-1.4275699853897097,0.2280124872922897
1761133518155981600,1.0511165611941369,-6.848794466140866,13.187821547067164,0.5273695588111877,-0.5323925614356995,0.6584210991859436
1761133518175828500,2.18379190004766,-5.943420912420749,11.417606356501578,0.5083938241004944,0.5659181475639343,0.9468153715133668
1761133518195675400,1.89967685225904,-2.4623028442189097,8.926363541263342,-0.2930972576141357,1.0579392910003662,0.7553503513336182
1761133518215522600,1.509388371644914,-1.0011343136027455,9.67486544831693,-0.7578123807907104,0.3984577357769012,0.1475125253200531
1761133518235369500,-0.4550197498522698,-0.9051431059651076,10.40539213821888,-0.6261851787567139,-0.6323645114898682,-0.2459354400634765
1761133518255215400,0.1386914084620773,0.5419795097723603,8.07420602942407,0.0049851378425955,-0.8491345047950745,-0.4399057030677795
1761133518275062500,0.816810157995671,1.769027149824798,2.9752491517305373,0.8283191919326782,-0.3137508034706116,-0.5241427421569824
1761133518294909400,0.1812958938270807,2.9876439384013413,-1.3875491676539182,1.6131446361541748,0.2295853346586227,-0.5357487797737122
1761133518314756400,-0.6675596538573503,2.4322305081687867,-5.711835677814483,2.151039123535156,0.2498602867126464,-0.5838326811790466
1761133518334603500,-1.5875420170359311,1.049902290033549,-9.19736951663196,2.4222261905670166,0.1551745533943176,-0.6382324695587158
1761133518354449400,-1.7171936483435333,0.2865564495913684,-12.029044310164451,2.343371868133545,0.1192697510123252,-0.5952203869819641
1761133518374296300,-1.5047680183678864,-0.0473516433594748,-14.71668764938116,1.8312560319900515,0.3386085033416748,-0.4596439301967621
1761133518394143500,-1.0187168781749905,-0.6067746380269528,-16.271575497180223,1.0122358798980713,0.5109211802482605,-0.4156282842159271
1761133518413990400,-0.9982320893552152,-0.9237580823250114,-15.839014101243018,0.075683444738388,0.4350121021270752,-0.3107191324234009
1761133518433837300,-0.963397068947926,-1.5328367595106362,-14.101728535854816,-0.6565499305725098,0.2045836150646209,-0.1014260798692703
1761133518453683500,-0.8243472024369984,-1.9352396024189888,-12.037766545802354,-0.9480025768280028,-0.0146428346633911,0.0037148469127714
1761133518473530600,-0.7407743815414607,-2.091240457600355,-10.359605369555949,-0.7618513107299805,0.0862707197666168,0.0233542211353778
1761133518493377500,-0.8644340058926493,-1.329357383187115,-9.328878758504986,-0.3868335485458374,0.1484490633010864,0.0100431758910417
1761133518513224700,-0.6785800103697925,0.6631335810434072,-8.885247102499008,-0.4331169426441192,0.0264943502843379,-0.0835376381874084
1761133518533071600,-1.2504878446117045,2.5194264149323105,-9.08052475992739,-1.2045305967330933,0.0020477436482906,-0.0469197332859039
1761133518552917500,-1.3880708534404635,1.7291348460279403,-5.176378555548191,-2.584273338317871,-0.1708622723817825,0.0697078704833984
1761133518572764400,-1.2767629803359508,-1.563537018200755,5.98320113414526,-3.062795400619507,0.3530349433422088,0.7619352340698242
1761133518592611600,-2.2003385457009075,-7.4867036626219745,18.29650779161453,-1.2339953184127808,0.941166341304779,1.113056778907776
1761133518612458500,-0.2226002929115667,-9.323992740029096,22.222713267588613,0.42738938331604,0.1258711218833923,0.4512434005737304
1761133518632305400,1.295547906435281,-4.797639058430493,14.238844511693715,0.4420568943023681,-0.0869679376482963,-0.1529321670532226
1761133518652151600,2.881134113228321,-0.0836851221635937,6.040276189541816,-0.4873807430267334,0.6018869280815125,-0.2635976076126098
1761133518671998500,3.4598736201211806,0.8481488607197999,5.139000718790292,-1.3844552040100098,1.089757204055786,-0.4527916610240936
1761133518691845400,1.5047788320228457,1.50982500949651,8.653505216026305,-1.298051357269287,0.7778749465942383,-0.4569637477397918
1761133518711692500,-0.2844624729868024,1.493190977820754,10.071279426074028,-0.4431754648685455,0.2905778288841247,-0.0049445265904068
1761133518731538400,-0.6648277446754276,1.2284303265824914,7.419730313545465,-0.2024760991334915,0.2074608206748962,0.2781032025814056
1761133518751385300,-0.8667206555251031,1.406716224938631,3.9920927833795545,-0.3011734187602997,0.1399678140878677,0.2769032716751098
1761133518771232300,-0.857567992580682,1.48115947150439,1.7764982163578271,-0.0306009296327829,-0.2305663824081421,0.1206783354282379
1761133518791079400,-0.8507073130309581,1.2269906491681932,-0.0659890142142772,0.4175737202167511,-0.7139222621917725,-0.0460472404956817
1761133518810926300,-0.6424535619124769,0.9845125568866728,-2.445705637422204,0.6244814395904541,-1.037799835205078,-0.1861515492200851
1761133518830772500,-0.6659102792151272,0.9463409394025802,-4.556678969496488,0.5061532258987427,-1.0278290510177612,-0.2887276113033294
1761133518850619600,-0.5206554571168497,0.8833502302214503,-5.57280539278686,0.1890304386615753,-0.6106154322624207,-0.2355391681194305
1761133518870466600,-0.0428433721547946,-0.1571153922945261,-4.1168274165511125,0.1817590892314911,-0.2625015377998352,-0.1460524052381515
1761133518890313500,-0.2293662068499252,-1.0703643555648623,-0.8585463360935449,0.5626783967018127,-0.3010482788085937,-0.1063842177391052
1761133518910160600,-0.6381053766403347,-1.125821892762184,-0.0990834745645523,0.8745008111000061,-0.0490048006176948,-0.0179020315408706
1761133518930006500,0.0211366403246298,-1.2770745305031537,-0.6706774936169385,0.937995433807373,0.4665877223014831,0.0456492938101291
1761133518949853400,0.122974637761712,-1.070202735262364,-1.1586188314706087,0.9131197929382324,0.7023931741714478,0.0007355383713729
1761133518969700600,0.0773531426630914,-0.6687779436059296,-1.5097341163426636,0.7063305974006653,0.5014302134513855,-0.0760116279125213
1761133518989547500,0.0744175824015401,-0.1285230656690895,-1.8903169032394884,0.2817361056804657,0.0267870966345071,-0.0878347158432006
1761133519009394400,0.2019807900625281,0.5100602306813001,-1.965965726202726,-0.1308672577142715,-0.256916731595993,-0.0701989009976387
1761133519029240300,0.6411800348453224,0.9447016477629542,-1.2887182065457106,-0.3639770150184631,-0.3120833337306976,-0.0787964239716529
1761133519049087500,0.9458024486117064,0.8898536207661032,-0.0555973840594291,-0.2397238761186599,-0.192116767168045,-0.1115054190158844
1761133519068934400,1.0410860194366425,0.6588008856013416,1.1418734483748674,0.1586080640554428,-0.0007434247527271,-0.1002146676182746
1761133519088781600,1.0185405717600136,0.4101467350333929,1.5542384439796209,0.4308100640773773,0.1295896023511886,-0.0964907705783844
1761133519108628500,0.9217853209473192,0.1010255485430359,1.4317805235683918,0.4937101602554321,0.1058417856693267,-0.1185803338885307
1761133519128474400,0.6941704512767494,-0.2478865271963179,1.4831114823549985,0.5496239066123962,-0.0223480723798275,-0.1285796612501144
1761133519148321300,0.327864867263846,-0.3256223855666816,1.1823702939361334,0.564935564994812,-0.1009069830179214,-0.1559130847454071
1761133519168168400,0.163427132724598,-0.2288463111616671,0.738107938811183,0.6307860612869263,-0.0942786708474159,-0.1783323138952255
1761133519188015400,0.2022663838045671,-0.0824012198328971,0.1899444797068834,0.650968074798584,0.0626298934221267,-0.1854943484067917
1761133519207862300,0.2641173848986625,0.0041479865249246,-0.1879015757024288,0.6430304646492004,0.1835966259241104,-0.2058274894952774
1761133519227708400,0.0135028575105592,-0.0309723536297678,-0.2669108150094747,0.5753600597381592,0.1584278047084808,-0.2486312836408615
1761133519247555600,-0.3918198548998683,-0.0128845429491251,-0.1791629734516143,0.5269433259963989,0.0697099044919014,-0.2544890344142914
1761133519267402500,-0.644149698305875,0.0200835145425051,-0.0740659376859664,0.5518457889556885,0.0363241247832775,-0.2315811663866043
1761133519287249400,-0.7575190339848399,0.0485495479071512,-0.201056825351715,0.5722619891166687,0.0357405468821525,-0.2051808685064315
1761133519307096600,-0.6486585540324449,0.047209969866462,-0.3764624920964241,0.5709403157234192,0.0531622692942619,-0.1697301715612411
1761133519326942500,-0.5345822756605223,0.0982351141069084,-0.4685381337255239,0.5710428953170776,0.0025541330687701,-0.1376309096813202
1761133519346789400,-0.2979603620612994,0.1046908478512428,-0.6119055711746215,0.5158923268318176,-0.1107519119977951,-0.1060339286923408
1761133519366636500,-0.0633819369884207,-0.0016550737306475,-0.6491068823218346,0.3787879347801208,-0.2318020015954971,-0.0916340500116348
1761133519386483500,0.0574891160901635,0.0524053008866962,-0.4592904129087924,0.3190048038959503,-0.2444595247507095,-0.024616926908493
1761133519406330400,0.0790159613087773,0.1130254358784295,-0.0731014765679836,0.3565015494823456,-0.1727741062641143,0.0495181716978549
1761133519426176500,0.05854702764526,0.1554369742209091,0.2246533895164728,0.4182930886745453,-0.1161535829305648,0.0998474135994911
1761133519446023400,0.011315576599352,0.128537788314186,0.2564689159721136,0.4263352155685425,-0.1328182518482208,0.0702558010816574
1761133519465870300,-0.1229223595852032,0.0438311958820559,0.3679758187800646,0.4436163604259491,-0.1634229719638824,0.019664991647005
1761133519485717500,-0.1688502537518739,0.0689512980859726,0.2945587003916501,0.5166548490524292,-0.1198895871639251,-0.0015380821423605
1761133519505564400,-0.2681798120319843,0.0749713255604729,0.0508002129107713,0.5654122829437256,-0.0217603705823421,-0.0056889941915869
1761133519525410300,-0.3471459428496659,0.0947915860569104,-0.2548456986844539,0.5783519148826599,0.0693416893482208,0.0041366131044924
1761133519545257200,-0.3507169332042336,0.0450269632715731,-0.4223837007939815,0.5635058283805847,0.0877449214458465,-0.0229675006121397
1761133519565104400,-0.3404094742015004,-0.0858575708318501,-0.4508884952664375,0.525201141834259,0.064429685473442,-0.0151149984449148
1761133519584951300,-0.2922570358531549,-0.1467594910401851,-0.4872060093164443,0.4827925860881805,0.042575504630804,0.0059927431866526
1761133519604798500,-0.2093192979907616,-0.2604340932760387,-0.6149900931864977,0.4141973257064819,0.0249334778636693,0.003502030391246
1761133519624644600,-0.1496529474593698,-0.3678850717566907,-0.724491501390934,0.2920552492141723,-0.0338210649788379,-0.0182558055967092
1761133519644491500,-0.0871634657986462,-0.3545393410366028,-0.7009855381190776,0.1757391840219497,-0.0892509669065475,0.0046659563668072
1761133519664338400,-0.0397498265862464,-0.2420984453141689,-0.6529214721739292,0.0788858979940414,-0.0953401178121566,0.0772934705018997
1761133519684185600,-0.013157258943282,-0.0459697240144014,-0.6534902119725943,-0.0200227797031402,-0.0449480079114437,0.1171466037631034
1761133519704032500,0.0337582945538684,-0.0469870112981647,-0.3843091139435768,-0.0594673082232475,0.0014655056875199,0.0920680463314056
1761133519723878400,0.0334941271923482,-0.091484105476737,0.1044242510706186,0.0051701976917684,-0.0029352270066738,0.0555145367980003
1761133519743725600,-0.0004379895584657,-0.0714829354554414,0.3652876026093959,0.083083763718605,-0.0014068202581256,0.0392752140760421
1761133519763572500,0.0236646244322881,0.00191379773207,0.1826782880961895,0.1040968671441078,0.0143152475357055,0.0463918000459671
1761133519783419400,0.0729556383565068,0.0394593922723084,-0.0762801066040992,0.0672586858272552,0.000969975721091,0.0291619319468736
1761133519803266600,0.1294308646963909,0.0276074072413146,-0.1410381177186966,0.0303627699613571,-0.0401480011641979,-0.0003602021024562
1761133519823112400,0.1325126467619091,-0.0478602870013564,-0.1542430517286062,0.0122375302016735,-0.0904190689325332,-0.0419685430824756
1761133519842959400,0.1521239406827837,-0.0572528961814939,-0.2207002679765224,-0.0196942910552024,-0.0944237560033798,-0.0613416917622089
1761133519862806500,0.2026747088771313,-0.1140921700607985,-0.2724275326043367,0.0176537036895751,-0.0744420289993286,-0.1117680668830871
1761133519882653400,0.0184893772188574,-0.1103417314860969,-0.138538117596507,0.0218574926257133,-0.0809009075164794,-0.1086897328495979
1761133519902500400,0.0821167038030922,-0.0910555048011243,-0.2091255655169487,-0.0044059855863451,-0.0141613455489277,-0.0826558321714401
1761133519922346200,0.0583080312576144,-0.0091186145443469,-0.2954927663713693,-0.0375870056450367,0.057621169835329,-0.0516134314239025
1761133519942193400,0.0746316818099468,0.0741699095170944,-0.3862327754825353,-0.1310868859291076,0.0708885118365287,-0.0381454564630985
1761133519962040300,0.1116842321362346,0.0176879246428608,-0.370953373286128,-0.2569202482700348,0.0380613766610622,-0.0443647466599941
1761133519981887200,0.0786859987020492,0.0497895745635032,-0.1757160478681325,-0.2992344200611114,-0.0046540419571101,-0.0493348576128482
1761133535333901800,0.3657999360457062,-0.1134152206473052,0.2952010899484157,-0.1527312248945236,-0.0142663847655057,-0.1208937913179397
1761133535353748700,0.360110199971497,-0.1491226399749517,0.7147913606315851,-0.0612009614706039,-0.0131799485534429,-0.037754125893116
1761133535373595600,0.3795592890679836,-0.1721010722413659,0.9752759419858456,0.0493157729506492,-0.0351499877870082,0.0177208706736564
1761133535393442800,0.3687781481388956,-0.1378606567263603,0.8685393223196267,0.1155425012111663,-0.0591114982962608,0.0482455641031265
1761133535413288700,0.4256460635907947,-0.0938201472088694,0.5377817658215761,0.1426601260900497,-0.0803539156913757,0.0598791576921939
1761133535433135900,0.4861506550446152,-0.0851341519281268,0.2064391029119491,0.1662827432155609,-0.0579070076346397,0.087671972811222
1761133535452982800,0.5228466470181942,-0.1175425297103822,-0.0725800830423831,0.1683214455842971,-0.062632717192173,0.1072105169296264
1761133535472829700,0.6124574329037219,-0.2096925517499446,-0.3360135773301124,0.1130763366818428,-0.0904848128557205,0.1018207296729087
1761133535492676600,0.7075035417109727,-0.2892975649930536,-0.5087199219882488,0.0561426468193531,-0.1018728613853454,0.0776845812797546
1761133535512523000,0.8364871375638991,-0.399445016016066,-0.5807540615856647,0.0048420801758766,-0.1203995198011398,0.0194535814225673
1761133535532370000,0.9276195069935173,-0.4469393192492425,-0.5798404538720846,-0.0183823853731155,-0.0914395228028297,-0.0291682202368974
1761133535552216800,0.9534202301390468,-0.4786734510317444,-0.598676087245345,-0.0179277546703815,-0.0265388526022434,-0.0603066533803939
1761133535572064000,1.0097462937992066,-0.4819746845342219,-0.6616238340675831,-0.069318413734436,-0.0054484521970152,-0.0829722359776496
1761133535591911000,0.9453553624313324,-0.3909060279905796,-0.7496943317085504,-0.2060576230287552,-0.0323718599975109,-0.097878873348236
1761133535611757800,0.8836147263765335,-0.342358124051243,-0.5668541310489177,-0.2925816178321838,-0.0267237983644008,-0.0986736118793487
1761133535631603700,0.7480837547067553,-0.2425445816464722,-0.1569856284350156,-0.2900465428829193,-0.0458971597254276,-0.0569516941905021
1761133535651451000,0.0679445321962237,0.0851288912311196,0.2559977913290262,-0.2576121687889099,-0.3616900146007538,0.108677752315998
1761133535671297800,-0.4726235764082521,0.5462691697902977,0.37165830668509,-0.5183004140853882,-1.0508456230163574,0.2457174956798553
1761133535691145000,-0.3741505618922412,0.4125606643073261,0.1647200220793485,-0.9196208119392396,-1.3622111082077026,0.2574105262756347
1761133535710992000,-0.6450725122392177,1.0632264665089548,-0.1554606108248233,-0.9994231462478638,-1.2381713390350342,0.4673211276531219
1761133535730837800,-0.4347624131128191,1.0525299351233988,-0.0765355426698923,-0.7945733666419983,-0.9154924750328064,0.49608114361763
1761133535750684700,-0.2955025571130216,0.7657156383134425,-0.0590203442454338,-0.5721407532691956,-0.5945031642913818,0.4230395555496216
1761133535770531800,-0.418443000344187,0.6752985775463283,0.2447323009490966,-0.3555746078491211,-0.3424731194972992,0.4034742414951324
1761133535790378800,-0.3311814809985459,0.5150819313008338,0.3465975151866674,-0.1974645107984542,-0.1331049650907516,0.3306463062763214
1761133535810225700,-0.0889404123432934,0.2749514250587672,0.0345212782829999,-0.178777202963829,0.0856835469603538,0.2440655529499054
1761133535830072800,0.0181711781151592,0.2635742179326713,-0.0215548292040824,-0.1976104229688644,0.2574202418327331,0.1611499786376953
1761133535849918700,0.0052012219049036,0.1582241207214072,0.0365273574084043,-0.1042571365833282,0.4884609878063202,0.0565703995525836
1761133535869765600,0.1240035424180328,-0.1301593616340309,-0.1010866310805082,-0.0612936057150363,0.8069794178009033,-0.0828500464558601
1761133535889612800,0.1234552608855068,-0.4579327877547591,0.1653705949425697,-0.079042300581932,1.2348805665969849,-0.1998053044080734
1761133535909459700,-0.1287473759442567,-1.019921431659162,1.2799655757695436,-0.0233038607984781,1.3171931505203247,-0.2225326895713806
1761133535929306600,-0.6147623488452285,-0.7676942449100315,2.026639098352194,0.2931776940822601,1.0356016159057615,-0.1176769807934761
1761133535949153800,-0.7495604031305759,-1.397969731642306,2.2306951055198905,0.4921203851699829,0.6188088655471802,-0.2951782643795013
1761133535969000000,-0.4927914812985807,-1.7057791048817337,1.6580571303725242,0.4269423186779022,0.3532931506633758,-0.6420458555221558
1761133535988846800,-0.2861458229638636,-1.6658749645166098,1.1704267581641674,0.336899995803833,0.1214452907443046,-0.8898766040802002
1761133536008694000,-0.493206418775022,-1.0390575823489576,0.7859153996467589,0.3464508950710296,0.0247595775872468,-0.7839167714118958
1761133536028541000,-0.6314778482593596,-0.427591790831089,0.1297434012442827,0.3373717367649078,0.249916210770607,-0.4605356156826019
1761133536048387800,-0.126377943399176,-0.2239203990668058,-0.4457599002063274,0.2220217883586883,0.6119722723960876,-0.2120347768068313
1761133536068233700,0.5108774653483182,-0.9227675369177012,0.0229798935711383,0.1116501465439796,0.8233613967895508,-0.0965605452656745
1761133536088081000,0.8408180794402956,-0.995310648950562,0.7029606375843286,0.1224814429879188,0.8838301301002502,0.054042749106884
1761133536107927800,1.012219259783998,-0.9373351375829428,1.2122574826776982,0.2952562272548675,0.7091050148010254,0.1679757535457611
1761133536127774700,1.0912569945331665,-0.7312886141851543,1.0218921472102402,0.3953352570533752,0.4144859910011291,0.2622672915458679
1761133536147622000,1.1018607330687344,-0.304298004117608,0.3700391810506582,0.3266679644584656,0.2751771807670593,0.3470454812049866
1761133536167468800,0.8852917196780443,-0.093998134124279,-0.044998833155632,0.1761367917060852,0.3184005320072174,0.3740574717521667
1761133536187314700,0.6731383307725191,-0.0983056220598518,0.1808259382277727,0.1870277673006057,0.2518986761569977,0.3052863478660583
1761133536207161900,0.3538458788797259,-0.0222048175454139,0.3951075713336467,0.3164021074771881,0.0152489338070154,0.2335231304168701
1761133536227009800,0.0644352500002132,0.1514946298032999,-0.0228933843314647,0.4173641204833984,-0.2228323519229889,0.2115161120891571
1761133536246856700,0.1871184259681031,0.4551441068843007,-0.8016068897753953,0.4196451306343078,-0.3348574042320251,0.2402289807796478
1761133536266703600,0.4112794653903692,0.7327651164785027,-1.5541864215314387,0.3588171899318695,-0.2774928212165832,0.2949374616146087
1761133536286549500,0.6137642777185887,0.8609265092283487,-2.128906463649869,0.2445136904716491,-0.0418236814439296,0.3945216536521911
1761133536306396700,0.8630364871196449,0.7294140524849295,-2.288319611492753,0.1364677548408508,0.2922143936157226,0.4494952261447906
1761133536326243600,1.1705494346957652,0.2358041674755513,-1.7601152368336914,0.2422393560409546,0.5836039781570435,0.3980524837970733
1761133536346090500,1.3556246278658508,-0.1677322095073759,-1.186253857371211,0.3973815441131592,0.6358012557029724,0.2452862560749054
1761133536365937700,1.3058337381280958,-0.3073784344762563,-1.0908744980216023,0.4671947062015533,0.4667220711708069,0.1120246201753616
1761133536385783600,1.178788343796134,-0.2597292329423129,-1.005978538763523,0.4432807564735412,0.0930659174919128,-0.0137530621141195
1761133536405630500,1.1994957623906433,-0.0750984956040978,-1.26365332339406,0.3041224181652069,-0.2535560429096222,-0.0780176594853401
1761133536425477600,1.468382699778676,0.0561347058065235,-1.0898644441962242,0.4373749494552612,-0.6170868277549744,-0.1324950009584427
1761133536445324500,1.7938307516917584,-0.1288116733521223,-0.7858511022388934,1.0116088390350342,-0.9802234768867492,-0.2883971631526947
1761133536465171500,1.658131218522042,-0.2836883468091488,-1.9973387695878744,1.393621802330017,-1.2830207347869873,-0.3939034938812256
1761133536485018600,1.64319127741307,-0.1480827755331993,-4.023419065013528,1.0370439291000366,-1.3216681480407717,-0.3464386165142059
1761133536504864800,2.2252029378443954,-0.0294417830616235,-5.128821854603291,0.3997476696968078,-0.9698007106781006,-0.1765307635068893
1761133536524711700,3.162022307924926,-0.2040212281152605,-4.720402966275811,-0.1515583395957946,-0.1749394536018371,-0.0602423772215843
1761133536544558800,3.728523387752473,-0.9355524188846348,-3.54578518616259,-0.7609812021255493,0.4547370374202728,-0.1534211039543151
1761133536564405800,3.8021757762014863,-1.859591802369058,-1.9191443537950517,-1.2945631742477417,0.8528727293014526,-0.4558393359184265
1761133536584252700,3.144732442688942,-2.732062326657772,0.6217869137197732,-1.3641047477722168,0.995783805847168,-0.832080066204071
1761133536604099800,1.9664998330794277,-3.0528309885829685,2.89305309908092,-1.140788435935974,0.7820062041282654,-1.10324227809906
1761133536623945700,0.8558654264464974,-2.685639013656974,3.7794969114035366,-1.069543719291687,0.3289183378219604,-1.2593594789505005
1761133536643792600,-0.1276906516992487,-2.2959932148605584,3.721557932654023,-1.1304011344909668,-0.0714067816734314,-1.5914192199707031
1761133536663639600,-1.6321091807760295,-1.596560313010961,3.7702924452066418,-1.0335512161254885,-0.3044373393058777,-1.7802459001541138
1761133536683486700,-2.8928210438907143,-0.5781934173174202,3.780661279007792,-0.8226956725120544,-0.2785137593746185,-1.622220754623413
1761133536703333600,-3.360940075421333,0.0130963590689003,3.414693877440691,-0.6262726187705994,-0.1599664986133575,-1.3134808540344238
1761133536723179500,-3.0718609754845496,-0.1187205605138093,3.062688365730643,-0.3433393239974975,-0.1317186504602432,-1.2170166969299316
1761133536743026700,-2.989313040657341,-0.5292892472863197,2.7022417734116315,-0.0351325124502182,-0.2340765446424484,-1.4057124853134155
1761133536762873600,-3.517532905146479,-0.1205583704002201,1.898002781566977,0.1253113895654678,-0.3580856621265411,-1.456738829612732
1761133536782720500,-4.051452442581952,0.7266682609081268,0.8883201275885104,0.1003439277410507,-0.4826637208461761,-1.1991233825683594
1761133536802567700,-4.030829633530974,1.158844237724319,-0.1306926647931337,-0.0562324486672878,-0.5301114916801453,-0.8232014775276184
1761133536822414600,-3.390478304594755,0.9391369263079016,-1.0418722744435072,-0.2564985454082489,-0.4185595214366913,-0.6280947327613831
1761133536842260500,-2.926223839537799,0.6497863890185952,-1.3501964653372764,-0.3529658615589142,-0.1436209678649902,-0.5677295923233032
1761133536862107600,-2.8489132208421823,0.7172009059913456,-0.9188836081564424,-0.3262741565704345,0.1647068411111831,-0.3894510269165039
1761133536881954600,-2.5907293176457284,0.7115687453232705,-0.2734446006923914,-0.2147874236106872,0.3131992220878601,-0.2291220128536224
1761133536901801500,-2.165805430849641,0.5657748113796115,0.0267208336651325,-0.1862121820449829,0.3098856508731842,-0.1172498613595962
1761133536921648600,-1.8318834189713,0.5764314491461963,0.0686895053446292,-0.2312802672386169,0.1985041350126266,-0.0316149778664112
1761133536941494800,-1.5944237393736838,0.6168569830369204,0.0799579183340072,-0.2787170112133026,0.1082473695278167,0.0573487319052219
1761133536961341700,-1.3526865285873413,0.5185642935238778,0.2700175488531589,-0.2040918171405792,0.0438840575516223,0.1638318449258804
1761133536981188900,-1.0114105737496166,0.335108518249169,0.5601116710513829,-0.0172360427677631,-0.0701688528060913,0.2160831838846206
1761133537001035800,-0.6406549149926751,0.2199611400470137,0.1273871935069561,0.0767173543572425,-0.1275793313980102,0.2424664497375488
1761133537020882700,-0.3674353917604312,0.1506611015886068,-0.4987912331700325,0.0889830514788627,-0.1172495335340499,0.2522000074386596
1761133537040728600,-0.23994802581463,-0.0103868809144943,-0.8651479263156652,0.1174700856208801,-0.1127179861068725,0.2558260262012481
1761133537060575700,-0.1705186984207481,-0.2714748349893838,-1.1607453221052884,0.1608540415763855,-0.1848186254501342,0.2612574100494385
1761133537080422700,-0.1836744412603788,-0.3764253018911928,-1.6878408587396143,0.1817131638526916,-0.3407800495624542,0.2709990739822387
1761133537100269600,-0.0337690351435914,-0.5455816989827901,-2.3602783477663998,0.1726898401975631,-0.4105654060840606,0.2255367934703827
1761133537120116700,0.0341463805560022,-0.7716120759408921,-2.706375512215495,0.2333634793758392,-0.352573961019516,0.1746618300676345
1761133537139963600,0.0520000902198255,-0.959492535790056,-2.7424697389036417,0.3337597846984863,-0.1692518442869186,0.1350471526384353
1761133537159809500,-0.1533493177592754,-1.1230952442772686,-2.664879718744755,0.3815167248249054,0.0322124138474464,0.184371218085289
1761133537179656700,-0.5384731090866028,-1.2599468700915577,-2.000805568915605,0.4487347602844238,0.0849744528532028,0.2715498208999634
1761133537199503600,-0.905802373591438,-1.394032099932432,-1.056733158966899,0.4137231707572937,-0.0683110132813453,0.3953869342803955
1761133537219350500,-1.4595713245525956,-1.0253364424452185,-0.3756418233633041,0.0364173874258995,-0.0911697745323181,0.7716413140296936
1761133537239197400,-1.2128794139683243,-0.7834368076387792,1.024621279913187,-0.5844941735267639,0.1346349120140075,1.0351364612579346
1761133537259043300,0.5267419739563017,-0.4524653161291033,4.657158282333612,-0.8808870315551758,0.0126101477071642,0.8616639971733093
1761133537278890500,1.5248349471017717,0.7841522624317556,8.742106459543109,-0.8464707732200623,-0.4150373637676239,0.6691402792930603
1761133537298737400,1.375944800708443,1.9536524803355333,10.547511621433497,-0.7677736282348633,-0.2076554894447326,0.649470329284668
1761133537318584300,1.3260931206941604,2.753662456308305,11.547024179053306,-0.4322436451911926,0.5075974464416504,0.4846381545066833
1761133537338431200,0.5951356016268954,3.080676150102913,11.85573356987238,-0.1619230359792709,1.0771358013153076,0.4914714992046356
1761133537358277400,-0.0611391447640024,2.8469068494558334,11.044672038531305,-0.0523974224925041,1.1476778984069824,0.8146470189094543
1761133537378124500,-0.0960049439020454,1.158828967089951,8.826279365223646,-0.1557819545269012,0.6860355734825134,1.0550997257232666
1761133537397971500,1.0854971888974307,-0.9349052070222794,5.216899366506934,-0.2389767318964004,0.1366420686244964,0.92204087972641
1761133537417818400,1.8779079419128597,-2.3577868232116104,2.0953741964042187,0.027714530006051,-0.2390777915716171,0.5004776120185852
1761133537437665500,1.962984518434852,-2.8122265812188387,-1.1495850456655026,0.5184077024459839,-0.3164985477924347,0.061531513929367
1761133537457512400,0.9015421588636934,-2.9432606067955494,-4.387547560715675,0.8766859769821167,-0.5001015663146973,-0.2660341560840606
1761133537477358300,-0.1189591002437286,-2.8598759288832545,-7.453285961666703,0.9766226410865784,-0.826544463634491,-0.5619409084320068
1761133537497205500,-0.6272711903497576,-2.281375345312804,-10.258237583446505,0.839626669883728,-0.9654285311698914,-0.915882408618927
1761133537517052400,-1.555619961465895,-1.4348632920145987,-11.95450374070406,0.5064540505409241,-0.97004234790802,-0.9963523149490356
1761133537536899300,-2.576089674657583,-0.4059888847015798,-12.585484599226712,0.1154474467039108,-0.8089463114738464,-0.6503903865814209
1761133537556746500,-3.0773037510603665,0.3706696609739214,-12.270678645098208,-0.186020016670227,-0.5136168003082275,-0.0472755059599876
1761133537576592400,-2.8308509099289774,0.2359086507633328,-11.451698011195658,-0.3877242803573608,-0.2301483452320099,0.4911192953586578
1761133537596439300,-2.0207282668732107,-0.4681153782688081,-10.423128870439529,-0.5629398822784424,-0.1215139552950859,0.7151899933815002
1761133537616286500,-1.1321971268825233,-1.1074065306276082,-8.85118993459642,-0.5667356848716736,-0.1962409764528274,0.5817365646362305
1761133537636133400,-0.5421134383503348,-1.4976840514563023,-7.303187170135974,-0.3976259231567383,-0.2491707801818847,0.3589809536933899
1761133537655980300,-0.1285456428270787,-1.1897677107110618,-5.563783881941437,-0.1091065108776092,-0.2674378454685211,0.1548681706190109
1761133537675827500,0.971665204142779,0.1175211215961724,-3.985025329211354,0.0680590644478797,0.0589178130030632,0.1265690922737121
1761133537695673300,1.0955590756412594,0.5497721364099531,-1.388047764825821,0.1424052864313125,0.6449007987976074,0.3175953924655914
1761133537715520300,0.9127634447757156,0.6743504830412567,2.5888983028262853,0.0129246842116117,0.9045235514640808,0.4980070888996124
1761133537735367400,0.3778749892428517,1.150329580422491,6.899567791044712,-0.3335086703300476,0.4569065272808075,0.8309345841407776
1761133537755214300,-1.555250835892558,-1.705062919436395,10.254826313698292,0.9014842510223388,-1.64575457572937,0.9062446355819702
1761133537775061200,1.384621589769423,-0.9715953537769616,4.118689703291654,-1.089814305305481,0.6352881789207458,0.366041362285614
1761133537794907400,-1.0565737306214869,1.9152366788320243,5.407115648892521,-2.415426254272461,-0.6856803297996521,0.8784432411193848
1761133537814754600,0.1489960909858345,1.036879580722749,9.984739791262149,-1.9466619491577148,-0.6631744503974915,0.7864494919776917
1761133537834601500,1.9612562333375212,0.4986402073267847,12.597196079808471,-0.5176544189453125,-0.1469754725694656,0.3794945776462555
1761133537854448400,1.5494444877013562,1.1357695785418152,10.690451773381232,0.2426715791225433,0.3750663995742798,0.2980391979217529
1761133537874295600,1.3364730604112147,2.0665099209696054,7.314156892439723,0.2182503193616867,0.6593247056007385,0.5278980731964111
1761133537894141400,0.8896322331003844,1.3162363280683755,5.221939698761702,0.032206330448389,0.4389660954475403,0.6558877229690552
1761133537913988400,1.16025994974114,0.020772811980918,2.861946597677469,-0.2345786839723587,0.0484284237027168,0.4486370682716369
1761133537933835500,1.2705921827465294,-0.8315053305633365,0.8049322348058223,-0.3411340117454529,-0.3359163999557495,0.1133670285344123
1761133537953682400,0.8576362355113029,-1.1429529872398825,-1.1144646324455738,-0.1807934045791626,-0.4077709317207336,-0.1586986482143402
1761133537973529300,0.2928037464831024,-1.1742072996161876,-2.82583834246397,0.1826555877923965,-0.3696581423282623,-0.2406692802906036
1761133537993376500,0.252511921974644,-0.5575606348617002,-4.2160131824463605,0.4759667515754699,-0.2562442719936371,-0.2220307737588882
1761133538013222400,0.4178220189016312,-0.2060865266146138,-5.837012794056535,0.5036200881004333,0.0810207277536392,-0.2164624482393264
1761133538033069300,0.2975548865329474,0.1496985584330745,-6.493996108841896,0.3733976483345032,0.4283100366592407,-0.102030724287033
1761133538052916500,0.2934486933231353,0.1068656711396761,-5.351404867586493,0.2749854028224945,0.5037396550178528,-0.0159940775483846
1761133538072763400,0.5917618508774787,0.3511518540227785,-3.67301748136878,0.1375895589590072,0.3162175118923187,0.0788872316479682
1761133538092610300,0.3797225898709148,0.3004795783406123,-2.295595155453682,-0.1598034650087356,0.3261323571205139,0.3584204316139221
1761133538112456400,0.0803178376875817,-0.4800848156670108,-0.3247732213914394,-0.3530206382274627,0.3314376175403595,0.4766790568828583
1761133538132303400,0.1359612528458237,-1.3481874636024236,1.5060428606092928,-0.1943912208080291,0.0111707244068384,0.2422844767570495
1761133538152150300,0.542155816187337,-1.8459600212492049,1.176343288731575,-0.1179624199867248,-0.0215249378234148,-0.1696282178163528
1761133538171997200,0.5925893877428025,-1.2131178258340805,0.0089174659490585,-0.237482875585556,-0.0508615747094154,-0.5164229869842529
1761133538191844400,0.5643687439739704,-0.0218439483437687,-0.5708323870301246,-0.3585085272789001,-0.0273585375398397,-0.6678581237792969
1761133538211691300,0.5593851103425026,0.8153013608679175,-0.2903688474863767,-0.2854907810688019,0.1542175263166427,-0.6736775040626526
1761133538231536400,0.2438538376141339,1.4125665584020315,0.3782651576042175,-0.0945169031620025,0.2436618953943252,-0.5450825691223145
1761133538251383600,-0.1961316439092159,1.749178686147183,1.111060961481929,0.1264841556549072,0.1977030783891677,-0.3871635794639587
1761133538271230500,-0.2649961404945701,1.7588536924652751,1.0671943472266197,0.2355117052793502,0.0838880538940429,-0.2482251524925232
1761133538291077400,-0.45615240714401,1.5689225106313824,0.6143488726735115,0.242470696568489,-0.0848396345973014,-0.0815659314393997
1761133538310924500,-0.3273041281085461,1.0817623862832784,-0.1276508128792047,0.2924662232398987,-0.1907806992530822,0.0360050164163112
1761133538330770400,0.060970236204192,0.4109949128279462,-0.9891846403509378,0.3376729488372803,-0.1650821715593338,0.0307088680565357
1761133538350617300,0.311094970781356,-0.0922006745145656,-1.7991542848020792,0.3137256205081939,-0.0255954340100288,0.0216132774949073
1761133538370464500,0.0824755271781235,-0.3061439607778564,-2.063158856976032,0.2183723896741867,0.0871234461665153,0.0719292685389518
1761133538390311400,-0.3358800871435553,-0.5889920208379625,-1.712146447956562,0.1641507744789123,0.097975343465805,0.1290755420923233
1761133538410158300,-0.7006864821072667,-1.0165658376209437,-0.8895821103483438,0.2463234364986419,-0.0161215178668499,0.1369634568691253
1761133538430004500,-0.8754650299295782,-1.140265209460631,-0.3771621647983789,0.3375072479248047,-0.0630415976047515,0.1627863198518753
1761133538449851400,-1.04145667937994,-1.1254717641502618,0.4685913252174854,0.4090390503406524,-0.1578245311975479,0.2645568549633026
1761133538469698300,-0.7642043569676578,-0.8767331501692534,1.2538403699100016,0.4374614953994751,-0.5184921622276306,0.3138928711414337
1761133538489545500,-0.0105639179818332,-0.5201119613572955,0.8210802365303039,0.2968614995479584,-0.884854793548584,0.3143998980522156
1761133538509392400,0.518592058313638,-0.2548094217946752,0.5458382310271263,0.1085559502243995,-0.8683596253395081,0.4347667396068573
1761133538529239300,2.110282573331147,0.0179871085188351,2.5956857710093257,0.3553212583065033,-0.6762754321098328,0.4199731349945068
1761133538549085400,3.188441820555925,-0.6759148828137665,4.912590256473422,0.8600043654441833,-0.4717887938022613,0.1502624303102493
1761133538568932600,2.8621792373895643,-0.2196641298618167,5.18292636975646,0.7056818008422852,0.0663165971636772,0.0200733449310064
1761133538588779500,1.5571142916768788,1.317961982817203,5.858510924637318,-0.0476677380502224,0.5550158619880676,0.1080616042017936
1761133538608626400,1.317131669472903,2.5329849846854806,8.328327505487204,-0.6412792205810547,0.5965093970298767,0.0386726185679435
1761133538628473600,1.5125351452380418,2.434514527452737,11.58233865354061,-0.427034318447113,0.4723009765148163,-0.2366159409284591
1761133538648319500,1.1294367222584782,1.971765790783614,12.24348668678999,0.2100561410188675,0.4850799441337585,-0.3678458333015442
1761133538668166400,0.4171476267714053,1.6409022896930574,10.249915160781145,0.9830557107925416,0.329620897769928,-0.2860919833183288
1761133538688013600,0.6271093508515506,0.7265063483446836,5.508216308498382,1.4699506759643557,0.0793074071407318,-0.3600709438323974
1761133538707860500,0.1601614089269191,-0.6646781070716679,0.1602554438859224,1.4568716287612915,-0.5276893377304077,-0.5645238161087036
1761133538727707400,-0.4880720515612513,-1.7973991116978227,-4.8200879138648505,1.0298113822937012,-1.077450156211853,-0.8344082832336426
1761133538747554600,-1.4133834277428683,-2.322527586042881,-8.587408065262437,0.4695911109447479,-1.5548620223999023,-0.8619223833084106
1761133538767400400,-2.9994132866501806,-2.432072833389044,-10.766000058579444,0.0055071115493774,-1.8369849920272827,-0.542800784111023
1761133538787247400,-3.36171164431572,-2.629413268566132,-11.98439619014263,-0.2244465053081512,-1.543081760406494,-0.3468943238258362
1761133538807094300,-2.9855449202954767,-2.70588042217493,-12.396586998224258,-0.1832925528287887,-0.8787972927093506,-0.3394590616226196
1761133538826941400,-2.822151178383827,-2.067557238065451,-12.31193069294095,-0.1532828509807586,-0.2699677050113678,-0.3031411468982696
1761133538846788400,-3.254982623434066,-1.3049300672866404,-11.732053414189815,-0.225979596376419,-0.0448047704994678,-0.1527884602546692
1761133538866634500,-3.7170024613067514,-0.7012500342741608,-11.100116277855632,-0.4051412642002105,-0.0144701702520251,0.0808032900094986
1761133538886481400,-3.737018536636233,-0.5338122776687145,-10.52484269350767,-0.5337479114532471,0.0176475793123245,0.2462929636240005
1761133538906328300,-3.2853269082933663,-0.6280779766879976,-9.7539074208498,-0.4944545328617096,0.1371346712112426,0.1628217548131942
1761133538926175200,-2.5975091870442037,-0.3428646853338927,-8.349205458343029,-0.2760208249092102,0.1529645025730133,-0.0227274596691131
1761133538946022400,-2.015598502769321,0.6110853408329189,-6.447224420794845,-0.0607525967061519,-0.0633636489510536,-0.0491673164069652
1761133538965868500,-1.96511933850646,1.6099389961525796,-4.673886714294553,-0.1696381121873855,0.281374990940094,0.5115419626235962
1761133538985715500,-1.5920004577495157,2.0838195138193667,-0.3466495376348495,-0.6567408442497253,0.8735320568084717,1.4872137308120728
1761133539005562600,0.220639477699995,0.6988429731324315,4.701501866450905,-1.1022427082061768,0.4281251728534698,1.9141439199447632
1761133539025409500,-2.3912775894030927,-6.708163760179281,7.334304192933439,-2.00305700302124,-0.185063287615776,1.4173120260238647
1761133539045256400,2.9021964827403424,-7.180453939914703,6.53429012530744,-3.045910120010376,-0.2258549630641937,0.675365149974823
1761133539065103600,6.959502912047505,-4.071072796592116,10.18720180723667,-1.878260850906372,0.4617630839347839,-0.7566796541213989
1761133539084949500,5.570078013649582,1.230652824937552,12.501127569150924,-0.0188624747097492,1.8693352937698364,-0.5743499994277954
1761133539104796400,2.9176947883844373,4.119920121869445,13.11808107136488,0.5932857394218445,1.922037363052368,0.1222981214523315
1761133539124643600,1.7000779706306757,4.0831513569206,11.651686330533026,-0.3130143284797668,0.2011047601699829,0.462636262178421
