timestamp,accel_x,accel_y,accel_z,gyro_x,gyro_y,gyro_z
1761131952945258800,-0.0061540305614471,-0.0295838266611099,0.0058221817016601,-0.0004581489483825,-0.0011453722836449,-0.0003817907709162
1761131952955259000,-0.0060342550277709,-0.0340055227279663,0.0225687026977539,0.0001527163112768,0.00068722339347,0.0014508049935102
1761131952965258800,-0.0153515338897705,-0.0217092186212539,0.0297346115112304,-0.00167987938039,7.63581556384e-05,-0.0003817907709162
1761131952975259000,-0.0366901755332946,-0.0284369438886642,0.0081691741943359,0.0007635815418325,0.00068722339347,-0.0009926559869199
1761131952985258800,-0.0172438323497772,-0.0282109230756759,0.0249128341674804,-0.00167987938039,-0.0011453722836449,-0.0003817907709162
1761131952995259000,-0.0171516835689544,-0.0253740102052688,0.010533332824707,0.0007635815418325,-0.000534507096745,0.0002290744741912
1761131953005258800,-0.0193909406661987,-0.0323429405689239,0.0272836685180664,-0.0004581489483825,-0.000534507096745,-0.0003817907709162
1761131953015259000,-0.0048825740814208,-0.0128592550754547,-0.0014600753784179,0.0001527163112768,-0.0011453722836449,-0.0009926559869199
1761131953025258200,-0.0335542559623718,-0.036599725484848,0.022475242614746,0.0001527163112768,0.00068722339347,-0.0003817907709162
1761131953035258000,-0.0069690346717834,-0.021972581744194,0.0200662612915039,-0.0004581489483825,-0.000534507096745,0.0002290744741912
1761131953045257700,-0.0140247046947479,-0.0384425222873687,0.0128726959228515,-0.0004581489483825,-0.000534507096745,-0.0009926559869199
1761131953055257900,-0.0258883237838745,-0.0213776975870132,0.0224390029907226,0.0001527163112768,7.63581556384e-05,-0.0009926559869199
1761131953065257700,-0.028089553117752,-0.0283246487379074,0.0056667327880859,0.0001527163112768,7.63581556384e-05,0.0002290744741912
1761131953075257900,-0.0063521265983581,-0.0352506637573242,-0.0063161849975585,0.0001527163112768,0.00068722339347,-0.0003817907709162
1761131953085257700,-0.0300430953502655,-0.023037239909172,0.0295820236206054,0.0001527163112768,-0.000534507096745,-0.0003817907709162
1761131953095257900,-0.0011806786060333,-0.0227875560522079,0.0199947357177734,-0.0010690141934901,-0.0011453722836449,-0.0022143865935504
1761131953105257700,-0.0226824581623077,-0.0176627933979034,0.0128030776977539,-0.0004581489483825,-0.000534507096745,-0.0009926559869199
1761131953115257900,-0.0225713551044464,-0.0173965841531753,0.0127925872802734,0.0001527163112768,-0.000534507096745,-0.0009926559869199
1761131953125258500,-0.0152345597743988,-0.0051942914724349,0.0223588943481445,-0.0010690141934901,-0.000534507096745,-0.0003817907709162
1761131953135258600,-0.0342819988727569,-0.0120704174041748,0.0247421264648437,-0.0004581489483825,-0.000534507096745,-0.0009926559869199
1761131953145258500,-0.0030028820037841,-0.0238099098205566,0.029520034790039,-0.0004581489483825,7.63581556384e-05,-0.0016035212902352
1761131953155258600,-0.0147975087165832,-0.0235970765352249,0.0055675506591796,-0.0004581489483825,0.00068722339347,-0.0009926559869199
1761131953165258800,-0.0337168872356414,-0.0114061534404754,0.0151309967041015,-0.0004581489483825,-0.000534507096745,-0.0003817907709162
1761131953175258600,0.0047068893909454,-0.0351394861936569,0.0103340148925781,-0.0004581489483825,7.63581556384e-05,-0.0003817907709162
1761131953185258800,-0.002339631319046,-0.0301403850317001,0.010324478149414,-0.0010690141934901,7.63581556384e-05,-0.0003817907709162
1761131953195258600,0.0001629889011383,-0.0059116929769515,0.0246791839599609,0.0007635815418325,7.63581556384e-05,-0.0003817907709162
1761131953205258800,-0.0452329814434051,-0.0178341418504714,0.0103101730346679,-0.0004581489483825,-0.000534507096745,-0.0003817907709162
1761131953215258600,-0.0116368234157562,-0.0128408223390579,0.0174856185913085,-0.0004581489483825,-0.0011453722836449,-0.0009926559869199
1761131953225257700,-0.025979995727539,-0.0150568187236785,0.0174798965454101,-0.0010690141934901,-0.000534507096745,-0.0003817907709162
1761131953235257900,0.0004317462444305,-0.0172269344329834,0.0150775909423828,-0.0004581489483825,-0.000534507096745,-0.0016035212902352
1761131953245257700,-0.0162837505340576,-0.0410093665122985,0.0318317413330078,-0.0004581489483825,7.63581556384e-05,-0.0003817907709162
1761131953255257900,-0.0137535035610198,-0.0120682269334793,0.0102748870849609,0.0001527163112768,7.63581556384e-05,-0.0003817907709162
1761131953265257700,-0.0184366703033447,-0.0215164124965667,0.036604881286621,-0.0010690141934901,-0.000534507096745,-0.0003817907709162
1761131953275257900,0.0031650960445404,-0.0236690789461135,0.022231101989746,0.0001527163112768,-0.000534507096745,-0.0009926559869199
1761131953285257700,-0.0231234431266784,0.0027889162302017,0.0102558135986328,-0.0004581489483825,7.63581556384e-05,-0.0009926559869199
1761131953295257900,-0.0230196416378021,-0.028188556432724,0.0246143341064453,0.0001527163112768,7.63581556384e-05,-0.0003817907709162
1761131953305257700,-0.0157125294208526,-0.0256633907556533,0.017425537109375,0.0001527163112768,7.63581556384e-05,-0.0003817907709162
1761131953315257900,-0.0275588333606719,-0.006379097700119,0.029388427734375,-0.0010690141934901,-0.000534507096745,-0.0009926559869199
1761131953325258800,-0.0298737585544586,-0.0157361924648284,0.0198040008544921,-0.0004581489483825,-0.0011453722836449,0.000839939690195
1761131953335258600,-0.0106813311576843,-0.0083705633878707,0.0221929550170898,-0.0004581489483825,-0.0011453722836449,-0.0003817907709162
1761131953345259000,-0.010658174753189,-0.0106053203344345,0.017399787902832,-0.0010690141934901,-0.000534507096745,0.000839939690195
1761131953355259000,0.0037634968757629,-0.0175836533308029,0.0173931121826171,-0.0010690141934901,-0.000534507096745,-0.0003817907709162
1761131953365259000,-0.0129745006561279,-0.0126160830259323,0.0173883438110351,-0.0010690141934901,7.63581556384e-05,0.0002290744741912
1761131953375259000,-0.0057132542133331,-0.0196128636598587,0.0125923156738281,0.0001527163112768,7.63581556384e-05,-0.0003817907709162
1761131953385259000,-0.0032271742820739,-0.0147563964128494,0.0221643447875976,0.0001527163112768,0.00068722339347,-0.0003817907709162
1761131953395259000,-0.0007021129131317,-0.0146842896938323,0.0341291427612304,0.0001527163112768,-0.000534507096745,-0.0009926559869199
1761131953405259000,-0.015072077512741,-0.0122329294681549,0.017369270324707,-0.0004581489483825,-0.0011453722836449,-0.0003817907709162
1761131953415259100,-0.0175365805625915,0.0022425353527069,0.0317335128784179,-0.0004581489483825,7.63581556384e-05,-0.0003817907709162
1761131953425258200,-0.0102859437465667,-0.0191999077796936,0.007786750793457,-0.0004581489483825,-0.000534507096745,-0.0016035212902352
1761131953435258000,0.0064827799797058,-0.0238716304302215,0.0077838897705078,-0.0004581489483825,-0.000534507096745,0.0002290744741912
1761131953445258200,-0.0102696120738983,-0.0213580280542373,0.0125694274902343,-0.0004581489483825,-0.000534507096745,0.0014508049935102
1761131953455258000,-0.0174682438373565,-0.0044600665569305,-0.0017986297607421,0.0001527163112768,-0.000534507096745,-0.0016035212902352
1761131953465258200,-0.0174703299999237,-0.0235770493745803,0.0173540115356445,-0.0004581489483825,7.63581556384e-05,-0.0003817907709162
1761131953475258000,-0.0173845887184143,0.0052799582481384,0.0077705383300781,-0.0010690141934901,7.63581556384e-05,-0.0022143865935504
1761131953485258200,-0.0125318169593811,-0.0137127786874771,0.0173425674438476,-0.0004581489483825,-0.0011453722836449,-0.0009926559869199
1761131953495258000,-0.0149761736392974,-0.0159956216812133,0.0221290588378906,-0.00167987938039,7.63581556384e-05,-0.0003817907709162
1761131953505258200,-0.017275333404541,-0.0181636959314346,0.014937400817871,0.0007635815418325,7.63581556384e-05,-0.0003817907709162
1761131953515258000,-0.0171969234943389,-0.0181562006473541,0.0221176147460937,-0.0004581489483825,-0.000534507096745,-0.0003817907709162
1761131953525259000,-0.0147757232189178,-0.0180354118347167,0.031691551208496,0.0001527163112768,-0.000534507096745,0.0002290744741912
1761131953535259000,-0.0051487684249877,-0.0083741545677185,0.014927864074707,-0.0004581489483825,-0.000534507096745,-0.0009926559869199
1761131953545259000,0.0092248022556304,-0.0082567036151885,0.0197134017944335,-0.00167987938039,-0.000534507096745,-0.0003817907709162
1761131953555259100,-0.0147194266319274,-0.029588371515274,0.0244960784912109,-0.0004581489483825,7.63581556384e-05,-0.0003817907709162
1761131953565259000,-0.0146552324295043,-0.0294443219900131,0.0244903564453125,0.0001527163112768,7.63581556384e-05,-0.0009926559869199
1761131953575259100,-0.0050209164619445,-0.0126609057188034,0.0149116516113281,-0.00167987938039,-0.000534507096745,-0.0003817907709162
1761131953585259000,-0.0050233900547027,-0.0124449580907821,0.0149059295654296,0.0001527163112768,0.00068722339347,-0.0022143865935504
1761131953595259100,-0.0384266376495361,-0.0100027918815612,0.0101127624511718,-0.0010690141934901,7.63581556384e-05,0.0014508049935102
1761131953605259000,0.0047484338283538,-0.0337765961885452,0.0125017166137695,-0.0004581489483825,-0.000534507096745,0.0002290744741912
1761131953615259100,-0.0096119940280914,-0.0240605920553207,0.0101032257080078,0.0001527163112768,-0.000534507096745,-0.0009926559869199
1761131953625258200,-0.0215702652931213,-0.0239819288253784,0.0220718383789062,-0.0004581489483825,0.00068722339347,-0.0003817907709162
1761131953635258000,-0.0118533074855804,-0.0238102227449417,0.0029096603393554,-0.0004581489483825,7.63581556384e-05,-0.0003817907709162
1761131953645258200,-0.0045873820781707,-0.0212701708078384,0.002903938293457,0.0001527163112768,7.63581556384e-05,-0.0016035212902352
1761131953655258000,-0.02125746011734,-0.0139821618795394,0.0148696899414062,-0.0010690141934901,-0.000534507096745,0.0002290744741912
1761131953665258200,-0.0212215483188629,-0.0185495913028717,0.0100746154785156,0.0007635815418325,7.63581556384e-05,-0.0003817907709162
1761131953675258000,-0.0163395404815673,-0.0161065161228179,0.0196466445922851,-0.0004581489483825,-0.000534507096745,0.0002290744741912
1761131953685258200,-0.0139053463935852,-0.0063477605581283,0.0124588012695312,-0.0004581489483825,0.00068722339347,-0.0003817907709162
1761131953695258000,0.0006236135959625,-0.0277608186006546,0.029210090637207,-0.0004581489483825,-0.000534507096745,0.0002290744741912
1761131953705258200,-0.0113252401351928,-0.0036586225032806,0.0124464035034179,0.0001527163112768,0.00068722339347,0.0002290744741912
1761131953715258000,0.0055643916130065,-0.0227391272783279,0.0363826751708984,0.0001527163112768,-0.0011453722836449,-0.0003817907709162
1761131953725259000,0.0054979026317596,-0.0370327532291412,0.0100460052490234,-0.0004581489483825,7.63581556384e-05,-0.0009926559869199
1761131953735259100,-0.015986829996109,-0.0105337351560592,0.0220117568969726,-0.0004581489483825,-0.000534507096745,-0.0016035212902352
1761131953745259000,0.0007798075675964,-0.0319453030824661,0.0291900634765625,0.0001527163112768,-0.000534507096745,-0.0016035212902352
1761131953755259100,0.003163456916809,0.0040821880102157,0.0387649536132812,-0.0004581489483825,-0.000534507096745,-0.0003817907709162
1761131953765259000,-0.0112330913543701,-0.0293222814798355,0.0124273300170898,0.0001527163112768,-0.000534507096745,-0.0009926559869199
1761131953775259100,-0.0256071388721466,-0.0124667286872863,0.029184341430664,-0.0004581489483825,7.63581556384e-05,-0.0003817907709162
1761131953785259000,-0.0255234837532043,-0.012320652604103,0.0291776657104492,-0.0004581489483825,0.0012980886967852,-0.0009926559869199
1761131953795259100,-0.0085956454277038,-0.0026490837335586,0.0219879150390625,-0.0010690141934901,-0.0011453722836449,-0.0016035212902352
1761131953805259000,-0.0206394791603088,0.0022869110107421,0.0124101638793945,-0.0004581489483825,7.63581556384e-05,0.0002290744741912
1761131953815259100,-0.0229837298393249,-0.0048109292984008,0.0267715454101562,-0.0010690141934901,7.63581556384e-05,-0.0003817907709162
1761131953825258200,-0.0085543990135192,-0.007061094045639,0.0147953033447265,0.0001527163112768,7.63581556384e-05,-0.0003817907709162
1761131953835258000,-0.01567804813385,0.0049154162406921,0.0147933959960937,-0.0004581489483825,-0.000534507096745,-0.0003817907709162
1761131953845258200,0.0034678280353546,-0.0093724280595779,0.0100030899047851,0.0001527163112768,0.00068722339347,-0.0003817907709162
1761131953855258000,-0.0060110688209533,-0.002180278301239,0.0147876739501953,0.0001527163112768,-0.0017562375869601,0.000839939690195
1761131953865258200,-0.01812145113945,0.0002204179763793,0.0291576385498046,0.0001527163112768,7.63581556384e-05,-0.0009926559869199
1761131953875258000,-0.0156676769256591,-0.0069576352834701,0.0315504074096679,-0.0004581489483825,-0.000534507096745,-0.0016035212902352
1761131953885258200,-0.0132776498794555,-0.0116898268461227,0.0147895812988281,-0.0010690141934901,-0.000534507096745,-0.0009926559869199
1761131953895258000,-0.0132710635662078,-0.0115526467561721,0.0147857666015625,-0.0010690141934901,7.63581556384e-05,-0.0003817907709162
1761131953905258200,-0.0012340545654296,0.0005432069301605,0.014780044555664,-0.0004581489483825,-0.0011453722836449,-0.0003817907709162
1761131953915258000,-0.0180597603321075,-0.0305101573467254,0.0339345932006835,0.0001527163112768,7.63581556384e-05,-0.0003817907709162
1761131953925259000,0.0059391558170318,-0.0137257426977157,0.0435085296630859,0.0001527163112768,7.63581556384e-05,-0.0003817907709162
1761131953935259100,-0.0179459452629089,-0.0113065540790557,0.0339298248291015,-0.0004581489483825,7.63581556384e-05,-0.0003817907709162
1761131953945259000,-0.0131068229675292,-0.0184056758880615,0.0171680450439453,0.0001527163112768,7.63581556384e-05,-0.0016035212902352
1761131953955259100,-0.0082404613494873,-0.0207745730876922,0.0171642303466796,0.0007635815418325,0.00068722339347,0.0002290744741912
1761131953965259000,-0.0129100382328033,-0.0016279071569442,0.0243434906005859,-0.0010690141934901,-0.0011453722836449,-0.0016035212902352
1761131953975259100,-0.0201655030250549,-0.0182397067546844,0.0243415832519531,-0.0004581489483825,7.63581556384e-05,-0.0009926559869199
1761131953985259000,-0.0152887105941772,-0.0205277800559997,0.0195474624633789,-0.0010690141934901,-0.0011453722836449,-0.0003817907709162
1761131953995259100,-0.0129342079162597,-0.0107582807540893,0.0267276763916015,-0.0004581489483825,-0.000534507096745,-0.0003817907709162
1761131954005259000,-0.0152992010116577,-0.0250225365161895,0.0171480178833007,0.0001527163112768,7.63581556384e-05,-0.0009926559869199
1761131954015259100,-0.0271753370761871,-0.0249397903680801,0.0099592208862304,-0.0004581489483825,-0.0011453722836449,-0.0003817907709162
1761131954025258200,-0.0152201950550079,-0.0343611985445022,0.0003795623779296,0.0001527163112768,7.63581556384e-05,-0.0003817907709162
1761131954035258000,-0.0079131126403808,-0.0007114112377166,0.0171327590942382,0.0007635815418325,0.00068722339347,-0.0016035212902352
1761131954045258200,-0.0173127055168151,-0.00069560110569,0.0171270370483398,-0.0010690141934901,-0.000534507096745,-0.0022143865935504
1761131954055258000,-0.0052989721298217,-0.0029114335775375,0.0266981124877929,-0.0010690141934901,-0.000534507096745,-0.0003817907709162
1761131954065258200,-0.0005086362361907,-0.0147052854299545,0.0171165466308593,-0.0004581489483825,-0.000534507096745,-0.0009926559869199
1761131954075258000,0.0018959045410156,-0.0002421140670776,0.0075368881225585,0.0001527163112768,0.00068722339347,0.000839939690195
1761131954085258200,-0.0099612772464752,-0.0145745277404785,0.0171098709106445,0.0001527163112768,7.63581556384e-05,0.0002290744741912
1761131954095258000,-0.0075128078460693,-0.0025581121444702,0.0147123336791992,0.0001527163112768,7.63581556384e-05,-0.0009926559869199
1761131954105258200,-0.0194436907768249,-0.0169202834367752,0.0218944549560546,-0.0010690141934901,-0.000534507096745,-0.0009926559869199
1761131954115258000,-0.0122568905353546,-0.0239464044570922,0.0147066116333007,0.0001527163112768,0.00068722339347,0.0002290744741912
1761131954125259000,-0.0193267166614532,4.71621751785e-05,0.0266742706298828,0.0007635815418325,-0.0011453722836449,-0.0016035212902352
1761131954135259000,-0.0145928561687469,-0.0191344022750854,0.017099380493164,-0.0004581489483825,7.63581556384e-05,-0.0016035212902352
1761131954145259000,0.0046497285366058,-0.0142408162355422,0.0242767333984375,-0.00167987938039,-0.000534507096745,-0.0016035212902352
1761131954155259000,-0.0097164511680603,0.0027328580617904,0.0194826126098632,0.0001527163112768,-0.000534507096745,-0.0022143865935504
1761131954165259000,-0.0049295425415039,0.0027686059474945,0.0146942138671875,-0.0004581489483825,-0.0011453722836449,-0.0009926559869199
1761131954175259000,-0.0145716071128845,-0.0163144916296005,0.0218772888183593,-0.0004581489483825,-0.000534507096745,-0.0009926559869199
1761131954185259000,-0.005001962184906,-0.016238048672676,0.0146923065185546,0.0001527163112768,7.63581556384e-05,-0.0016035212902352
1761131954195259100,0.0022195577621459,-0.0138225704431533,0.0146913528442382,0.0001527163112768,0.00068722339347,-0.0003817907709162
1761131954205259000,-0.0240012407302856,-0.0185798853635787,0.0170812606811523,-0.0004581489483825,-0.0017562375869601,-0.0003817907709162
1761131954215259000,0.004600316286087,-0.0328409224748611,0.0170831680297851,-0.0004581489483825,7.63581556384e-05,-0.0003817907709162
1761131954235258000,-0.0072771906852722,-0.0230185836553573,0.0194673538208007,-0.0010690141934901,-0.000534507096745,0.0002290744741912
1761131954245258200,-0.0072786509990692,-0.0228213965892791,0.0194625854492187,-0.0004581489483825,-0.000534507096745,0.0002290744741912
1761131954255258000,-0.0120774209499359,-0.0059641450643539,0.0266437530517578,-0.0010690141934901,-0.0011453722836449,-0.0003817907709162
1761131954265258200,-0.0145285427570343,-0.0225527584552764,0.0146703720092773,-0.0004581489483825,-0.0011453722836449,-0.0016035212902352
1761131954275258000,-0.002606838941574,0.003894105553627,0.0290336608886718,0.0001527163112768,0.00068722339347,-0.0003817907709162
1761131954285258200,-0.0168761610984802,-0.0128362327814102,0.0146656036376953,-0.0010690141934901,-0.000534507096745,0.0002290744741912
1761131954295258000,-0.0072963833808898,-0.0126778483390808,0.019449234008789,0.0001527163112768,-0.000534507096745,-0.0009926559869199
1761131954305258200,-0.0072994232177734,-0.012640431523323,0.019449234008789,0.0007635815418325,-0.000534507096745,-0.0003817907709162
1761131954315258000,-0.0144794881343841,-0.0222368538379669,0.019449234008789,-0.0004581489483825,7.63581556384e-05,-0.0003817907709162
1761131954325259000,-6.55353069305e-05,0.006596565246582,0.0122632980346679,-0.0010690141934901,-0.000534507096745,-0.0009926559869199
1761131954335259000,-0.0192344486713409,-0.0315562039613723,0.0314130783081054,0.0001527163112768,-0.000534507096745,-0.0009926559869199
1761131954345259000,-0.0096428990364074,-0.0075550228357315,0.0170469284057617,-0.0010690141934901,7.63581556384e-05,-0.0009926559869199
1761131954355259000,-0.0071860253810882,-0.0217576175928115,0.0122528076171875,0.0001527163112768,-0.000534507096745,-0.0009926559869199
1761131954365259000,0.0047994256019592,-0.0073334276676177,0.0218276977539062,0.0001527163112768,-0.000534507096745,-0.0009926559869199
1761131954375259000,-0.0143784880638122,-0.0168551355600357,0.017038345336914,-0.0004581489483825,7.63581556384e-05,0.0002290744741912
1761131954385259000,-0.011918693780899,-0.0239122360944747,0.0313987731933593,0.0001527163112768,7.63581556384e-05,0.0002290744741912
1761131954395259100,0.0072869062423706,-0.0046933889389038,0.0218181610107421,-0.0004581489483825,-0.000534507096745,-0.0003817907709162
1761131954405259000,-0.0142706930637359,-0.0213558971881866,0.0266056060791015,-0.0010690141934901,7.63581556384e-05,-0.0016035212902352
1761131954415259100,-0.0214115381240844,-0.0235709547996521,0.0337820053100585,-0.0004581489483825,-0.0011453722836449,0.0002290744741912
1761131954425258200,-0.0214650034904479,-0.0234382152557373,0.0337800979614257,-0.0004581489483825,-0.000534507096745,-0.0009926559869199
1761131954435258400,-0.0070737600326538,0.0078256428241729,0.0098342895507812,-0.0010690141934901,-0.000534507096745,-0.0003817907709162
1761131954445258200,0.0001124739646911,-0.0255357474088668,0.0289840698242187,-0.0010690141934901,-0.000534507096745,0.0002290744741912
1761131954455258400,-0.0214539170265197,0.0129473209381103,0.0194034576416015,-0.0004581489483825,7.63581556384e-05,-0.0009926559869199
1761131954465258200,-0.0165946781635284,0.008243516087532,0.0170049667358398,-0.0010690141934901,7.63581556384e-05,-0.0003817907709162
1761131954475258000,-0.0165305137634277,0.0083875656127929,0.0170001983642578,0.0007635815418325,7.63581556384e-05,0.0002290744741912
1761131954485258200,-0.0260626077651977,-0.0203966498374938,0.0193939208984375,0.0001527163112768,7.63581556384e-05,-0.0003817907709162
1761131954495258000,0.000349998474121,0.0035723745822906,0.0265741348266601,0.0001527163112768,7.63581556384e-05,0.0002290744741912
1761131954505258200,-0.0115822255611419,-0.0131826549768447,0.0169954299926757,-0.0010690141934901,7.63581556384e-05,0.0002290744741912
1761131954515258000,-0.0043361186981201,-0.0154318362474441,0.0193843841552734,0.0007635815418325,7.63581556384e-05,-0.0009926559869199
1761131954525259000,-0.0090803802013397,-0.0034973472356796,0.0098066329956054,-0.0010690141934901,-0.000534507096745,-0.0003817907709162
1761131954535259100,0.0028788149356842,-0.0009867250919342,0.0121994018554687,-0.0010690141934901,0.00068722339347,-0.0009926559869199
1761131954545259000,-0.0042172670364379,-0.0104376971721649,0.0241641998291015,-0.0004581489483825,7.63581556384e-05,-0.0009926559869199
1761131954555259100,0.0053962767124176,-0.0007843524217605,0.0169792175292968,-0.0004581489483825,-0.0011453722836449,-0.0016035212902352
1761131954565259000,0.005294531583786,-0.0103151649236679,0.0217695236206054,0.0001527163112768,7.63581556384e-05,0.0002290744741912
1761131954575259100,-0.0066746771335601,0.0112134665250778,0.0241641998291015,0.0001527163112768,0.00068722339347,-0.0009926559869199
1761131954585259000,-0.0065935850143432,0.0112005621194839,0.0241613388061523,0.0007635815418325,7.63581556384e-05,0.0002290744741912
1761131954595259100,-0.0089800357818603,0.0039405524730682,-0.0021724700927734,0.0001527163112768,0.00068722339347,0.0002290744741912
1761131954605259000,-0.0161023139953613,-0.0032551288604736,0.0169792175292968,0.0001527163112768,-0.000534507096745,-0.0009926559869199
1761131954615259100,-0.0185341536998748,-0.0032605677843093,0.0265569686889648,-0.0004581489483825,-0.0011453722836449,-0.0009926559869199
1761131954625258200,0.0005363225936889,0.0063650161027908,0.0241641998291015,0.0001527163112768,0.00068722339347,-0.0009926559869199
1761131954635258400,-0.0065649151802062,-0.0128013342618942,0.0361337661743164,-0.0010690141934901,-0.000534507096745,-0.0016035212902352
1761131954645258200,-0.016189306974411,0.013625830411911,0.0313444137573242,-0.0004581489483825,-0.0011453722836449,-0.0003817907709162
1761131954655258400,-0.0186668932437896,0.0184641629457473,0.021768569946289,-0.0010690141934901,7.63581556384e-05,-0.0003817907709162
1761131954665258200,-0.0185986757278442,0.0185692012310028,0.021763801574707,-0.0010690141934901,0.00068722339347,-0.0003817907709162
1761131954675258400,0.0006642043590545,-0.0172542035579681,0.0169706344604492,-0.0004581489483825,-0.000534507096745,-0.0009926559869199
1761131954685258200,0.0102164149284362,-0.0004399120807647,0.0265464782714843,-0.0004581489483825,-0.000534507096745,-0.0016035212902352
1761131954695258400,0.014963686466217,-0.0051956623792648,0.021759033203125,0.0001527163112768,7.63581556384e-05,-0.0028252517804503
1761131954705258200,-0.0017924904823303,0.0091658532619476,0.0265474319458007,0.0001527163112768,7.63581556384e-05,-0.0003817907709162
1761131954715258000,0.010200411081314,-0.017188474535942,0.0241518020629882,-0.0004581489483825,0.00068722339347,-0.0009926559869199
1761131954725259000,-0.0232434272766113,-0.0027776658535003,0.0145721435546875,-0.0004581489483825,-0.000534507096745,-0.0003817907709162
1761131954735259100,-0.0233056247234344,-0.0027453899383544,0.0145740509033203,0.0007635815418325,7.63581556384e-05,-0.0003817907709162
1761131954745259000,0.0126141905784606,-0.0195637494325637,0.0145750045776367,0.0001527163112768,-0.000534507096745,0.0002290744741912
1761131954755259100,0.0053944587707519,-0.0147986114025115,0.0097875595092773,-0.0010690141934901,7.63581556384e-05,-0.0016035212902352
1761131954765259000,0.005403310060501,-0.0146820843219757,0.0241498947143554,0.0001527163112768,-0.000534507096745,0.0002290744741912
1761131954775259100,-0.0042303502559661,-0.0099186301231384,0.0337285995483398,0.0001527163112768,7.63581556384e-05,-0.0022143865935504
1761131954785259000,-0.0113888680934906,-0.0075451731681823,0.012181282043457,0.0001527163112768,7.63581556384e-05,-0.0003817907709162
1761131954795259100,0.0149480998516082,-0.0003629922866821,0.0217580795288085,0.0001527163112768,7.63581556384e-05,0.000839939690195
1761131954805259000,-0.0161561369895935,0.0020147860050201,0.0073928833007812,0.0007635815418325,7.63581556384e-05,-0.0003817907709162
1761131954815259100,-0.0017823576927185,-0.0004580467939376,0.0217599868774414,0.0001527163112768,7.63581556384e-05,0.000839939690195
1761131954825258200,-0.001783400774002,-0.0004564821720123,0.0217599868774414,0.0001527163112768,-0.0011453722836449,-0.0009926559869199
1761131954835258400,0.0005143284797668,-0.0124392509460449,0.0193681716918945,-0.0004581489483825,-0.000534507096745,-0.0016035212902352
1761131954845258200,-0.0234688520431518,-0.0052240192890167,0.0145807266235351,-0.0004581489483825,-0.0011453722836449,0.000839939690195
1761131954855258000,-0.0020450055599212,0.0020061135292053,0.016977310180664,0.0001527163112768,7.63581556384e-05,-0.0003817907709162
1761131954865258200,-0.0139960944652557,0.0067959427833557,0.0289478302001953,-0.0004581489483825,-0.0017562375869601,-0.0016035212902352
1761131954875258000,-0.0141758322715759,-0.0027430355548858,0.0241641998291015,-0.0004581489483825,-0.0011453722836449,-0.0016035212902352
1761131954885258200,-0.0286427438259124,0.0068797767162323,0.0097999572753906,-0.0004581489483825,7.63581556384e-05,0.0002290744741912
1761131954895258000,-0.0094348788261413,-0.0002573877573013,0.0169801712036132,-0.0010690141934901,-0.000534507096745,-0.0016035212902352
1761131954905258200,-0.0142336189746856,-0.0145079046487808,0.0074014663696289,0.0007635815418325,-0.000534507096745,-0.0003817907709162
1761131954915258400,-0.0190154910087585,-0.0002018064260482,0.0145845413208007,0.0001527163112768,7.63581556384e-05,-0.0016035212902352
1761131954925259000,-0.0117704570293426,-0.0121885240077972,0.0050067901611328,-0.0010690141934901,7.63581556384e-05,-0.0009926559869199
1761131954935259100,-0.0188862383365631,-9.39071178436e-05,0.0121841430664062,-0.0004581489483825,-0.000534507096745,0.000839939690195
1761131954945259000,-0.0069029629230499,-0.0120033323764801,0.0097885131835937,0.0001527163112768,-0.000534507096745,-0.0016035212902352
1761131954955259100,-0.0069010257720947,-0.0167940258979797,0.0002117156982421,-0.0010690141934901,-0.000534507096745,-0.0016035212902352
1761131954965259000,0.0002692341804504,0.0096763968467712,0.0241508483886718,0.0001527163112768,7.63581556384e-05,-0.0003817907709162
1761131954975259100,-0.0164314806461334,-0.0118656158447265,0.007390022277832,0.0001527163112768,-0.000534507096745,-0.0009926559869199
1761131954985259000,-0.0212380588054656,-0.0118690282106399,0.0337257385253906,0.0001527163112768,-0.000534507096745,0.0002290744741912
1761131954995259100,-0.0092693269252777,-0.0166376084089279,0.0217552185058593,-0.0004581489483825,-0.000534507096745,-0.0009926559869199
1761131955005259000,-0.0140648484230041,0.0073808580636978,0.0097818374633789,-0.0004581489483825,-0.000534507096745,0.0002290744741912
1761131955015259100,-0.0140517055988311,-0.011711910367012,0.0145683288574218,0.0001527163112768,7.63581556384e-05,-0.0003817907709162
1761131955025258200,-0.0044180154800415,-0.0260521173477172,0.0073843002319335,-0.0004581489483825,-0.000534507096745,-0.0003817907709162
1761131955035258000,-0.0068004727363586,0.0003635138273239,0.0121707916259765,0.0001527163112768,-0.000534507096745,-0.0009926559869199
1761131955045258200,-0.0283685028553009,0.0195332020521163,0.019352912902832,0.0001527163112768,-0.000534507096745,-0.0016035212902352
1761131955055258000,-0.009207934141159,0.009950116276741,0.019352912902832,0.0001527163112768,7.63581556384e-05,-0.0003817907709162
1761131955065258200,-0.0187238156795501,0.0099361091852188,0.0121688842773437,0.0001527163112768,7.63581556384e-05,-0.0016035212902352
1761131955075258000,-0.0042961835861206,-0.0020506083965301,0.0217447280883789,-0.0004581489483825,7.63581556384e-05,0.000839939690195
1761131955085258200,-0.0066392719745635,0.009986400604248,0.009770393371582,-0.0010690141934901,-0.000534507096745,0.0002290744741912
1761131955095258000,-0.0186206698417663,-0.0186461955308914,0.004979133605957,-0.0004581489483825,-0.000534507096745,-0.0016035212902352
1761131955105258200,-0.009046047925949,-0.0090326964855194,0.0337095260620117,-0.0010690141934901,0.00068722339347,0.0002290744741912
1761131955115258000,0.0030487775802612,0.0078581124544143,0.0241260528564453,-0.0004581489483825,0.00068722339347,-0.0003817907709162
1761131955125259000,-0.0255874693393707,0.0150894671678543,0.0265159606933593,-0.0010690141934901,7.63581556384e-05,0.0002290744741912
1761131955135259100,-0.0063860714435577,-0.008748784661293,0.0265121459960937,0.0001527163112768,-0.000534507096745,0.0002290744741912
1761131955145259000,-0.0064057409763336,-0.0039620995521545,0.0217247009277343,0.0001527163112768,0.00068722339347,-0.0003817907709162
1761131955155259100,-0.0063037574291229,0.0079794377088546,0.0289039611816406,-0.0004581489483825,-0.000534507096745,0.0002290744741912
1761131955165259000,-0.0159063637256622,-0.0063289850950241,0.002568244934082,0.0007635815418325,-0.000534507096745,-0.0003817907709162
1761131955175259100,-0.013525366783142,-0.0039956420660018,0.0049638748168945,-0.0004581489483825,-0.000534507096745,0.0002290744741912
1761131955185259000,0.0008355975151062,-0.0111389309167861,0.0265111923217773,-0.0004581489483825,-0.000534507096745,-0.0009926559869199
1761131955195259100,-0.0159286558628082,0.0104660391807556,0.0097503662109375,0.0001527163112768,7.63581556384e-05,-0.0009926559869199
1761131955205259000,-0.0206750035285949,-0.0158872008323669,0.0193262100219726,-0.0004581489483825,7.63581556384e-05,0.0002290744741912
1761131955215259100,0.0081270933151245,0.0057275891304016,0.0265045166015625,0.0001527163112768,-0.000534507096745,0.0002290744741912
1761131955225258200,-0.0134794116020202,-0.0134318023920059,0.014535903930664,-0.0004581489483825,7.63581556384e-05,-0.0009926559869199
1761131955235258000,0.0057101547718048,0.0033691078424453,0.0217161178588867,-0.0010690141934901,-0.0011453722836449,-0.0016035212902352
1761131955245258200,-0.0159454941749572,-0.020468384027481,0.0145339965820312,0.0001527163112768,-0.000534507096745,-0.0003817907709162
1761131955255258000,-0.0111779570579528,-0.0060861408710479,0.019322395324707,-0.0004581489483825,-0.0011453722836449,-0.0003817907709162
1761131955265258200,-0.0160500705242156,0.0011461973190307,0.0121421813964843,0.0007635815418325,-0.0011453722836449,0.0002290744741912
1761131955275258000,-0.0257012248039245,0.0106764733791351,0.0217218399047851,0.0001527163112768,-0.000534507096745,-0.0003817907709162
1761131955285258200,0.015000581741333,0.0106758624315261,0.0241155624389648,-0.0004581489483825,7.63581556384e-05,-0.0003817907709162
1761131955295258000,-0.0113197863101959,-0.0084373503923416,0.0217208862304687,-0.0004581489483825,7.63581556384e-05,-0.0003817907709162
1761131955305258200,-0.011303961277008,-0.0083969235420227,0.0217189788818359,-0.0004581489483825,-0.000534507096745,-0.0009926559869199
1761131955315258000,-0.0137419700622558,-0.0131322741508483,0.0097475051879882,-0.0010690141934901,0.00068722339347,0.0002290744741912
1761131955325259000,0.0007080435752868,-0.005822330713272,0.0073490142822265,-0.0004581489483825,-0.000534507096745,-0.0028252517804503
1761131955335259100,0.0006684064865112,-0.0081855952739715,0.014531135559082,-0.0004581489483825,-0.0011453722836449,-0.0003817907709162
1761131955345259000,-0.0090116560459136,-0.0153205245733261,0.009744644165039,0.0001527163112768,7.63581556384e-05,0.0002290744741912
1761131955355259000,-0.0137614607810974,0.0014435797929763,0.0169258117675781,-0.0004581489483825,-0.000534507096745,-0.0003817907709162
1761131955365259000,-0.0209713280200958,-0.0128462612628936,0.0241079330444335,-0.0003054326225537,-0.0003054326225537,-7.63581556384e-05
1761131955375259100,-0.0066100060939788,-0.0032307654619216,0.0193185806274414,-0.0003054326225537,0.0003054326225537,-7.63581556384e-05
1761131955385259000,-0.0113459825515747,-0.000771939754486,0.0288915634155273,0.0003054326225537,0.0009162978967651,-7.63581556384e-05
1761131955395259000,-0.0040618181228637,-0.0127717554569244,0.0264968872070312,-0.0003054326225537,-0.0003054326225537,-7.63581556384e-05
1761131955405259000,-0.0040679275989532,-0.0270784497261047,0.0145235061645507,-0.0009162978967651,-0.0009162978967651,-7.63581556384e-05
1761131955415259100,0.0102462768554687,-0.0006296038627624,0.0145225524902343,-0.0003054326225537,0.0009162978967651,-7.63581556384e-05
1761131955425258200,-0.00163334608078,-0.0077435225248336,0.0145177841186523,-0.001527163083665,0.0003054326225537,-0.00068722339347
1761131955435258000,0.0055746436119079,0.0067613571882247,0.0312747955322265,-0.0009162978967651,0.0009162978967651,-0.0012980886967852
1761131955445258200,-0.0158821642398834,-0.0242770463228225,0.0264806747436523,-0.0009162978967651,0.0003054326225537,-7.63581556384e-05
1761131955455258000,-0.0182300508022308,-0.0097887068986892,0.0025348663330078,0.0009162978967651,-0.0003054326225537,-0.00068722339347
1761131955465258200,-0.006271868944168,0.0093034207820892,0.0264787673950195,-0.0003054326225537,0.0009162978967651,0.000534507096745
1761131955475258000,-0.0181479752063751,0.0141224712133407,0.0145034790039062,-0.0003054326225537,-0.0009162978967651,0.000534507096745
1761131955485258000,0.0032976567745208,0.0093638151884078,0.0097169876098632,-0.0009162978967651,0.0009162978967651,-0.00068722339347
1761131955495258000,-0.0133716166019439,-0.0073086321353912,0.0049247741699218,0.0003054326225537,-0.0009162978967651,-0.00068722339347
1761131955505258000,0.0008987486362457,0.0022375136613845,0.02886962890625,-0.0003054326225537,-0.001527163083665,-0.00068722339347
1761131955515258000,-0.0088372528553009,-0.0025289207696914,0.019296646118164,-0.0003054326225537,-0.0003054326225537,0.000534507096745
1761131955525259000,-0.0088615715503692,-0.0168567299842834,0.0264797210693359,0.0003054326225537,0.0003054326225537,-7.63581556384e-05
1761131955535259000,-0.0016553997993469,-0.0049226880073547,0.0169029235839843,-0.0003054326225537,-0.0009162978967651,-0.0012980886967852
1761131955545259000,-0.0041301846504211,-0.0216529369354248,0.0073280334472656,0.0009162978967651,0.0003054326225537,0.0017562375869601
1761131955555259000,-0.0113067328929901,-0.0001805126667022,0.0073299407958984,0.0003054326225537,0.0009162978967651,-0.00068722339347
1761131955565259000,-0.011204183101654,0.006972536444664,0.0192985534667968,-0.0003054326225537,0.0003054326225537,-0.00068722339347
1761131955575259000,-0.0135801136493682,0.0022044330835342,0.019296646118164,0.0003054326225537,-0.0003054326225537,-0.0012980886967852
1761131955585259000,-0.018404334783554,-0.0121862441301345,0.0216932296752929,0.0003054326225537,-0.0003054326225537,-0.00068722339347
1761131955595259000,-0.0064108967781066,-0.0169928669929504,0.014510154724121,-0.0009162978967651,-0.0003054326225537,-7.63581556384e-05
1761131955605259000,-0.0136055052280426,-0.0025109648704528,0.0216913223266601,-0.0009162978967651,0.0003054326225537,-7.63581556384e-05
1761131955615259000,0.0008275210857391,-0.0024052858352661,0.0145025253295898,-0.0003054326225537,0.0003054326225537,-0.00068722339347
1761131955625258200,-0.0063000917434692,-0.0071495026350021,0.0216836929321289,-0.0003054326225537,0.0009162978967651,-0.00068722339347
1761131955635258000,-0.0085982084274292,-0.0047265440225601,0.026468276977539,0.0003054326225537,0.0003054326225537,-0.00068722339347
1761131955645258200,-0.0037504732608795,0.0096435248851776,0.0264663696289062,-0.0003054326225537,-0.0003054326225537,-0.00068722339347
1761131955655258000,-0.0109536945819854,-0.0190701633691787,0.016890525817871,-0.0009162978967651,-0.0009162978967651,-0.00068722339347
1761131955665258200,0.0009276568889617,0.0001913756132125,0.0097074508666992,-0.0003054326225537,0.0003054326225537,-7.63581556384e-05
1761131955675258000,-0.0205830037593841,0.0145798474550247,0.0240707397460937,-0.0003054326225537,0.0003054326225537,-0.00068722339347
1761131955685258200,-0.0013938844203948,0.0002567917108535,0.0360403060913085,0.0003054326225537,-0.0003054326225537,0.000534507096745
1761131955695258000,-0.0205830037593841,-0.0069679617881774,0.0264654159545898,-0.0009162978967651,-0.001527163083665,-7.63581556384e-05
1761131955705258200,0.0008355677127838,0.0075020194053649,0.0216779708862304,-0.0003054326225537,0.0003054326225537,-0.0012980886967852
1761131955715258000,-0.0063084065914154,-0.0164183974266052,0.021677017211914,0.0003054326225537,0.0009162978967651,-0.0012980886967852
1761131955725259000,-0.00383061170578,-0.0164509266614913,0.043222427368164,-0.0003054326225537,-0.0003054326225537,-7.63581556384e-05
1761131955735259000,0.0033284127712249,0.0003454536199569,0.0120983123779296,0.0003054326225537,-0.0003054326225537,0.000534507096745
1761131955745259000,-0.0014978647232055,-0.0020715743303298,0.021677017211914,-0.0003054326225537,-0.0003054326225537,-0.0012980886967852
1761131955755259100,0.0008570253849029,0.0075186491012573,0.0168886184692382,-0.0009162978967651,0.0009162978967651,0.0017562375869601
1761131955765259000,0.0105190277099609,0.0076289772987365,0.0336427688598632,-0.0003054326225537,-0.0003054326225537,-7.63581556384e-05
1761131955775259100,-0.0086756646633148,-0.0115092247724533,0.0025196075439453,-0.0009162978967651,-0.0003054326225537,-7.63581556384e-05
1761131955785259000,-0.0302531123161315,-0.0114137232303619,0.0264606475830078,-0.0003054326225537,0.0009162978967651,-7.63581556384e-05
1761131955795259100,-0.0229748487472534,0.0053750574588775,0.0216684341430664,-0.0003054326225537,0.0003054326225537,-7.63581556384e-05
1761131955805259000,-0.0133436024188995,0.0030259937047958,0.0120887756347656,-0.0003054326225537,0.0003054326225537,-0.0012980886967852
1761131955815259100,-0.0132856369018554,0.0030499249696731,0.0120859146118164,0.0003054326225537,0.0003054326225537,-0.00068722339347
1761131955825258200,-0.0108498036861419,-0.0185142457485198,0.014479637145996,-0.0003054326225537,-0.0003054326225537,-0.00068722339347
1761131955835258000,-0.0180161595344543,-0.0041092634201049,0.0264492034912109,0.0003054326225537,-0.0009162978967651,-0.00068722339347
1761131955845258200,-0.0037086308002471,-0.0208755433559417,0.0264511108398437,-0.0003054326225537,-0.0003054326225537,0.0011453722836449
1761131955855258000,-0.0060929358005523,0.0103308409452438,0.0216608047485351,0.0003054326225537,-0.0003054326225537,-7.63581556384e-05
1761131955865258200,0.0082743167877197,-0.0208132863044738,0.0216608047485351,-0.0003054326225537,-0.0009162978967651,-7.63581556384e-05
1761131955875258000,-0.0013864338397979,-0.0016096234321594,0.0240554809570312,0.0009162978967651,-0.0003054326225537,0.000534507096745
1761131955885258200,-0.0181772708892822,0.0007034242153167,0.0144815444946289,-0.0009162978967651,0.0003054326225537,-0.00068722339347
1761131955895258000,-0.0157341659069061,0.0032003074884414,0.0216617584228515,-0.0003054326225537,0.0009162978967651,-0.0012980886967852
1761131955905258200,-0.041954219341278,-0.027894452214241,0.0240507125854492,-0.0003054326225537,0.0003054326225537,-7.63581556384e-05
1761131955915258000,-0.0131342411041259,0.0009238570928573,0.031229019165039,-0.0009162978967651,-0.0003054326225537,-7.63581556384e-05
1761131955925259000,0.0012598037719726,0.0010254681110382,-0.0022926330566406,-0.0003054326225537,0.0003054326225537,-0.00068722339347
1761131955935259100,-0.0154268443584442,-0.010879635810852,0.0192508697509765,-0.0003054326225537,-0.001527163083665,-7.63581556384e-05
1761131955945259000,-0.025107055902481,-0.0012548267841339,0.0216474533081054,0.0009162978967651,-0.0003054326225537,-7.63581556384e-05
1761131955955259100,-0.00832000374794,-0.008513405919075,0.0096769332885742,-0.0003054326225537,0.0003054326225537,-7.63581556384e-05
1761131955965259000,-0.0010655522346496,0.0274662971496582,0.0144615173339843,0.0009162978967651,0.0003054326225537,-7.63581556384e-05
1761131955975259000,-0.0081794261932373,-0.0061439275741577,0.0168561935424804,-0.001527163083665,-0.0003054326225537,-7.63581556384e-05
1761131955985259000,0.0157659947872161,-0.0131687819957733,0.012063980102539,0.0003054326225537,-0.0003054326225537,0.000534507096745
1761131955995259000,-0.017790675163269,-0.0012206137180328,0.0024890899658203,-0.0003054326225537,-0.0009162978967651,0.000534507096745
1761131956005259000,-0.0226812660694122,-0.0011908560991287,0.0288267135620117,0.0003054326225537,0.0003054326225537,-7.63581556384e-05
1761131956015259000,0.0037370324134826,0.0227203071117401,0.0192489624023437,-0.0009162978967651,0.0009162978967651,-7.63581556384e-05
1761131956025258200,0.001430332660675,0.003674104809761,0.0216388702392578,-0.0003054326225537,0.0003054326225537,-7.63581556384e-05
1761131956035258400,-0.0129173994064331,0.006089836359024,0.0264253616333007,0.0003054326225537,0.0003054326225537,-0.0012980886967852
1761131956045258200,-0.0056902468204498,-0.0059177875518798,0.0216360092163085,0.0003054326225537,-0.0003054326225537,-7.63581556384e-05
1761131956055258400,0.0158205926418304,-0.0011529624462127,0.016850471496582,0.0003054326225537,-0.0003054326225537,0.000534507096745
1761131956065258200,-0.0225241482257843,0.0107954144477844,0.0144577026367187,0.0009162978967651,0.0003054326225537,-7.63581556384e-05
1761131956075258400,-0.0033406913280487,0.0011227875947952,0.0240354537963867,0.0003054326225537,-0.0003054326225537,-0.00068722339347
1761131956085258200,-0.0201364159584045,0.0010982751846313,0.0216436386108398,0.0009162978967651,-0.0003054326225537,-7.63581556384e-05
1761131956095258400,-0.0034058690071105,-0.0109743326902389,0.0096750259399414,-0.001527163083665,0.0003054326225537,-7.63581556384e-05
1761131956105258200,-0.0105657577514648,0.0083393901586532,0.0264301300048828,-0.0003054326225537,0.0009162978967651,-0.00068722339347
1761131956115258400,0.0206551253795623,-0.0012089759111404,0.0144548416137695,-0.0003054326225537,-0.0003054326225537,-0.0012980886967852
1761131956125259300,0.0086445808410644,-0.003589391708374,0.0120620727539062,0.0003054326225537,-0.0003054326225537,0.000534507096745
1761131956135259100,-0.0105465650558471,-0.0036120414733886,-0.007089614868164,-0.0003054326225537,-0.0003054326225537,-7.63581556384e-05
1761131956145259300,0.0037950575351715,-0.0131518840789794,0.0144577026367187,-0.0009162978967651,-0.0003054326225537,-0.00068722339347
1761131956155259100,-0.0130127668380737,0.0013054907321929,9.1552734375e-05,0.0003054326225537,-0.0003054326225537,-0.0012980886967852
1761131956165259300,-0.0058440864086151,-0.0298618376255035,0.0120649337768554,-0.0003054326225537,-0.0009162978967651,0.000534507096745
1761131956175259100,-0.0035524070262908,0.0060807168483734,0.0264320373535156,0.0003054326225537,0.0003054326225537,-0.00068722339347
1761131956185259300,-0.0107125341892242,0.0036683231592178,0.0264320373535156,0.0003054326225537,-0.0003054326225537,-0.00068722339347
1761131956195259100,-0.0035445988178253,0.0036260187625885,0.0168561935424804,0.0003054326225537,-0.0009162978967651,-0.00068722339347
1761131956205259300,-0.0108357369899749,0.0011952072381973,0.0144662857055664,0.0003054326225537,-0.0003054326225537,-0.00068722339347
1761131956215259100,-0.025217592716217,-0.0131928026676177,0.0048904418945312,-0.0009162978967651,0.0003054326225537,0.0011453722836449
1761131956225258200,-0.0060366690158843,-0.0035126954317092,0.0144634246826171,0.0003054326225537,-0.0003054326225537,-0.00068722339347
1761131956235258400,-0.0156475007534027,-0.0107391327619552,0.026437759399414,0.0003054326225537,0.0009162978967651,-7.63581556384e-05
1761131956245258200,-0.0059516131877899,0.0036187916994094,0.0216445922851562,0.0003054326225537,0.0003054326225537,-7.63581556384e-05
1761131956255258400,-0.0082852840423583,-0.0107598304748535,0.0192489624023437,-0.0009162978967651,0.0003054326225537,-0.0012980886967852
1761131956265258200,-0.0106297731399536,-0.0034757703542709,0.0168523788452148,-0.0003054326225537,-0.0003054326225537,-7.63581556384e-05
1761131956275258400,0.0037118792533874,-0.010621428489685,0.0192451477050781,0.0003054326225537,-0.001527163083665,-0.0012980886967852
1761131956285258200,0.0035789012908935,-0.0034742355346679,0.0192499160766601,-0.0009162978967651,-0.0003054326225537,-7.63581556384e-05
1761131956295258400,-0.022806316614151,-0.0009869039058685,0.0168561935424804,-0.0003054326225537,0.0009162978967651,0.000534507096745
1761131956305258200,-0.0083267390727996,-0.022502064704895,0.0144567489624023,0.0003054326225537,0.0009162978967651,-0.0012980886967852
1761131956315258400,0.001350849866867,-0.0153306573629379,0.0168485641479492,0.0003054326225537,0.0009162978967651,0.000534507096745
1761131956325259000,-0.0081270337104797,-0.0009738057851791,0.0192394256591796,-0.001527163083665,0.0003054326225537,-0.00068722339347
1761131956335259000,-0.0080665349960327,-0.0151565968990325,0.0048685073852539,-0.0003054326225537,0.0003054326225537,-0.00068722339347
1761131956345259000,-0.0199825465679168,-0.0175066143274307,0.0288076400756835,-0.0009162978967651,0.0003054326225537,-0.00068722339347
1761131956355259000,-0.0175411403179168,-0.0197784304618835,0.031198501586914,0.0003054326225537,0.0003054326225537,0.000534507096745
1761131956365259000,-0.0102834701538085,-0.0149616450071334,0.040771484375,0.0003054326225537,-0.0003054326225537,-0.00068722339347
1761131956375259000,-0.0174477994441986,-0.0077587515115737,0.0240116119384765,-0.0003054326225537,0.0003054326225537,-0.00068722339347
1761131956385259000,-0.0125691294670104,0.0042997449636459,0.0144300460815429,-0.0003054326225537,0.0009162978967651,-7.63581556384e-05
1761131956395259000,-0.0172271132469177,0.0019782930612564,0.0216073989868164,-0.0003054326225537,0.0003054326225537,0.000534507096745
1761131956405259000,-0.0195482969284057,0.0139971822500228,0.019209861755371,0.0003054326225537,0.0003054326225537,-7.63581556384e-05
1761131956415259100,0.0116564035415649,-0.0075619667768478,0.0168132781982421,-0.001527163083665,-0.001527163083665,-7.63581556384e-05
1761131956425258200,-0.0076324045658111,0.0165430456399917,0.0048418045043945,-0.0009162978967651,0.0003054326225537,-0.00068722339347
1761131956435258000,-0.0099951326847076,-0.0145004093647003,0.0168104171752929,-0.0009162978967651,-0.0009162978967651,-0.00068722339347
1761131956445258200,0.0019062161445617,0.0023688524961471,0.0096263885498046,0.0009162978967651,0.0003054326225537,-7.63581556384e-05
1761131956455258000,-0.007640928030014,0.0022733658552169,0.019205093383789,0.0003054326225537,0.0003054326225537,-0.00068722339347
1761131956465258200,-0.0243761539459228,0.0046296715736389,0.0239934921264648,0.0009162978967651,0.0003054326225537,-0.00068722339347
1761131956475258000,0.0092102587223052,-0.0122023820877075,0.0144166946411132,0.0003054326225537,-0.001527163083665,-7.63581556384e-05
1761131956485258200,-0.0077031552791595,0.0212806314229965,0.0024518966674804,-0.0009162978967651,-0.0003054326225537,-0.00068722339347
1761131956495258000,-0.0340682864189147,-0.0097497552633285,0.0263929367065429,0.0003054326225537,-0.0003054326225537,-0.00068722339347
1761131956505258200,0.0066378116607666,-0.0026070922613143,0.0239982604980468,-0.0003054326225537,0.0003054326225537,0.000534507096745
1761131956515258000,-0.0125009417533874,0.0070116966962814,0.0239973068237304,0.0003054326225537,-0.0009162978967651,0.000534507096745
1761131956525259000,-0.000584989786148,0.0117559134960174,0.0168170928955078,-0.0009162978967651,0.0009162978967651,0.000534507096745
1761131956535259000,-0.0028925538063049,-0.0001069605350494,0.0168123245239257,-0.0003054326225537,-0.0003054326225537,-7.63581556384e-05
1761131956545259000,-0.0005394220352172,0.0023026764392852,0.0335721969604492,0.0003054326225537,0.0009162978967651,-7.63581556384e-05
1761131956555259100,-0.0052457451820373,0.0070601999759674,0.0096282958984375,-0.0003054326225537,0.0009162978967651,-0.00068722339347
1761131956565259000,-0.0123319029808044,0.0094833672046661,0.0239906311035156,-0.0003054326225537,0.0009162978967651,-0.00068722339347
1761131956575259100,-0.0194202959537506,-0.0048338919878005,0.026381492614746,-0.0003054326225537,0.0003054326225537,-7.63581556384e-05
1761131956585259000,-0.0194028317928314,-0.0215717852115631,0.0191974639892578,-0.0003054326225537,-0.0003054326225537,0.0011453722836449
1761131956595259100,0.0117357373237609,-0.0023754239082336,0.0144071578979492,-0.0003054326225537,-0.0003054326225537,-0.0012980886967852
1761131956615259100,-0.000298261642456,-0.0190844386816024,0.0072259902954101,-0.0003054326225537,-0.0009162978967651,-0.00068722339347
1761131956625258200,-0.0003992319107055,9.70512628555e-05,0.0215930938720703,0.0003054326225537,-0.0009162978967651,-0.0012980886967852
1761131956635258000,-0.0052816867828369,-0.0023285150527954,0.0096254348754882,-0.0009162978967651,-0.0009162978967651,-7.63581556384e-05
1761131956645258200,0.0042071640491485,0.0049431473016738,0.0144147872924804,0.0003054326225537,0.0003054326225537,-7.63581556384e-05
1761131956655258000,-0.0125307142734527,0.0073198974132537,0.0192022323608398,0.0003054326225537,-0.0003054326225537,0.000534507096745
1761131956665258200,-0.010172039270401,0.0024893283843994,0.0096282958984375,-0.0003054326225537,-0.0003054326225537,0.000534507096745
1761131956675258000,-0.017378807067871,-0.0022611618041992,0.0287809371948242,-0.0003054326225537,-0.0003054326225537,-7.63581556384e-05
1761131956685258200,-0.0198160409927368,-0.0118030309677124,0.0168113708496093,0.0003054326225537,0.0009162978967651,0.000534507096745
1761131956695258000,-0.0101188719272613,0.0001416206359863,0.0311737060546875,0.0003054326225537,-0.0003054326225537,-0.0012980886967852
1761131956705258200,-0.0077211558818817,0.0025146454572677,0.0359621047973632,-0.0009162978967651,0.0003054326225537,-7.63581556384e-05
1761131956715258000,-0.012461245059967,0.0050124675035476,0.0191984176635742,-0.0003054326225537,-0.0009162978967651,-0.00068722339347
1761131956725259000,-0.0029462277889251,-0.002138465642929,0.0287761688232421,0.0003054326225537,0.0003054326225537,-7.63581556384e-05
1761131956735259000,0.0018657743930816,-0.0189348757266998,0.0263833999633789,0.0003054326225537,-0.0003054326225537,-0.00068722339347
1761131956745259000,0.0042239129543304,0.0097712278366088,0.0215959548950195,-0.0003054326225537,-0.0003054326225537,-0.0012980886967852
1761131956755259100,-0.0125558674335479,-0.0117609947919845,0.0263853073120117,0.0003054326225537,-0.0003054326225537,-0.00068722339347
1761131956765259000,-0.0125917792320251,-0.0117856264114379,0.0263862609863281,0.0003054326225537,-0.0009162978967651,0.000534507096745
1761131956775259100,-0.0222646296024322,-0.004631757736206,0.0024471282958984,0.0003054326225537,-0.0003054326225537,-7.63581556384e-05
1761131956785259000,-0.0126858055591583,0.0097139179706573,0.0120248794555664,-0.0003054326225537,0.0003054326225537,0.000534507096745
1761131956795259100,-0.0006591975688934,0.0097402781248092,0.019205093383789,0.0003054326225537,-0.0003054326225537,0.000534507096745
1761131956805259000,-0.0174366533756256,0.0001428872346878,0.0144176483154296,0.0009162978967651,-0.0003054326225537,-0.00068722339347
1761131956815259100,-0.015031486749649,0.0096208900213241,0.0263910293579101,-0.0003054326225537,-0.0003054326225537,-7.63581556384e-05
1761131956825258200,-0.0102451145648956,0.0072462111711502,0.014418601989746,0.0009162978967651,0.0003054326225537,-0.00068722339347
1761131956835258400,-0.0173581540584564,-0.0024227350950241,0.0144195556640625,-0.0009162978967651,-0.0009162978967651,-0.00068722339347
1761131956845258200,-0.0078276991844177,0.0048325508832931,0.0192070007324218,-0.0003054326225537,-0.0003054326225537,-0.00068722339347
1761131956855258000,-0.0198001563549041,-0.0071198791265487,0.01202392578125,0.0003054326225537,-0.0003054326225537,-7.63581556384e-05
1761131956865258200,-0.0102213323116302,0.0191968232393264,0.0192070007324218,-0.0003054326225537,-0.0003054326225537,-7.63581556384e-05
1761131956875258000,0.0041613280773162,-0.0023294389247894,0.0216007232666015,0.0009162978967651,-0.0003054326225537,-7.63581556384e-05
1761131956885258200,-0.0054242312908172,-0.0072174966335296,0.0192089080810546,0.0003054326225537,0.0003054326225537,-7.63581556384e-05
1761131956895258000,0.001781940460205,0.0047165304422378,0.0239973068237304,0.0003054326225537,0.0003054326225537,0.0011453722836449
1761131956905258200,0.0065903663635253,0.0047007203102111,0.0144205093383789,0.0009162978967651,-0.0009162978967651,0.0011453722836449
1761131956915258400,-0.0054714679718017,-0.0001742094755172,0.0311841964721679,0.0003054326225537,-0.0009162978967651,-0.0012980886967852
1761131956925259000,-0.0055654644966125,0.0069770365953445,0.0144290924072265,-0.0003054326225537,-0.0003054326225537,-7.63581556384e-05
1761131956935259100,0.0015957951545715,-0.0025826096534729,0.0240058898925781,0.0003054326225537,-0.0009162978967651,-0.0012980886967852
1761131956945259000,0.0086843967437744,0.0045686215162277,0.0144319534301757,0.0003054326225537,-0.0003054326225537,-7.63581556384e-05
1761131956955259100,0.0014648735523223,-0.0074259787797927,0.0096454620361328,-0.0009162978967651,-0.0009162978967651,-7.63581556384e-05
1761131956965259000,-0.0034116208553314,-0.0073368996381759,0.0168285369873046,-0.0003054326225537,-0.0003054326225537,-0.00068722339347
1761131956975259100,-0.0178192853927612,0.0022738873958587,0.0120410919189453,-0.0003054326225537,0.0003054326225537,-7.63581556384e-05
1761131956985259000,-0.0105997323989868,0.0022974610328674,0.0240097045898437,-0.0003054326225537,0.0003054326225537,0.000534507096745
1761131956995259100,-0.0153732597827911,-0.0096315741539001,0.0144319534301757,-0.0003054326225537,0.0003054326225537,-7.63581556384e-05
1761131957005259000,-0.0201247036457061,0.0071514397859573,0.0144300460815429,0.0003054326225537,-0.0003054326225537,-7.63581556384e-05
1761131957015259100,0.0037805438041687,0.014310136437416,0.0192203521728515,0.0003054326225537,-0.0009162978967651,-0.00068722339347
1761131957025258200,0.0036859512329101,0.0142797082662582,0.0192241668701171,0.0003054326225537,0.0003054326225537,0.000534507096745
1761131957035258400,-0.0130507946014404,0.0022724717855453,0.0240125656127929,-0.0009162978967651,-0.0003054326225537,-0.0012980886967852
1761131957045258200,-0.0154730081558227,0.0071543604135513,0.014434814453125,-0.0009162978967651,-0.0003054326225537,0.0011453722836449
1761131957055258000,-0.0011389851570129,0.0024631023406982,0.0192213058471679,0.0009162978967651,-0.0003054326225537,0.000534507096745
1761131957065258200,-0.0227356851100921,-0.009610578417778,0.0144367218017578,-0.0003054326225537,0.0003054326225537,-0.00068722339347
1761131957075258000,-0.01787069439888,-7.0631504058e-06,0.0120401382446289,-0.0003054326225537,-0.0009162978967651,-7.63581556384e-05
1761131957085258200,-0.0227217078208923,-0.009551003575325,0.016829490661621,-0.0009162978967651,-0.0009162978967651,-7.63581556384e-05
1761131957095258000,-0.0155881345272064,0.009695753455162,0.0096454620361328,-0.0009162978967651,0.0003054326225537,0.000534507096745
1761131957105258200,-0.0155188143253326,-0.0189475417137146,0.0144300460815429,-0.0003054326225537,0.0003054326225537,-7.63581556384e-05
1761131957115258000,0.0204876363277435,0.0074378550052642,0.0192136764526367,0.0003054326225537,-0.0003054326225537,0.000534507096745
1761131957125259000,-0.0058859586715698,0.0098090916872024,0.0120344161987304,-0.0003054326225537,-0.0003054326225537,-0.00068722339347
1761131957135259000,-0.0178973972797393,-0.0045416206121444,0.0240058898925781,-0.0003054326225537,-0.0003054326225537,-0.00068722339347
1761131957145259000,-0.0250834822654724,0.0026790648698806,0.021611213684082,-0.0003054326225537,0.0003054326225537,-0.0012980886967852
1761131957155259000,-0.013034850358963,0.007493108510971,0.0263957977294921,0.0003054326225537,0.0003054326225537,-7.63581556384e-05
1761131957165259000,-0.0249237418174743,-0.0045087188482284,0.0192117691040039,0.0003054326225537,-0.0003054326225537,-0.00068722339347
1761131957175259100,-0.0009576380252838,0.0002417564392089,0.0240001678466796,-0.0003054326225537,-0.0003054326225537,0.0011453722836449
1761131957185259000,-0.0105201601982116,-0.0045037120580673,0.0216054916381835,0.0009162978967651,0.0003054326225537,-7.63581556384e-05
1761131957195259100,-0.0080572366714477,-0.0093835294246673,0.0239992141723632,0.0003054326225537,-0.0009162978967651,0.000534507096745
1761131957205259000,-0.0152970254421234,-0.0094087421894073,0.0144243240356445,0.0003054326225537,-0.001527163083665,-0.00068722339347
1761131957215259000,-0.0154131352901458,0.0145203322172164,0.0120344161987304,0.0003054326225537,-0.0003054326225537,-0.00068722339347
1761131957225258200,-0.0010237991809844,0.0001172125339508,0.0144281387329101,-0.0003054326225537,0.0003054326225537,-0.00068722339347
1761131957235258000,-0.020100325345993,0.0073264241218566,0.0240020751953125,0.0009162978967651,0.0003054326225537,-0.00068722339347
1761131957245258200,0.0015168190002441,-0.0071311295032501,0.0144252777099609,0.0003054326225537,-0.0003054326225537,-0.00068722339347
1761131957255258000,0.0015194416046142,-0.0047573596239089,0.0287904739379882,0.0003054326225537,-0.0009162978967651,0.000534507096745
1761131957265258200,-0.0105476379394531,0.0023964643478393,-0.0071182250976562,-0.0003054326225537,-0.0003054326225537,0.0011453722836449
1761131957275258000,-0.005803495645523,-0.014326125383377,0.016824722290039,-0.001527163083665,-0.0003054326225537,0.000534507096745
1761131957285258200,-0.0178110301494598,0.0001934915781021,0.0096387863159179,0.0003054326225537,0.0003054326225537,-7.63581556384e-05
1761131957295258000,-0.0153542459011077,0.0097374022006988,0.0048494338989257,0.0003054326225537,-0.0003054326225537,-7.63581556384e-05
1761131957305258200,0.0085703134536743,-0.0070435255765914,0.0168218612670898,-0.0003054326225537,-0.0009162978967651,-7.63581556384e-05
1761131957315258000,-0.0226364135742187,0.012140929698944,0.0287942886352539,0.0009162978967651,0.0003054326225537,-7.63581556384e-05
1761131957325259000,-0.0058276057243347,-0.0142890512943267,0.0216121673583984,-0.001527163083665,-0.0003054326225537,-0.0019089538836851
1761131957335259100,-0.0273701250553131,-0.0141335874795913,0.0240020751953125,-0.0003054326225537,-0.0003054326225537,-0.00068722339347
1761131957345259000,-0.0058062970638275,-0.0093050748109817,0.0335779190063476,-0.0003054326225537,-0.0003054326225537,-0.00068722339347
1761131957355259100,-0.003415048122406,0.0027038902044296,0.0024528503417968,0.0003054326225537,-0.0003054326225537,-7.63581556384e-05
1761131957365259000,0.0013754069805145,-0.0164692252874374,0.0335779190063476,-0.0003054326225537,0.0003054326225537,0.000534507096745
1761131957375259100,-0.0033790171146392,0.0003339946269989,0.012028694152832,0.0003054326225537,-0.0003054326225537,-7.63581556384e-05
1761131957385259000,0.0013727843761444,-0.0068719983100891,0.0048465728759765,0.0003054326225537,-0.0003054326225537,-0.00068722339347
1761131957395259100,-0.0010381340980529,-0.0092889666557312,0.0144243240356445,0.0003054326225537,-0.0009162978967651,0.000534507096745
1761131957405259000,0.0036542415618896,0.0170184820890426,0.03118896484375,0.0003054326225537,-0.0003054326225537,0.000534507096745
1761131957415259100,-0.0083526372909545,-0.0045716911554336,0.0096416473388671,0.0003054326225537,-0.0003054326225537,-0.00068722339347
1761131957425258500,-0.0036003291606903,0.0001924186944961,0.0072498321533203,-0.0003054326225537,-0.0003054326225537,0.0011453722836449
1761131957435258400,-0.0108273029327392,-0.0069539099931716,0.0287971496582031,-0.0003054326225537,-0.0003054326225537,-0.00068722339347
1761131957445258500,-0.0084536969661712,0.0074280202388763,0.0240097045898437,-0.0009162978967651,-0.0003054326225537,-0.0012980886967852
1761131957455258400,0.0010945796966552,0.0027332454919815,0.0144309997558593,0.0003054326225537,-0.0003054326225537,0.0011453722836449
1761131957465258500,-0.0157029926776886,-0.0092594921588897,0.0096445083618164,-0.0003054326225537,-0.0009162978967651,-7.63581556384e-05
1761131957475258400,-0.0205927789211273,0.0003458261489868,0.0168304443359375,0.0009162978967651,0.0003054326225537,0.000534507096745
1761131957485258500,0.0009841322898864,0.0074338912963867,0.0264081954956054,0.0009162978967651,0.0003054326225537,-7.63581556384e-05
1761131957495258400,-0.0181418359279632,-0.0285550951957702,0.0288028717041015,-0.0003054326225537,-0.0003054326225537,-0.00068722339347
1761131957505258500,-0.0157511234283447,0.0002133697271347,0.0311965942382812,0.0009162978967651,0.0003054326225537,0.0011453722836449
1761131957515258400,-0.0157054364681243,0.0001411288976669,0.0311965942382812,-0.0003054326225537,-0.0003054326225537,-7.63581556384e-05
1761131957525259300,-0.0037383437156677,-0.0093970000743865,0.0144357681274414,-0.0003054326225537,-0.0009162978967651,-7.63581556384e-05
1761131957535259100,-0.0061951279640197,-0.0261235237121582,0.0072555541992187,-0.0003054326225537,-0.0003054326225537,-7.63581556384e-05
1761131957545259300,-0.0134033262729644,0.0026633739471435,0.0048599243164062,0.0003054326225537,-0.0003054326225537,-7.63581556384e-05
1761131957555259100,0.0105407536029815,-0.0332691371440887,0.0168323516845703,0.0003054326225537,-0.0003054326225537,-7.63581556384e-05
1761131957565259300,-0.0182090103626251,-0.0284830927848815,-0.0166864395141601,-0.0003054326225537,0.0009162978967651,-7.63581556384e-05
1761131957575259100,-0.0132922232151031,0.0099164098501205,0.0311918258666992,0.0003054326225537,-0.0009162978967651,-0.00068722339347
1761131957585259300,0.003409594297409,0.0338515937328338,0.0287990570068359,0.0003054326225537,-0.0003054326225537,-7.63581556384e-05
1761131957595259100,-0.0085984170436859,-0.0020850151777267,0.0024652481079101,0.0003054326225537,-0.0003054326225537,-7.63581556384e-05
1761131957605259300,-0.0110295712947845,0.0098623931407928,0.021620750427246,-0.0009162978967651,-0.0003054326225537,-0.00068722339347
1761131957615259100,-0.0134506225585937,-0.0379469096660614,0.0168304443359375,-0.0003054326225537,0.0009162978967651,0.0011453722836449
1761131957625258500,-0.0109450221061706,-0.033105581998825,0.0216150283813476,-0.0003054326225537,-0.0009162978967651,-7.63581556384e-05
1761131957635258400,0.0009768009185791,0.0052950680255889,0.0216140747070312,0.0003054326225537,0.0003054326225537,0.000534507096745
1761131957645258500,0.0010172724723815,0.0028863698244094,0.0216131210327148,0.0003054326225537,-0.0003054326225537,-0.00068722339347
1761131957655258400,-0.0038073360919952,-0.0258688628673553,0.0168266296386718,0.0003054326225537,-0.0003054326225537,-7.63581556384e-05
1761131957665258500,-0.0109896063804626,-0.0306570529937744,0.0287971496582031,-0.0009162978967651,0.0009162978967651,-7.63581556384e-05
1761131957675258400,-0.0180697739124298,0.0054045021533966,0.0048484802246093,0.0009162978967651,0.0003054326225537,0.000534507096745
1761131957685258500,-0.0180057287216186,0.0053530484437942,0.0048475265502929,0.0003054326225537,-0.0003054326225537,-0.00068722339347
1761131957695258400,-0.0131992995738983,-0.0042031407356262,0.0096349716186523,-0.0009162978967651,0.0003054326225537,0.0011453722836449
1761131957705258500,-0.0203385949134826,0.0055178701877593,0.0168142318725585,-0.0009162978967651,-0.0009162978967651,-7.63581556384e-05
1761131957715258400,-0.0156014561653137,-0.006340205669403,0.0096292495727539,-0.0003054326225537,0.0003054326225537,-0.00068722339347
1761131957725259000,-0.0131327509880065,0.0080712437629699,0.0144147872924804,-0.0003054326225537,-0.0003054326225537,0.000534507096745
1761131957735259000,-0.0011489391326904,-0.0014440715312957,0.0048351287841796,-0.0009162978967651,-0.0003054326225537,-7.63581556384e-05
1761131957745259000,-0.0059278309345245,-0.0061332434415817,0.0144100189208984,0.0003054326225537,0.0003054326225537,-0.00068722339347
1761131957755259100,-0.0082608759403228,-0.0037533491849899,0.0120153427124023,-0.0003054326225537,-0.0009162978967651,-0.0019089538836851
1761131957765259000,0.0084359943866729,0.0034790188074111,0.0168037414550781,-0.0009162978967651,-0.0003054326225537,-0.0019089538836851
1761131957775259100,-0.0107451081275939,0.0083599537611007,0.0072250366210937,0.0003054326225537,0.0003054326225537,-0.00068722339347
1761131957785259000,-0.0107209086418151,0.0083220303058624,0.0072259902954101,-0.0009162978967651,-0.0003054326225537,-0.00068722339347
1761131957795259100,-0.0059616565704345,0.0084165781736373,0.0239830017089843,0.0003054326225537,0.0003054326225537,-7.63581556384e-05
1761131957805259000,-0.0155146718025207,0.0107734948396682,0.0144071578979492,0.0003054326225537,-0.0009162978967651,-7.63581556384e-05
1761131957815259100,-0.0108214020729064,-0.0060153901576995,0.0144109725952148,-0.0003054326225537,-0.0009162978967651,-0.00068722339347
1761131957825258200,0.001048594713211,0.0035892724990844,0.0120191574096679,-0.0003054326225537,-0.0003054326225537,-7.63581556384e-05
1761131957835258000,0.0058134198188781,0.0108088552951812,0.0239896774291992,-0.0003054326225537,-0.0003054326225537,-7.63581556384e-05
1761131957845258200,-0.0373230576515197,0.0060355514287948,0.0215969085693359,0.0003054326225537,0.0003054326225537,-7.63581556384e-05
1761131957855258000,-0.0037416815757751,-0.013150930404663,0.0168066024780273,-0.0009162978967651,-0.0009162978967651,-0.00068722339347
1761131957865258200,-0.0062234997749328,0.0084853023290634,0.0120191574096679,-0.0009162978967651,0.0003054326225537,-7.63581556384e-05
1761131957875258000,-0.0038002729415893,-0.0009902268648147,0.0168046951293945,0.0003054326225537,0.0009162978967651,-7.63581556384e-05
1761131957885258200,-0.0085065960884094,0.0013731122016906,0.0335617065429687,-0.0003054326225537,-0.0009162978967651,-0.00068722339347
1761131957895258000,-0.0253666937351226,0.0109779685735702,0.0144109725952148,-0.0003054326225537,-0.0003054326225537,-0.00068722339347
1761131957905258200,-0.0038008689880371,0.0109985768795013,0.0191974639892578,-0.0003054326225537,0.0003054326225537,0.0011453722836449
1761131957915258000,0.0058331787586212,0.0014292895793914,0.0263786315917968,-0.0003054326225537,0.0003054326225537,-0.0012980886967852
1761131957925259000,0.005850076675415,0.0014686435461044,0.0263776779174804,0.0003054326225537,-0.0003054326225537,-0.0012980886967852
1761131957935259100,0.005816638469696,-0.0105471462011337,0.0096197128295898,-0.0003054326225537,-0.0003054326225537,-7.63581556384e-05
1761131957945259000,-0.0085721313953399,0.0254028588533401,0.0239849090576171,0.0003054326225537,-0.0009162978967651,-0.00068722339347
1761131957955259100,-0.0230320692062377,-0.0033585131168365,0.019200325012207,-0.0003054326225537,-0.0003054326225537,-0.00068722339347
1761131957965259000,-0.0063148736953735,-0.0129011571407318,0.0239887237548828,0.0003054326225537,0.0003054326225537,-0.0012980886967852
1761131957975259100,-0.0158474147319793,-0.0057553499937057,0.0263833999633789,0.0003054326225537,-0.0003054326225537,-7.63581556384e-05
1761131957985259000,-0.0158843994140625,-0.0057789534330368,0.0263853073120117,0.0003054326225537,-0.0003054326225537,0.000534507096745
1761131957995259100,-0.0183138847351074,0.0013612061738967,0.0263862609863281,0.0003054326225537,-0.0003054326225537,-0.00068722339347
1761131958005259000,0.0056112408638,-0.0058438926935195,0.0144166946411132,-0.0009162978967651,-0.0009162978967651,-7.63581556384e-05
1761131958015259100,-0.013630598783493,-0.0057545155286788,0.019205093383789,-0.0003054326225537,0.0009162978967651,0.0011453722836449
1761131958025258200,-0.0159304738044738,0.0014596581459045,0.0359621047973632,-0.0003054326225537,-0.0009162978967651,-7.63581556384e-05
1761131958035258000,0.0007665455341339,-0.0056903660297393,0.0215978622436523,-0.0003054326225537,-0.0003054326225537,-0.0012980886967852
1761131958045258200,-0.0208232104778289,-0.0008689165115356,0.0263862609863281,0.0003054326225537,-0.0003054326225537,-7.63581556384e-05
1761131958055258000,-0.0112440288066864,0.0015059858560562,0.0287799835205078,-0.0003054326225537,-0.0009162978967651,-7.63581556384e-05
1761131958065258200,-0.0113064050674438,0.0135095715522766,0.0120229721069335,-0.0003054326225537,-0.001527163083665,-7.63581556384e-05
1761131958075258000,-0.0114275217056274,0.0111421346664428,0.0144195556640625,-0.0009162978967651,-0.0009162978967651,-0.00068722339347
1761131958085258200,0.0028911232948303,-0.0079384893178939,0.0216026306152343,-0.0003054326225537,0.0003054326225537,-0.0012980886967852
1761131958095258000,0.0029142498970031,-0.0079034566879272,0.0216007232666015,-0.0003054326225537,0.0003054326225537,0.000534507096745
1761131958105258200,-0.0114148557186126,-0.0030907243490219,0.0407533645629882,-0.0003054326225537,0.0003054326225537,0.000534507096745
1761131958115258000,-0.0042174160480499,-0.0126255452632904,0.0144147872924804,0.0009162978967651,0.0003054326225537,-0.0012980886967852
1761131958125259000,-0.0113686621189117,0.0160073935985565,0.0072336196899414,-0.0003054326225537,0.0009162978967651,-0.0012980886967852
1761131958135259000,-0.0160604417324066,-0.0007241964340209,0.019200325012207,-0.0003054326225537,0.0003054326225537,-0.0012980886967852
1761131958145259000,-0.0064451396465301,-0.0078849047422409,0.0072288513183593,-0.0003054326225537,-0.0009162978967651,-7.63581556384e-05
1761131958155259000,0.005424290895462,-0.0054619014263153,0.0096244812011718,-0.0003054326225537,-0.0003054326225537,-0.00068722339347
1761131958165259000,-0.0018006563186645,-0.0078224092721939,0.0311737060546875,0.0003054326225537,-0.0009162978967651,-7.63581556384e-05
1761131958175259000,-0.0090592503547668,0.0208803564310073,0.019205093383789,-0.0003054326225537,-0.0003054326225537,-0.0012980886967852
1761131958185259000,-0.006704568862915,0.0017405003309249,0.0144176483154296,-0.0003054326225537,-0.0003054326225537,-7.63581556384e-05
1761131958195259000,-0.0139105319976806,0.0017771571874618,0.0120229721069335,0.0003054326225537,-0.0003054326225537,-7.63581556384e-05
1761131958205259000,-0.0211301445960998,0.0161187797784805,0.0168132781982421,-0.0003054326225537,0.001527163083665,-7.63581556384e-05
1761131958215259000,-0.0185799002647399,0.0017698556184768,0.0192022323608398,0.0003054326225537,-0.0003054326225537,0.000534507096745
1761131958225258000,-0.0137880146503448,0.0041259974241256,0.0120210647583007,-0.0003054326225537,0.0003054326225537,-0.00068722339347
1761131958235258000,-0.0137112736701965,0.0041524022817611,0.0120182037353515,-0.0003054326225537,-0.0009162978967651,-7.63581556384e-05
1761131958245258000,-0.0209564268589019,-0.0077857226133346,0.00244140625,0.0003054326225537,0.0003054326225537,0.000534507096745
1761131958255258000,0.0126438736915588,0.001761183142662,0.0287761688232421,0.0003054326225537,-0.0003054326225537,-7.63581556384e-05
1761131958265258000,-0.0089408755302429,-0.0102334022521972,0.0311717987060546,-0.0003054326225537,0.0003054326225537,-7.63581556384e-05
1761131958275258000,-0.0137118697166442,0.0017591416835784,0.0359601974487304,0.0003054326225537,-0.0003054326225537,0.000534507096745
1761131958285258000,-0.0065276026725769,0.0137112885713577,0.0120182037353515,-0.0003054326225537,0.0003054326225537,-7.63581556384e-05
1761131958295258000,-0.0112790167331695,-0.0197839736938476,0.0168056488037109,-0.0003054326225537,-0.0003054326225537,0.000534507096745
1761131958305258000,0.003081202507019,0.0041977763175964,0.0287742614746093,-0.0003054326225537,-0.0003054326225537,-0.00068722339347
1761131958315258000,-0.0065377950668334,0.009020373225212,0.0215930938720703,-0.0003054326225537,-0.0009162978967651,0.000534507096745
1761131958325258800,-0.0018321871757507,0.0090516656637191,0.0263833999633789,-0.0003054326225537,0.0003054326225537,-7.63581556384e-05
1761131958335259000,-0.0042089223861694,0.0066789984703063,0.009622573852539,0.0003054326225537,0.0003054326225537,0.000534507096745
1761131958345258800,-0.0041879415512084,0.0186334997415542,0.0168056488037109,-0.0009162978967651,-0.0009162978967651,-0.00068722339347
1761131958355259000,0.0076954364776611,-0.0076142996549606,0.009622573852539,0.0003054326225537,-0.0003054326225537,-7.63581556384e-05
1761131958365258800,0.0076586604118347,-0.0076381862163543,0.0096244812011718,-0.0003054326225537,-0.0003054326225537,0.000534507096745
1761131958375259000,-0.0043344497680664,-0.0076197832822799,0.0072307586669921,0.0009162978967651,-0.0003054326225537,-0.00068722339347
1761131958385258500,-0.0043644309043884,-0.0077026188373565,0.0072336196899414,-0.0009162978967651,-0.0009162978967651,0.0011453722836449
1761131958395258600,-0.0260213911533355,0.0019632279872894,0.019205093383789,0.0003054326225537,-0.0003054326225537,-7.63581556384e-05
1761131958405258500,-0.0092597603797912,-0.0076334178447723,0.0096282958984375,-0.0003054326225537,0.0003054326225537,0.0011453722836449
1761131958415258600,-0.0187816023826599,-0.0004235059022903,0.0192031860351562,-0.0003054326225537,0.0003054326225537,-0.00068722339347
1761131958425257700,-0.0067532062530517,-0.0123696476221084,0.0120191574096679,-0.0003054326225537,-0.0009162978967651,-0.00068722339347
1761131958435257900,0.0003653466701507,0.0020470321178436,0.0359621047973632,-0.0009162978967651,-0.0009162978967651,0.000534507096745
1761131958445257700,-0.0021174550056457,-0.0002571791410446,0.0120201110839843,0.0003054326225537,-0.0003054326225537,0.000534507096745
1761131958455257900,0.0002412796020507,0.006883293390274,0.0263881683349609,-0.0003054326225537,0.0003054326225537,0.0017562375869601
1761131958465257700,-0.0212931931018829,-0.0050440579652786,0.0096263885498046,0.0003054326225537,-0.0009162978967651,-0.0012980886967852
1761131958475257900,0.000160276889801,-0.0026814192533493,0.0216007232666015,0.0003054326225537,0.0009162978967651,-7.63581556384e-05
1761131958485257700,0.0050309896469116,0.0068642050027847,0.0263881683349609,0.0009162978967651,-0.0003054326225537,-0.00068722339347
1761131958495257900,0.0002146661281585,-0.0076033324003219,0.0168142318725585,0.0003054326225537,0.0003054326225537,-0.00068722339347
1761131958505257700,-0.0141089260578155,-0.002831295132637,0.007237434387207,0.0003054326225537,-0.0003054326225537,-0.0012980886967852
1761131958515257900,0.0026170313358306,-0.0052702724933624,0.0096330642700195,-0.0003054326225537,0.0003054326225537,-7.63581556384e-05
1761131958525258800,-0.0093385577201843,-0.0124118030071258,0.007237434387207,-0.0009162978967651,0.0003054326225537,-7.63581556384e-05
1761131958535258600,-0.0117016732692718,-0.0099358558654785,0.0383586883544921,0.0003054326225537,-0.0003054326225537,-0.00068722339347
1761131958545258800,-0.0069496929645538,-0.0051719695329666,0.0168132781982421,0.0003054326225537,0.0003054326225537,-7.63581556384e-05
1761131958555258600,-0.0141086876392364,-0.0076031535863876,0.0072364807128906,0.0003054326225537,0.0009162978967651,0.000534507096745
1761131958565258800,-0.0068076252937316,-0.0028210580348968,0.0120210647583007,-0.0009162978967651,-0.0003054326225537,-7.63581556384e-05
1761131958575258600,-0.0188081264495849,0.0044566839933395,0.0120201110839843,-0.0003054326225537,0.0009162978967651,0.0011453722836449
1761131958585258500,-0.0186946392059326,-0.0002983063459396,0.0168046951293945,-0.0003054326225537,-0.0003054326225537,-0.00068722339347
1761131958595258600,-0.0139097273349761,0.0045281797647476,0.0072269439697265,-0.0003054326225537,-0.0003054326225537,-0.00068722339347
1761131958605258500,-0.0019419193267822,-0.0002219676971435,0.0120143890380859,0.0003054326225537,0.0003054326225537,-0.00068722339347
1761131958615258600,-0.0090826749801635,-0.0050270557403564,0.0311670303344726,-0.0003054326225537,-0.0009162978967651,0.0011453722836449
1761131958625257700,-0.0115409195423126,-0.0073866844177246,0.0096197128295898,0.0003054326225537,0.0003054326225537,-0.00068722339347
1761131958635257900,-0.0042948424816131,0.0045506805181503,0.021590232849121,0.0009162978967651,0.0003054326225537,-7.63581556384e-05
1761131958645257700,-0.0234207808971405,0.0140515267848968,0.0144081115722656,0.0003054326225537,0.0003054326225537,0.000534507096745
1761131958655257900,-0.0281670093536376,0.0092289149761199,0.0168018341064453,0.0003054326225537,0.0003054326225537,-7.63581556384e-05
1761131958665257700,-0.0209021270275115,0.0044093430042266,0.0024356842041015,0.0009162978967651,0.0003054326225537,-0.0012980886967852
1761131958675257900,-0.0160025060176849,-0.0196411907672882,0.026376724243164,0.001527163083665,0.0003054326225537,-7.63581556384e-05
1761131958685258000,0.0056396126747131,-0.0030296444892883,0.0263776779174804,0.0003054326225537,0.0003054326225537,-7.63581556384e-05
1761131958695258000,-0.0134729444980621,-0.0054392963647842,0.0287694931030273,-0.0003054326225537,-0.0003054326225537,-0.00068722339347
1761131958705258000,-0.0110625326633453,0.0017831176519393,0.0144033432006835,0.0009162978967651,-0.0003054326225537,-0.00068722339347
1761131958715258000,-0.006265103816986,0.0064927637577056,0.0096158981323242,-0.0009162978967651,0.0003054326225537,-7.63581556384e-05
1761131958725259000,-0.0157720744609832,0.0089731067419052,0.009613037109375,0.0009162978967651,-0.0003054326225537,-0.00068722339347
1761131958735259000,-0.0133475661277771,0.008876696228981,0.0311622619628906,-0.0003054326225537,-0.0009162978967651,-0.0012980886967852
1761131958745259000,-0.0134064257144927,0.0064938962459564,0.0167980194091796,0.0003054326225537,-0.0003054326225537,-0.00068722339347
1761131958755259000,-0.0133822858333587,-0.0055150389671325,0.0120105743408203,0.0003054326225537,0.0003054326225537,-0.00068722339347
1761131958765259000,-0.0109249055385589,0.006422147154808,0.0191917419433593,-0.0009162978967651,0.0003054326225537,-7.63581556384e-05
1761131958775259000,0.0059045553207397,-0.0078572183847427,0.0167932510375976,-0.0009162978967651,0.0003054326225537,-0.0012980886967852
1761131958785259000,-0.0108245909214019,0.0042136907577514,0.0191841125488281,0.0003054326225537,0.0003054326225537,-0.00068722339347
1761131958795259000,-0.0155692994594573,0.0185430496931076,0.0215778350830078,-0.0003054326225537,0.0003054326225537,0.000534507096745
1761131958805259000,-0.0107229351997375,-0.0101803243160247,0.0048160552978515,0.0009162978967651,-0.0003054326225537,-7.63581556384e-05
1761131958815259000,0.0179962813854217,0.0041045099496841,0.0215787887573242,0.0003054326225537,0.0003054326225537,0.000534507096745
1761131958825258000,-0.005903273820877,-0.0150830894708633,0.0239715576171875,0.0003054326225537,-0.001527163083665,-0.0012980886967852
1761131958835258000,0.0154920816421508,0.0016388446092605,0.0191888809204101,-0.0003054326225537,-0.0009162978967651,-7.63581556384e-05
1761131958845258000,0.0153904855251312,0.0016676485538482,0.0191917419433593,0.0003054326225537,-0.0003054326225537,-0.0012980886967852
1761131958855258000,-0.0061929523944854,-0.0127233266830444,0.016798973083496,0.0003054326225537,0.0003054326225537,0.000534507096745
1761131958865258000,-0.0037757456302642,-0.0031825453042984,0.0120105743408203,0.0003054326225537,0.0003054326225537,-0.00068722339347
1761131958875258000,-0.0085225105285644,0.0015894770622253,0.0096149444580078,-0.0009162978967651,-0.0003054326225537,-0.00068722339347
1761131958885258200,0.0082101225852966,-0.0103063136339187,0.0191917419433593,0.0003054326225537,-0.0003054326225537,-0.00068722339347
1761131958895258000,-0.0061913132667541,-0.0127253383398056,0.0311641693115234,-0.0009162978967651,-0.0003054326225537,-0.00068722339347
1761131958905258200,0.0009622573852539,0.0137054324150085,0.0024328231811523,-0.001527163083665,-0.0003054326225537,-0.0019089538836851
1761131958915258000,-0.0110404789447784,0.011443093419075,0.0239772796630859,-0.0003054326225537,-0.0003054326225537,-0.00068722339347
1761131958925259000,-0.0015057027339935,0.0042943656444549,0.0263729095458984,-0.0003054326225537,-0.0003054326225537,-7.63581556384e-05
1761131958935259100,-0.0135002732276916,-0.005245491862297,0.0191898345947265,0.0003054326225537,0.0003054326225537,0.000534507096745
1761131958945259000,-0.0015065968036651,-0.0100701004266738,-0.0095405578613281,-0.0009162978967651,0.0009162978967651,-0.00068722339347
1761131958955259100,-0.0253583490848541,-0.0028000175952911,0.0096082687377929,0.0003054326225537,0.0003054326225537,-7.63581556384e-05
1761131958965259000,-0.0181539952754974,-0.0004236102104187,0.0191850662231445,-0.0003054326225537,-0.0003054326225537,0.0011453722836449
1761131958975259000,-0.0133711397647857,0.0091938823461532,0.0191841125488281,-0.0009162978967651,0.0003054326225537,-0.0012980886967852
1761131958985259000,-0.0109446048736572,0.0236395299434661,0.0143928527832031,-0.0009162978967651,0.0003054326225537,-0.0025198191870003
1761131958995259000,0.0011011362075805,0.0093370974063873,0.0096006393432617,-0.0003054326225537,-0.0003054326225537,-7.63581556384e-05
1761131959005259000,-0.0060835182666778,-0.0050086081027984,0.0335426330566406,-0.0003054326225537,0.0003054326225537,-7.63581556384e-05
1761131959015259000,-0.0108544528484344,0.0069839358329772,0.0119943618774414,-0.0009162978967651,-0.001527163083665,-0.00068722339347
1761131959025258200,0.0009686052799224,0.0118738263845443,0.0096015930175781,-0.0003054326225537,0.0003054326225537,-0.00068722339347
1761131959035258000,-0.0085703432559967,-7.43418931961e-05,0.0167827606201171,-0.0003054326225537,-0.0003054326225537,0.000534507096745
1761131959045258200,-0.006220132112503,0.0047497302293777,0.0191774368286132,-0.0003054326225537,-0.0009162978967651,0.000534507096745
1761131959055258000,0.0032545328140258,0.0023852735757827,0.0263624191284179,-0.0009162978967651,-0.0027488935738801,-7.63581556384e-05
1761131959065258200,-0.0065879225730896,-0.0166781246662139,0.0191850662231445,-0.0009162978967651,-0.0027488935738801,-7.63581556384e-05
1761131959075258000,-0.0092478990554809,-0.0165876150131225,0.0096139907836914,0.0003054326225537,0.001527163083665,-7.63581556384e-05
1761131959085258200,0.0124405324459075,-0.0046413242816925,0.0263710021972656,-0.0003054326225537,0.0027488935738801,-7.63581556384e-05
1761131959095258000,0.0127135813236236,0.0073582082986831,0.0263624191284179,0.0003054326225537,0.0009162978967651,-7.63581556384e-05
1761131959105258200,-0.0159345269203186,0.0001444369554519,0.0311479568481445,-0.0003054326225537,-0.0009162978967651,-0.00068722339347
1761131959115258000,-0.0208239257335662,0.0169317424297332,0.0215740203857421,-0.0003054326225537,-0.0003054326225537,-7.63581556384e-05
1761131959125259000,-0.0136646032333374,-0.0093673318624496,0.002420425415039,0.0003054326225537,-0.0003054326225537,-0.00068722339347
1761131959135259000,0.0006662607192993,0.0049538761377334,0.0072107315063476,0.0003054326225537,-0.0003054326225537,-7.63581556384e-05
1761131959145259000,-0.0137357413768768,0.0001415759325027,0.0167884826660156,0.0003054326225537,-0.0009162978967651,-0.0012980886967852
1761131959155259000,-0.0066471695899963,-0.0022840350866317,0.0072154998779296,0.0009162978967651,-0.0009162978967651,-0.00068722339347
1761131959165259000,-0.0187069773674011,-0.0047673881053924,0.0096149444580078,0.0003054326225537,-0.0003054326225537,-7.63581556384e-05
1761131959175259000,-0.0163497030735015,0.0047858506441116,0.0215873718261718,0.0003054326225537,-0.0003054326225537,-7.63581556384e-05
1761131959185259000,-0.0163454115390777,0.0047465115785598,0.0215883255004882,-0.0009162978967651,0.0003054326225537,-0.00068722339347
1761131959195259100,-0.0043235123157501,4.13209199905e-05,0.0144014358520507,-0.0003054326225537,-0.0003054326225537,-0.00068722339347
1761131959205259000,-0.0043656826019287,-0.0023186802864074,0.0120086669921875,-0.0003054326225537,-0.0003054326225537,-0.00068722339347
1761131959215259000,-0.0115710794925689,-0.0142539888620376,0.0215845108032226,0.0003054326225537,0.0003054326225537,-7.63581556384e-05
1761131959225258200,-0.0139416754245758,0.0216220617294311,0.0120086669921875,0.0003054326225537,-0.0009162978967651,-0.00068722339347
1761131959235258000,-0.0116226077079772,-0.0095309615135192,0.0191926956176757,0.0003054326225537,0.0009162978967651,-7.63581556384e-05
1761131959245258200,-0.0019226968288421,-0.0071830302476882,0.0239791870117187,0.0003054326225537,-0.0009162978967651,0.000534507096745
1761131959255258000,0.0051615536212921,-9.8794698715e-06,0.0144052505493164,-0.0009162978967651,0.0003054326225537,-0.00068722339347
1761131959265258200,0.0004050731658935,0.0192247778177261,0.0191917419433593,0.0003054326225537,-0.0003054326225537,0.0011453722836449
1761131959275258000,0.0051550567150115,0.0024434626102447,0.0359525680541992,-0.0003054326225537,0.0003054326225537,-7.63581556384e-05
1761131959285258200,0.000384122133255,0.002465009689331,0.0167980194091796,-0.0009162978967651,-0.0003054326225537,-0.00068722339347
1761131959295258000,-0.0044332146644592,-0.0118059962987899,0.0311613082885742,-0.0003054326225537,-0.0003054326225537,-0.00068722339347
1761131959305258200,0.0099113285541534,0.0169411599636077,0.021585464477539,0.0003054326225537,-0.0003054326225537,-0.00068722339347
1761131959315258000,-0.004490315914154,-0.0094195902347564,0.0096149444580078,0.0003054326225537,0.0003054326225537,-7.63581556384e-05
1761131959325259000,-0.0092551112174987,0.0049086660146713,0.0215873718261718,-0.0009162978967651,0.0003054326225537,-0.00068722339347
1761131959335259000,-0.028378814458847,0.0121917873620986,0.0215845108032226,-0.0003054326225537,-0.0003054326225537,-0.00068722339347
1761131959345259000,-0.0092677175998687,-0.0093220323324203,0.0167961120605468,0.0003054326225537,-0.0003054326225537,0.000534507096745
1761131959355259000,-0.0045148134231567,0.0121836364269256,0.0144033432006835,-0.0003054326225537,0.0003054326225537,-0.00068722339347
1761131959365259000,0.0003091096878051,0.0050431787967681,0.0191898345947265,0.0003054326225537,-0.0003054326225537,-0.0012980886967852
1761131959375259000,-0.0069067776203155,0.0097864866256713,0.0215864181518554,-0.0003054326225537,-0.0003054326225537,-0.00068722339347
1761131959385259000,-0.0093239843845367,-0.0093311071395874,0.0167980194091796,-0.0003054326225537,-0.001527163083665,0.000534507096745
1761131959395259000,-0.0023020505905151,-0.0093074738979339,0.021590232849121,-0.0003054326225537,0.0003054326225537,0.000534507096745
1761131959405259000,-0.0094506442546844,0.0027073770761489,0.0239830017089843,0.0003054326225537,-0.0003054326225537,-7.63581556384e-05
1761131959415259000,-0.004696637392044,-0.0045184344053268,0.0287723541259765,-0.0003054326225537,-0.0009162978967651,-0.00068722339347
1761131959435258000,-0.0168589353561401,0.0051950812339782,0.0120172500610351,0.0003054326225537,-0.001527163083665,0.000534507096745
1761131959445258200,-0.0098111629486083,0.0003735572099685,0.0096263885498046,-0.0002290744741912,-0.000839939690195,-0.000534507096745
1761131959455258000,-0.0074576437473297,-0.0139768868684768,0.0192041397094726,0.0003817907709162,-0.0002290744741912,-0.0011453722836449
1761131959465258200,-0.0026657581329345,-0.0092096477746963,0.0048389434814453,0.0009926559869199,-0.0002290744741912,7.63581556384e-05
1761131959475258000,0.0044880509376525,-0.0188880711793899,0.0120258331298828,-0.0002290744741912,0.0003817907709162,0.00068722339347
1761131959485258000,-0.028994858264923,-0.0140750110149383,0.0048408508300781,-0.0002290744741912,-0.0002290744741912,7.63581556384e-05
1761131959495258000,-0.0098258256912231,0.0170906335115432,0.0096282958984375,-0.000839939690195,-0.000839939690195,-0.00236710277386
1761131959505258000,-0.0026852786540985,-0.0091398954391479,0.0263862609863281,0.0009926559869199,0.0003817907709162,0.00068722339347
1761131959515258000,-0.0050117075443267,-0.0020479261875152,0.0215978622436523,-0.0002290744741912,-0.000839939690195,7.63581556384e-05
1761131959525259000,-0.0170647799968719,0.000377133488655,0.019205093383789,-0.0002290744741912,-0.0002290744741912,7.63581556384e-05
1761131959535259000,-0.0146727859973907,0.0003969669342041,0.0144166946411132,-0.0002290744741912,-0.0002290744741912,7.63581556384e-05
1761131959545259000,-0.0122631788253784,0.0028321892023086,-0.0047388076782226,0.0003817907709162,-0.0002290744741912,7.63581556384e-05
1761131959555259000,-0.0242321193218231,-0.0067641139030456,0.0215978622436523,-0.0002290744741912,0.0003817907709162,-0.0011453722836449
1761131959565259000,-0.0193467736244201,0.0052348673343658,0.0120182037353515,0.0003817907709162,0.0003817907709162,0.00068722339347
1761131959575259000,-0.0168715715408325,0.0123876929283142,0.0263824462890625,-0.0002290744741912,0.0003817907709162,7.63581556384e-05
1761131959585259000,-0.0119877159595489,0.0124173909425735,0.009617805480957,0.0009926559869199,0.0003817907709162,-0.000534507096745
1761131959595259000,-0.0214736759662628,-0.0020576417446136,0.0168008804321289,0.0009926559869199,0.0003817907709162,-0.0011453722836449
1761131959605259000,-0.0070169568061828,0.0074089020490646,0.0263776779174804,0.0003817907709162,-0.000839939690195,7.63581556384e-05
1761131959615259000,-0.0094265937805175,-0.0046031475067138,0.0096187591552734,0.0003817907709162,-0.0002290744741912,7.63581556384e-05
1761131959625258200,-0.0094225108623504,-0.0046421736478805,0.0096206665039062,-0.0002290744741912,-0.000839939690195,0.00068722339347
1761131959635258000,-0.0333673655986785,0.0025612115859985,0.0191965103149414,0.0003817907709162,0.0003817907709162,-0.000534507096745
1761131959645258200,-0.0116958320140838,0.0049081742763519,0.0191936492919921,-0.0002290744741912,0.0009926559869199,-0.000534507096745
1761131959655258000,0.0148165225982666,-0.0022570341825485,0.0143995285034179,0.0009926559869199,-0.0002290744741912,7.63581556384e-05
1761131959665258200,-0.0090958178043365,0.0120126903057098,0.0024309158325195,-0.0002290744741912,0.0003817907709162,-0.000534507096745
1761131959675258000,-0.0138057768344879,0.0024434179067611,0.0263700485229492,-0.0002290744741912,-0.000839939690195,-0.000534507096745
1761131959685258200,-0.0138462781906127,0.0048520863056182,0.016794204711914,-0.000839939690195,-0.0014508049935102,-0.0011453722836449
1761131959695258000,-0.0139309465885162,-0.0190217494964599,0.0144004821777343,0.0003817907709162,-0.0020616701804101,-0.000534507096745
1761131959705258200,-0.0188724398612976,-0.0046930611133575,0.009617805480957,-0.000839939690195,-0.00267253536731,-0.000534507096745
1761131959715258000,-0.0238654613494873,-0.0070110708475112,0.0144100189208984,-0.0002290744741912,-0.0014508049935102,-0.0017562375869601
1761131959725259000,-0.0047724246978759,0.0193554162979125,0.009622573852539,-0.0014508049935102,-0.0020616701804101,0.00068722339347
1761131959735259000,-0.0168968141078948,0.0218923389911651,0.0239896774291992,-0.0002290744741912,-0.0020616701804101,-0.000534507096745
1761131959745259000,0.0045130252838134,-0.0020453780889511,0.0168113708496093,-0.0002290744741912,-0.0014508049935102,7.63581556384e-05
1761131959755259100,-0.0003751218318939,0.0075410455465316,0.023996353149414,-0.0002290744741912,-0.0020616701804101,7.63581556384e-05
1761131959765259000,-0.0532271862030029,0.0147443264722824,-0.0262765884399414,-0.0014508049935102,-0.0051159965805709,-0.0011453722836449
1761131959775259100,0.0086171627044677,-0.0042956918478012,0.0192222595214843,-0.0038942659739404,-0.0118355145677924,7.63581556384e-05
1761131959785259000,-0.0164264738559722,-0.0111203640699386,-0.0023002624511718,0.0034361169673502,0.0095447693020105,-0.0011453722836449
1761131959795259100,-0.0010597705841064,0.0005198270082473,0.0359840393066406,-0.0020616701804101,-0.0087811881676316,-0.0011453722836449
1761131959805259000,-0.0186459124088287,-0.0016865283250808,0.0168514251708984,0.0009926559869199,0.0022143865935504,-0.000534507096745
1761131959815259100,-0.0135911107063293,-0.0305084437131881,0.0240278244018554,-0.0002290744741912,-0.0014508049935102,-0.000534507096745
1761131959825258200,0.0102498531341552,0.010220855474472,0.028818130493164,-0.000839939690195,0.0040469821542501,7.63581556384e-05
1761131959835258000,-0.0204304456710815,0.0007302314043045,0.0048608779907226,0.0003817907709162,0.0028252517804503,-0.000534507096745
1761131959845258200,-0.0009580552577972,0.0150685906410217,0.007246971130371,-0.0002290744741912,0.0003817907709162,0.00068722339347
1761131959855258000,-0.0200752913951873,0.010304719209671,0.0216102600097656,0.0016035212902352,0.0022143865935504,7.63581556384e-05
1761131959865258200,-0.0198429524898529,0.0101516991853713,0.0216073989868164,0.0003817907709162,0.0016035212902352,7.63581556384e-05
1761131959875258000,-0.0004881620407104,0.0101135820150375,0.0216016769409179,0.0009926559869199,0.0034361169673502,0.00068722339347
1761131959885258200,-0.0145278275012969,0.0076166838407516,0.0263833999633789,0.0009926559869199,0.0028252517804503,-0.000534507096745
1761131959895258000,-0.0166361927986145,0.0218924582004547,0.0215883255004882,0.0003817907709162,0.0034361169673502,-0.000534507096745
1761131959905258200,-0.0162745416164398,0.0242251902818679,0.0239725112915039,0.0003817907709162,0.0016035212902352,7.63581556384e-05
1761131959915258000,-0.0160713493824005,0.0241675674915313,0.0239677429199218,0.0003817907709162,0.0009926559869199,0.00068722339347
1761131959925259000,0.0031827986240386,-0.0021963864564895,0.0167827606201171,0.0003817907709162,0.0028252517804503,0.00068722339347
1761131959935259100,-0.02047860622406,-0.0094275474548339,0.0048036575317382,-0.0002290744741912,0.0009926559869199,-0.0011453722836449
1761131959945259000,-0.0084111392498016,0.0145425945520401,0.0119838714599609,0.0003817907709162,0.0003817907709162,-0.0011453722836449
1761131959955259100,0.0012101829051971,-0.0094360709190368,-0.0047760009765625,-0.0002290744741912,0.0003817907709162,-0.0011453722836449
1761131959965259000,-0.0226936936378479,0.0049508661031723,0.0024051666259765,0.0003817907709162,0.0022143865935504,7.63581556384e-05
1761131959975259000,-0.0176848173141479,0.0097034722566604,0.0167646408081054,0.0009926559869199,0.0009926559869199,0.00068722339347
1761131959985259000,0.0039916634559631,-0.0047655999660491,0.0191564559936523,-0.000839939690195,-0.000839939690195,-0.000534507096745
1761131959995259000,-0.0032785832881927,-0.0094655603170394,0.0191574096679687,-0.0002290744741912,-0.0002290744741912,0.00068722339347
1761131960005259000,-0.0200602710247039,0.0049183666706085,0.0119752883911132,-0.0002290744741912,0.0003817907709162,-0.000534507096745
1761131960015259000,-0.0080517530441284,0.0073352009057998,0.004791259765625,-0.0002290744741912,-0.0014508049935102,-0.000534507096745
1761131960025258200,-0.024951159954071,0.0025706142187118,0.0407075881958007,0.0003817907709162,-0.0014508049935102,-0.000534507096745
1761131960035258000,-0.027439922094345,-0.0166134387254714,0.0095863342285156,-0.0002290744741912,-0.0014508049935102,-0.0017562375869601
1761131960045258000,-0.0035780072212219,-0.0070084035396575,0.021559715270996,-0.0002290744741912,-0.0014508049935102,-0.000534507096745
1761131960055258000,-0.0204189121723175,0.0002041161060333,0.0263490676879882,-0.0002290744741912,-0.0014508049935102,-0.000534507096745
1761131960065258000,0.0058355927467346,-0.0093424469232559,0.0167751312255859,-0.0002290744741912,0.0003817907709162,-0.000534507096745
1761131960075258000,-0.0228179097175598,-0.0117097496986389,0.021559715270996,-0.0002290744741912,0.0016035212902352,7.63581556384e-05
1761131960085258000,-0.0058463513851165,-0.014062225818634,0.0215530395507812,0.0003817907709162,0.0028252517804503,0.00068722339347
1761131960095258000,-0.0270788073539733,0.0002978593111038,0.0095720291137695,-0.0002290744741912,0.0028252517804503,7.63581556384e-05
1761131960105258000,-0.0123645663261413,0.0027482211589813,0.0047721862792968,0.0003817907709162,0.0022143865935504,0.00068722339347
1761131960115258000,-0.0121059715747833,0.0122940838336944,0.0167360305786132,0.0009926559869199,0.0022143865935504,7.63581556384e-05
1761131960125258800,0.0001308321952819,-0.0021616220474243,-0.0024232864379882,0.0003817907709162,0.0016035212902352,-0.0011453722836449
1761131960135259000,-0.0236304104328155,-0.0069725960493087,0.0191202163696289,0.0003817907709162,0.0003817907709162,7.63581556384e-05
1761131960145258800,-0.004394918680191,-0.0093973278999328,0.019118309020996,0.0016035212902352,-0.0002290744741912,-0.000534507096745
1761131960155259000,-0.0211374461650848,0.0095993280410766,0.0167274475097656,0.0009926559869199,0.0016035212902352,0.00068722339347
1761131960165259000,-0.0113561749458312,0.011917620897293,0.0215120315551757,-0.0002290744741912,0.0009926559869199,7.63581556384e-05
1761131960175259000,-0.0088059306144714,-0.0024312734603881,0.0262947082519531,0.0009926559869199,0.0009926559869199,-0.0011453722836449
1761131960185259000,-0.0086775720119476,-0.0025184303522109,0.0262928009033203,0.0003817907709162,0.0009926559869199,7.63581556384e-05
1761131960195259000,-0.0037662386894226,-0.0049586147069931,-0.0048341751098632,-0.0002290744741912,0.0016035212902352,0.00068722339347
1761131960205259000,-0.0203527212142944,-0.0121024101972579,0.0262842178344726,0.0009926559869199,0.0016035212902352,0.00068722339347
1761131960215259000,-0.0081950426101684,0.0045593380928039,0.0047330856323242,0.0016035212902352,0.0009926559869199,-0.000534507096745
1761131960225258000,-0.0104550123214721,-0.007556214928627,0.0119152069091796,-0.0002290744741912,0.0003817907709162,0.0012980886967852
1761131960235257900,-0.0104000270366668,-0.0075289160013198,0.0119132995605468,-0.0002290744741912,0.0009926559869199,-0.000534507096745
1761131960245258000,-0.000668853521347,0.0092656910419464,0.0286664962768554,-0.0002290744741912,0.0016035212902352,-0.000534507096745
1761131960255257900,-0.0004537403583526,0.0044987797737121,0.0214776992797851,-0.0002290744741912,0.0016035212902352,7.63581556384e-05
1761131960265258000,-0.0361717045307159,-0.0002692341804504,0.0214710235595703,-0.000839939690195,0.0022143865935504,0.00068722339347
1761131960275257900,-0.0095696151256561,0.00700144469738,0.0214614868164062,0.0003817907709162,0.0009926559869199,7.63581556384e-05
1761131960285258000,-0.0237726867198944,0.0021708458662033,0.0166692733764648,0.0003817907709162,0.0003817907709162,-0.000534507096745
1761131960295258000,-0.0164858996868133,0.0140926092863082,0.0142726898193359,0.0003817907709162,0.0003817907709162,-0.0011453722836449
1761131960305258000,-0.0139867663383483,0.0212255418300628,0.0238475799560546,-0.000839939690195,0.0003817907709162,-0.000534507096745
1761131960315258000,-0.0066906511783599,0.0093048214912414,0.0046901702880859,-0.000839939690195,-0.0002290744741912,7.63581556384e-05
1761131960325258800,-0.0066362023353576,-0.009803682565689,0.0118703842163085,0.0009926559869199,0.0009926559869199,0.00068722339347
1761131960335259000,-0.0136901438236236,-0.0003307312726974,0.0286283493041992,-0.0002290744741912,0.0003817907709162,7.63581556384e-05
1761131960345258800,0.0007528662681579,-0.007504865527153,0.0166549682617187,-0.0002290744741912,-0.0002290744741912,-0.000534507096745
1761131960355259000,0.0103477537631988,-0.0074842572212219,0.0118656158447265,-0.000839939690195,-0.0020616701804101,-0.0011453722836449
1761131960365258800,-0.0042232573032379,-0.0002066642045974,0.0238399505615234,0.0003817907709162,0.0003817907709162,7.63581556384e-05
1761131960375259000,-0.0137569904327392,0.0093352049589157,0.0166568756103515,0.0003817907709162,-0.0002290744741912,7.63581556384e-05
1761131960385259000,-0.0089842081069946,0.0092944800853729,0.0238409042358398,-0.0002290744741912,-0.0002290744741912,-0.000534507096745
1761131960395259000,-0.0137935578823089,0.0117052048444747,-0.0048894882202148,0.0003817907709162,0.0003817907709162,-0.000534507096745
1761131960405259000,-0.0233266949653625,0.0140635818243026,0.0334177017211914,-0.0002290744741912,-0.0002290744741912,7.63581556384e-05
1761131960415259000,0.0030288398265838,-0.0098761022090911,0.0214462280273437,-0.000839939690195,-0.0020616701804101,0.00068722339347
1761131960425258000,0.0076504647731781,0.0045712292194366,0.0262374877929687,-0.000839939690195,-0.0020616701804101,7.63581556384e-05
1761131960435258000,-0.0045258104801177,-0.0145052373409271,0.0190591812133789,0.0009926559869199,-0.000839939690195,-0.000534507096745
1761131960445258200,-0.0213739871978759,-0.0026233494281768,0.0142745971679687,-0.000839939690195,-0.0014508049935102,7.63581556384e-05
1761131960455258000,-0.0167127847671508,-0.0001438558101654,0.031036376953125,-0.000839939690195,-0.0020616701804101,7.63581556384e-05
1761131960465258000,-0.0121102929115295,0.0047240108251571,0.0190687179565429,-0.0002290744741912,-0.0014508049935102,-0.0011453722836449
1761131960475258000,-0.01460462808609,0.0071453601121902,0.0047054290771484,0.0003817907709162,-0.0014508049935102,0.00068722339347
1761131960485258000,-0.0003334879875183,-8.55177640914e-05,0.0190753936767578,-0.0002290744741912,-0.000839939690195,0.00068722339347
1761131960495258000,-0.014762133359909,0.0119191259145736,0.0358362197875976,0.0009926559869199,-0.0002290744741912,7.63581556384e-05
1761131960505258000,-0.0219347178936004,0.0046393126249313,0.019078254699707,-0.0014508049935102,-0.0002290744741912,-0.0011453722836449
1761131960515258000,-0.0171181261539459,0.0047587454319,0.0238637924194335,0.0009926559869199,0.0003817907709162,0.00068722339347
1761131960525259000,0.0068920254707336,0.002274066209793,0.0262575149536132,-0.0002290744741912,0.0003817907709162,-0.000534507096745
1761131960535259000,-0.0097888112068176,-0.0049013346433639,0.0214662551879882,-0.000839939690195,0.0009926559869199,-0.000534507096745
1761131960545259000,-0.0240231752395629,0.0119302421808242,0.0166730880737304,0.0009926559869199,-0.0002290744741912,0.00068722339347
1761131960555259000,-0.0215998888015747,-0.0025295168161392,0.0190677642822265,-0.0002290744741912,-0.0020616701804101,-0.000534507096745
1761131960565259000,-0.0193631649017334,0.0070495754480361,0.0382261276245117,-0.0020616701804101,-0.0032834007870405,-0.0017562375869601
1761131960575259000,-0.0196175873279571,0.0168138742446899,0.0118932723999023,-0.000839939690195,-0.0020616701804101,-0.0011453722836449
1761131960585259000,-0.0029623806476593,0.0120916068553924,0.0214719772338867,-0.000839939690195,-0.00267253536731,-0.000534507096745
1761131960595259000,-0.0103280842304229,-0.0093974471092224,0.0214757919311523,-0.000839939690195,-0.00267253536731,0.00068722339347
1761131960605259000,-0.0033687651157379,0.0098126679658889,0.0095090866088867,-0.0014508049935102,-0.00267253536731,-0.0017562375869601
1761131960615259000,-0.0035780370235443,0.0099457055330276,0.0095129013061523,-0.000839939690195,-0.0038942659739404,-0.000534507096745
1761131960625224700,0.0032637119293212,-0.0139341801404953,0.0167045593261718,-0.0002290744741912,-0.0032834007870405,-0.0011453722836449
1761131960635191600,-0.0042359232902526,0.0052434504032135,0.0215015411376953,-0.000839939690195,-0.0020616701804101,7.63581556384e-05
1761131960645158100,0.0075301527976989,-0.0042560547590255,0.0262947082519531,-0.000839939690195,-0.00267253536731,7.63581556384e-05
1761131960655124700,-0.023860216140747,-0.0041655451059341,0.0143289566040039,-0.000839939690195,-0.0020616701804101,7.63581556384e-05
1761131960665091600,-0.0192575752735137,0.0126730352640151,0.0167264938354492,0.0003817907709162,-0.0014508049935102,0.00068722339347
1761131960675058200,-0.000219702720642,0.0102483481168746,0.0143365859985351,-0.0002290744741912,-0.0020616701804101,-0.0011453722836449
1761131960685024800,0.0091806948184967,0.0078534185886383,0.0334949493408203,0.0003817907709162,-0.0020616701804101,-0.000534507096745
1761131960694991400,-0.0125612914562225,0.0078323036432266,0.0191364288330078,-0.000839939690195,-0.0014508049935102,0.00068722339347
1761131960704958200,-0.0127089023590087,-0.0040547251701354,0.0191383361816406,-0.0014508049935102,-0.0020616701804101,7.63581556384e-05
1761131960714924800,-0.0057181417942047,-0.0087054520845413,0.0167474746704101,-0.0002290744741912,-0.000839939690195,7.63581556384e-05
1761131960724892200,0.0037764012813568,-0.0062801092863082,0.0167493820190429,0.0003817907709162,0.0003817907709162,0.00068722339347
1761131960734858800,0.006193608045578,-0.0134987235069274,0.009566307067871,-0.000839939690195,-0.00267253536731,-0.0011453722836449
1761131960744825600,-0.0108085870742797,-0.0014563500881195,0.019148826599121,0.0003817907709162,-0.000839939690195,7.63581556384e-05
1761131960754792200,-0.001327246427536,-0.0086686462163925,0.0263347625732421,-0.0002290744741912,-0.0014508049935102,7.63581556384e-05
1761131960764758800,0.0009261965751647,-0.0014609992504119,0.0263395309448242,-0.0014508049935102,-0.0014508049935102,7.63581556384e-05
1761131960774725600,-0.0159665644168853,-0.0037114322185516,0.0119743347167968,-0.0014508049935102,-0.000839939690195,-0.0011453722836449
1761131960784692200,-0.0112515687942504,0.0108020156621932,0.0167617797851562,-0.0002290744741912,-0.0014508049935102,-0.000534507096745
1761131960794658800,-0.0089973807334899,0.0012490004301071,0.011977195739746,-0.0002290744741912,-0.0020616701804101,-0.0011453722836449
1761131960804625700,-0.0020124316215515,0.0012659281492233,0.021559715270996,-0.000839939690195,-0.000839939690195,0.00068722339347
1761131960814592300,-0.0140722095966339,-0.0034321695566177,0.0263481140136718,0.0003817907709162,-0.0002290744741912,0.00068722339347
1761131960824558000,-0.0164829194545745,-0.0082605779170989,0.040715217590332,0.0003817907709162,0.0003817907709162,7.63581556384e-05
1761131960834524700,-0.0092397928237915,-0.0058797597885131,0.0838088989257812,0.0058795781806111,0.006490443367511,0.0012980886967852
1761131960844491500,-0.0061948597431182,0.0222702473402023,0.011977195739746,0.0089339045807719,0.0168751515448093,0.0012980886967852
1761131960854458000,0.0098173916339874,-0.0169072747230529,0.0358896255493164,0.0071013085544109,0.0125990957021713,7.63581556384e-05
1761131960864424700,-0.0128909945487976,0.0087500363588333,0.0119276046752929,0.0125990957021713,0.0248164013028144,7.63581556384e-05
1761131960874391300,-0.0152432024478912,0.0075067579746246,-0.0120573043823242,0.0125990957021713,0.0242055356502532,0.00068722339347
1761131960884358100,-0.0008976757526397,0.013460487127304,0.0046615600585937,0.0052687125280499,0.0077121737413108,7.63581556384e-05
1761131960894324700,-0.0001345872879028,0.0129490792751312,0.0046510696411132,0.0028252517804503,0.00465784734115,-0.000534507096745
1761131960904291600,-0.0116434693336486,-0.0208375602960586,0.01422119140625,0.0003817907709162,-0.000839939690195,-0.0011453722836449
1761131960914258200,0.0026294589042663,0.0078418254852294,0.0094366073608398,-0.0014508049935102,-0.000839939690195,-0.000534507096745
1761131960924259000,0.0025555491447448,0.0079910159111022,0.009434700012207,-0.00267253536731,-0.0020616701804101,7.63581556384e-05
1761131960934259000,0.0047456622123718,-0.0085136741399765,0.0118293762207031,-0.004505131393671,-0.0032834007870405,-0.000534507096745
1761131960944258800,-0.0195197761058807,0.0134922713041305,0.0285873413085937,-0.0051159965805709,-0.0038942659739404,0.00068722339347
1761131960954259000,-0.0127048790454864,-0.0147432833909988,0.0190095901489257,-0.0057268617674708,-0.00267253536731,-0.0011453722836449
1761131960964258800,-0.0081713199615478,-0.0093922764062881,0.030975341796875,-0.0032834007870405,0.0028252517804503,7.63581556384e-05
1761131960974259000,-0.0126784443855285,0.0076925903558731,0.0237760543823242,-0.0014508049935102,0.00465784734115,-0.000534507096745
1761131960984258800,-0.0074315667152404,-0.0113154649734497,0.0189704895019531,0.0003817907709162,0.006490443367511,7.63581556384e-05
1761132034049617000,0.0008374154567718,0.0038651283830404,0.0419445037841796,-0.0029016099870204,0.0,-0.0001527163112768
1761132034059617000,0.012799322605133,0.0113227292895317,0.0491285324096679,-0.0041233403608202,-0.0006108652451075,-0.0001527163112768
1761132034069617000,0.0223137140274047,0.0165185984224081,0.0491313934326171,-0.0059559359215199,0.0006108652451075,-0.0007635815418325
1761132034079616800,0.0271578729152679,-0.0020381398499011,0.0204019546508789,-0.00534507073462,0.0018325957935303,0.0010690141934901
1761132034089617000,0.0273410081863403,0.0080515071749687,0.0395545959472656,-0.00534507073462,0.0018325957935303,-0.00137444678694
1761132034099616800,0.0394559055566787,0.0037702210247516,0.01800537109375,-0.0065668015740811,0.0018325957935303,-0.0001527163112768
1761132034109617000,0.0060708671808242,-0.0004127137362957,0.0204010009765625,-0.0059559359215199,0.0030543261673301,0.0004581489483825
1761132034119617800,0.0110968351364135,-0.0166145749390125,0.0419464111328125,-0.0065668015740811,0.0024434609804302,-0.0001527163112768
1761132034129617700,-0.0078665018081665,-0.00401246920228,-0.0107269287109375,-0.0059559359215199,0.0018325957935303,-0.0007635815418325
1761132034139617800,-0.0053171068429946,0.0037577543407678,0.0180034637451171,-0.0047342055477201,0.0006108652451075,-0.0001527163112768
1761132034149617700,0.0091181546449661,-0.0005698874592781,0.0754652023315429,-0.0059559359215199,0.0024434609804302,-0.0007635815418325
1761132034159617800,-0.0050116330385208,-0.004781924188137,-0.0107278823852539,-0.0065668015740811,0.0018325957935303,-0.00137444678694
1761132034169617700,0.007127821445465,0.0102310851216316,0.015608787536621,-0.00534507073462,0.0006108652451075,-0.0001527163112768
1761132034179617800,0.0167666375637054,0.0131640415638685,0.0012454986572265,-0.0035124751739203,0.0006108652451075,-0.0007635815418325
1761132034189617700,-0.0095439404249191,0.0039049461483955,0.0227928161621093,-0.0022907445672899,0.0,-0.0019853119738399
1761132034199617800,0.007231667637825,-0.0150313414633274,0.0227928161621093,-0.0010690141934901,0.0006108652451075,-0.0001527163112768
1761132034209617700,-0.0190562829375267,-0.024504616856575,-0.0035429000854492,0.0007635815418325,-0.0012217304902151,-0.0001527163112768
1761132034219616800,-0.0263498425483703,-0.0221813097596168,0.046736717224121,0.00137444678694,-0.0006108652451075,-0.00137444678694
1761132034229617000,-0.0120620131492614,-0.0175178125500679,0.0204019546508789,0.0019853119738399,-0.0006108652451075,-0.0007635815418325
1761132034239616800,-0.0073314011096954,-0.0440576337277889,0.0443439483642578,0.00137444678694,-0.0006108652451075,-0.0007635815418325
1761132034249616600,0.0237622857093811,-0.0058330669999122,0.0323724746704101,0.00137444678694,0.0012217304902151,-0.0001527163112768
1761132034259616800,0.0382351875305175,0.0012620687484741,0.0060338973999023,0.0007635815418325,0.0012217304902151,0.0004581489483825
1761132034269616600,0.0383388549089431,0.0203677862882614,-0.020303726196289,0.0025961773935705,0.0,0.0004581489483825
1761132034279616800,0.0287475883960723,0.0009762719273567,0.0299739837646484,0.0032070425804704,0.0006108652451075,-0.0001527163112768
1761132034289616600,0.0263449400663375,-0.0280508249998092,0.046731948852539,0.0025961773935705,-0.0012217304902151,0.0004581489483825
1761132034299616800,0.0189662277698516,-0.0067007318139076,0.051523208618164,0.00137444678694,0.0006108652451075,-0.0001527163112768
1761132034309616600,-0.0217640846967697,0.0195337422192096,0.0275812149047851,0.0007635815418325,0.0006108652451075,-0.0001527163112768
1761132034319617500,-0.0408725589513778,0.0099024958908557,0.0443401336669921,-0.00167987938039,0.0006108652451075,-0.0007635815418325
1761132034329617700,-0.0336284264922142,0.0124603975564241,0.0323677062988281,-0.0022907445672899,0.0006108652451075,-0.0007635815418325
1761132034339617500,-0.040755495429039,0.0174709651619195,0.0539159774780273,-0.00167987938039,0.0,0.0010690141934901
1761132034349617700,-0.0550978928804397,0.0272085890173912,-0.0059394836425781,-0.0022907445672899,0.0006108652451075,0.0004581489483825
1761132034359617500,-0.0334101989865303,0.0225929319858551,0.0323667526245117,-0.00167987938039,0.0,-0.0007635815418325
1761132034369617700,-0.0165246203541755,0.0011564083397388,0.0275774002075195,-0.0022907445672899,0.0,-0.0001527163112768
1761132034379617500,0.0147202014923095,-0.0106444098055362,0.0419416427612304,-0.0010690141934901,0.0,-0.0001527163112768
1761132034389617700,0.0123764425516128,-0.015348844230175,0.0227870941162109,-0.0004581489483825,0.0006108652451075,-0.0007635815418325
1761132034399617500,0.0483632683753967,0.006245756521821,-0.0514326095581054,0.0001527163112768,0.0012217304902151,0.0022907445672899
1761132034409617700,0.0293311774730682,0.0014320127665996,0.3244552612304687,0.00137444678694,-0.0012217304902151,0.0010690141934901
1761132034419616800,0.0196416676044464,-0.0226416438817977,-0.0107326507568359,0.0019853119738399,0.0018325957935303,0.0004581489483825
1761132034429617000,0.0150298327207565,-0.0060607120394706,0.0586967468261718,0.0001527163112768,-0.0012217304902151,-0.0001527163112768
1761132034439616800,-0.0090487897396087,0.0178668890148401,-0.1711444854736328,0.0007635815418325,0.0018325957935303,-0.0007635815418325
1761132034449617000,-0.0160457715392112,0.0106047503650188,0.1065797805786132,0.0007635815418325,-0.0012217304902151,0.0004581489483825
1761132034459616800,-0.056858018040657,-0.0181961841881275,0.0467252731323242,-0.0004581489483825,0.0012217304902151,-0.0007635815418325
1761132034469617000,-0.0280148312449455,0.0105849914252758,-0.0251016616821289,0.00137444678694,-0.0012217304902151,0.0004581489483825
1761132034479616800,-0.0185406282544136,0.0295901894569396,-0.0011587142944335,0.0007635815418325,-0.0006108652451075,-0.00137444678694
1761132034489617000,-0.0137752965092659,0.0223277062177658,-0.0251007080078125,-0.0004581489483825,0.0,-0.00137444678694
1761132034499616800,0.0054366141557693,-0.0040033347904682,0.0993967056274414,0.0001527163112768,-0.0012217304902151,-0.0001527163112768
1761132034509617000,0.0197062939405441,0.0031494423747062,0.0227842330932617,0.00137444678694,-0.0006108652451075,0.0004581489483825
1761132034519617500,0.0483709424734115,-0.0041579231619834,0.0084190368652343,0.0007635815418325,0.0,-0.0007635815418325
1761132034529617700,0.0459653139114379,-0.0186037570238113,0.0132074356079101,-0.0004581489483825,0.0,-0.0001527163112768
1761132034539617800,0.0243918299674987,0.0030004158616065,0.063486099243164,0.00137444678694,0.0,-0.0001527163112768
1761132034549617700,0.002799704670906,-0.004324983805418,0.0323610305786132,0.0007635815418325,0.0,-0.0007635815418325
1761132034559617800,0.0027687102556228,0.005169341340661,0.0108146667480468,-0.0004581489483825,0.0012217304902151,-0.0001527163112768
1761132034569617700,-0.0162718519568443,0.019585620611906,0.0371484756469726,-0.0004581489483825,0.0012217304902151,0.0004581489483825
1761132034579618000,-0.0161394104361534,0.0196392051875591,0.0371465682983398,-0.0010690141934901,0.0,0.0004581489483825
1761132034589618000,-0.0281204804778099,-0.0161759033799171,0.0395421981811523,0.0001527163112768,0.0,-0.0007635815418325
1761132034599618000,-0.0161496624350547,-0.0089938044548034,-0.0083417892456054,-0.0010690141934901,0.0,-0.0001527163112768
1761132034609618000,0.0053879171609878,0.0222282260656356,0.025177001953125,-0.0010690141934901,-0.0012217304902151,-0.0001527163112768
1761132034619617000,0.0148550420999526,0.0151522867381572,0.0563030242919921,-0.0010690141934901,-0.0006108652451075,0.0010690141934901
1761132034629617200,0.019572839140892,-0.0302258096635341,0.0203914642333984,-0.00167987938039,-0.0006108652451075,-0.0007635815418325
1761132034639617000,0.0290941298007965,-0.0324685499072074,0.0347585678100585,-0.0004581489483825,0.0,0.0010690141934901
1761132034649617200,0.0266940593719482,-0.0012847669422626,0.0539121627807617,-0.0010690141934901,0.0,-0.0007635815418325
1761132034659617000,0.0338643044233322,-0.0155333206057548,0.0132112503051757,0.0001527163112768,0.0012217304902151,-0.0001527163112768
1761132034669617200,-0.0043844729661941,-0.0227099359035491,0.0203933715820312,-0.0004581489483825,-0.0006108652451075,-0.0007635815418325
1761132034679617000,-0.0068864673376083,0.0013188645243644,0.0251836776733398,0.0001527163112768,-0.0006108652451075,0.0004581489483825
1761132034689617200,0.007398784160614,0.0109072737395763,0.029973030090332,-0.0004581489483825,0.0012217304902151,0.0010690141934901
1761132034699617000,-0.0235911756753921,0.0085476636886596,0.0156059265136718,-0.0004581489483825,-0.0012217304902151,-0.0007635815418325
1761132034709617200,-0.0141377225518226,0.013381840661168,0.0251846313476562,0.0001527163112768,-0.0006108652451075,-0.0007635815418325
1761132034719617800,0.0025436133146286,-0.0057804808020591,0.0108203887939453,-0.0004581489483825,-0.0006108652451075,-0.0001527163112768
1761132034729618000,-0.0022899359464645,0.0182159822434186,0.0323686599731445,-0.0010690141934901,-0.0006108652451075,-0.00137444678694
1761132034739617800,0.0024295449256896,0.0111238546669483,0.0323696136474609,-0.0010690141934901,0.0,-0.0001527163112768
1761132034749618000,0.0263787806034088,0.0112428031861782,0.0060348510742187,-0.0004581489483825,-0.0018325957935303,-0.0007635815418325
1761132034759617800,0.0285911113023757,-0.0150537565350532,0.0299787521362304,0.0001527163112768,-0.0006108652451075,-0.0007635815418325
1761132034769618000,0.0285130590200424,-0.0078797377645969,0.0371627807617187,0.0001527163112768,-0.0006108652451075,-0.0007635815418325
1761132034779618000,0.011677473783493,-0.0031195059418678,0.0108270645141601,0.0001527163112768,-0.0018325957935303,-0.00137444678694
1761132034789618000,0.0114606469869613,-0.0031233727931976,0.0108299255371093,0.0007635815418325,-0.0006108652451075,-0.0001527163112768
1761132034799618000,-0.0125727653503417,0.0111731216311454,0.0371675491333007,0.0001527163112768,-0.0006108652451075,-0.0001527163112768
1761132034809618000,0.0113127082586288,-0.0032178424298763,0.0539283752441406,0.0001527163112768,0.0012217304902151,0.0004581489483825
1761132034819617000,-0.0005391091108322,0.0015635415911674,0.0275888442993164,0.0007635815418325,0.0,-0.0007635815418325
1761132034829617200,-0.0029448717832565,0.0110597759485244,0.013223648071289,0.0001527163112768,-0.0006108652451075,-0.0007635815418325
1761132034839617000,-0.0030034035444259,0.0086590200662612,0.0132255554199218,0.0007635815418325,-0.0006108652451075,-0.0001527163112768
1761132034849617200,0.0089171975851058,0.018151557072997,0.0275907516479492,-0.0004581489483825,-0.0012217304902151,-0.0007635815418325
1761132034859617000,0.0040054470300674,-0.0105330906808376,0.0204105377197265,0.0007635815418325,-0.0006108652451075,0.0010690141934901
1761132034869617200,0.0230874419212341,-0.0010221935808658,0.0299873352050781,0.0007635815418325,0.0,0.0004581489483825
1761132034879616800,-0.0032406598329544,-0.0250419341027736,0.0132265090942382,0.0001527163112768,-0.0018325957935303,0.0004581489483825
