timestamp,accel_x,accel_y,accel_z,gyro_x,gyro_y,gyro_z
1761131469817803500,-0.8450033664703369,-0.9748983383178712,0.4627742767333984,0.382172554731369,-0.7057784199714661,-1.043739676475525
1761131469877802800,-0.7018045783042908,-1.4232676029205322,-0.0181007385253906,-0.102243572473526,-0.6318637132644653,-1.487838625907898
1761131469887802600,-0.773205578327179,-1.3880209922790527,-0.2378606796264648,-0.1156826093792915,-0.5493969321250916,-1.5513685941696167
1761131469897802500,-0.7473220825195312,-1.33492112159729,-0.5317630767822266,-0.1199586614966392,-0.4840343594551086,-1.6057356595993042
1761131469907802400,-0.9207032918930054,-1.150083065032959,-0.6935691833496094,-0.1382846236228943,-0.4406629204750061,-1.6656004190444946
1761131469917802200,-1.0555644035339355,-1.0237717628479004,-0.8004350662231445,-0.1480584591627121,-0.405843585729599,-1.691867709159851
1761131469927802000,-0.9957729578018188,-1.0094621181488037,-0.7802896499633789,-0.1590540409088134,-0.3893502354621887,-1.6955327987670898
1761131469937802000,-0.9616569876670836,-0.960869550704956,-0.6884078979492188,-0.1651626974344253,-0.4015675485134125,-1.691256761550903
1761131469947801900,-0.8386285901069641,-0.9237179756164552,-0.5751419067382812,-0.1566105782985687,-0.425391286611557,-1.6851481199264526
1761131469957801700,-0.6970652937889099,-0.9254920482635498,-0.5383014678955078,-0.1431715488433838,-0.4608214795589447,-1.6827046871185305
1761131469967801900,-0.5499316453933716,-0.9019985198974608,-0.5490837097167969,-0.1370628923177719,-0.5078580975532532,-1.6967545747756958
1761131469977801700,-0.3667332530021667,-0.8238449096679688,-0.4186668395996094,-0.140728086233139,-0.5665011405944824,-1.7272977828979492
1761131469987801600,-0.1574402451515197,-0.7737867832183838,-0.3198614120483398,-0.142560675740242,-0.6233116388320923,-1.7749453783035278
1761131469997801500,-0.0194974541664123,-0.7518353462219238,-0.3843011856079101,-0.1358411610126495,-0.6666830778121948,-1.849470853805542
1761131470007801600,0.1327981948852539,-0.9694817066192628,-0.4918527603149414,-0.1285107731819152,-0.6862307190895081,-1.9313268661499023
1761131470017801500,-0.0526301264762878,-0.8808910846710205,-0.6255874633789062,-0.1358411610126495,-0.6984480619430542,-2.022956609725952
1761131470027801300,-0.1245986223220825,-0.9875650405883788,-0.6350440979003906,-0.1737148016691208,-0.7070001363754272,-2.0791561603546143
1761131470037801500,-0.2706408500671386,-1.056989669799805,-0.6193523406982422,-0.2366339266300201,-0.7198283076286316,-2.123138427734375
1761131470047801300,-0.5897753238677979,-1.0317740440368652,-0.3614511489868164,-0.3099377453327179,-0.7241044044494629,-2.143296957015991
1761131470057801200,-0.588560938835144,-0.9874377250671388,-0.3763637542724609,-0.3753003478050232,-0.7039458155632019,-2.130468845367432
1761131470067800000,-0.5435122847557068,-1.0874481201171875,0.2173919677734375,-0.4308890700340271,-0.6923394203186035,-2.1023690700531006
1761131470077800200,-0.4774284362792969,-1.0308308601379397,0.512664794921875,-0.4583780169486999,-0.6782894730567932,-2.075490951538086
1761131470087800000,-0.2870437502861023,-0.9085440635681152,0.694697380065918,-0.4321108162403106,-0.6330854892730713,-2.0461695194244385
1761131470097800000,-0.2834274768829345,-0.850090742111206,0.6766986846923828,-0.3862959146499634,-0.5933791995048523,-2.0467803478240967
1761131470107800000,-0.2221383452415466,-0.5963728427886963,0.4783716201782226,-0.3331506252288818,-0.5524512529373169,-2.0467803478240967
1761131470117800000,-0.1678089499473571,-0.4382915496826172,0.2173290252685547,-0.2867248654365539,-0.5316818356513977,-2.0492238998413086
1761131470127799800,-0.2779870629310608,-0.2176861763000488,0.0034399032592773,-0.2751184403896332,-0.5793293118476868,-2.080988883972168
1761131470137800000,-0.5939812660217285,-0.0632860660552978,-0.1574287414550781,-0.2629011273384094,-0.5799401998519897,-2.0822105407714844
1761131470147799800,-0.7262058258056641,-0.0401957035064697,-0.3103628158569336,-0.2696206569671631,-0.5970444083213806,-2.050445556640625
1761131470157800000,-0.4471408724784851,-0.0774450302124023,-0.3051567077636719,-0.2696206569671631,-0.5738315582275391,-2.0101284980773926
1761131470167800800,-0.6227964162826538,0.0280346870422363,-0.3306112289428711,-0.2708423733711242,-0.5512295365333557,-1.986304759979248
1761131470177800700,-0.7712414264678955,0.0849092006683349,-0.3556184768676758,-0.2512947022914886,-0.473649650812149,-1.9429333209991453
1761131470187800800,-0.7990126013755798,0.1152057647705078,-0.3577680587768554,-0.2286926805973053,-0.4229478240013122,-1.889788031578064
1761131470197800700,-0.931483030319214,0.2695653438568115,-0.3420295715332031,-0.209755852818489,-0.4302782118320465,-1.842751383781433
1761131470207800800,-1.0157121419906616,0.3375773429870605,-0.2514295578002929,-0.1859321147203445,-0.4644866585731506,-1.785330057144165
1761131470217800700,-1.1403976678848269,0.4838767051696777,-0.1411199569702148,-0.1584431678056717,-0.5182427763938904,-1.7242435216903689
1761131470227800800,-1.1586310863494873,0.5450606346130371,-0.102090835571289,-0.1321759670972824,-0.5658903121948242,-1.659491777420044
1761131470237800700,-1.1153091192245483,0.5953161716461182,-0.1031885147094726,-0.1059087589383125,-0.5939900875091553,-1.5971835851669312
1761131470247800800,-1.1617701053619385,0.6058840751647949,-0.0868167877197265,-0.090637132525444,-0.6227007508277893,-1.546481728553772
1761131470257800700,-0.9341050386428832,0.4847242832183838,-0.0772542953491211,-0.0863610729575157,-0.6514114141464233,-1.4939472675323486
1761131470267799800,-1.0722075700759888,0.5180625915527344,-0.0796518325805664,-0.0973566472530365,-0.7070001363754272,-1.4634040594100952
1761131470277800000,-0.5795027613639832,0.5542407035827637,-0.1184329986572265,-0.1059087589383125,-0.7088327407836914,-1.4414129257202148
1761131470287799800,-0.3849993944168091,0.6120469570159912,-0.2960958480834961,-0.1138500124216079,-0.6947828531265259,-1.4481323957443235
1761131470297800000,-0.7929065227508545,0.7176365852355957,-0.3275346755981445,-0.1333976984024047,-0.69661545753479,-1.4664583206176758
1761131470307799800,-1.1982009410858154,0.8482382297515869,-0.2370176315307617,-0.1572214365005493,-0.6764569282531738,-1.4426345825195312
1761131470317800000,-1.2451324462890625,0.8437097072601318,-0.0005779266357421,-0.1944842189550399,-0.6642395853996277,-1.3497830629348757
1761131470327799800,-0.9632844924926758,0.6266880035400391,0.1441879272460937,-0.2042580693960189,-0.6990588903427124,-1.298470377922058
1761131470337800000,-0.7656108140945435,0.5085093975067139,0.1138544082641601,-0.2012037336826324,-0.7143305540084839,-1.2734249830245972
1761131470347799800,-0.7284914255142212,0.3897299766540527,0.1315536499023437,-0.1889864355325698,-0.6898959279060364,-1.2599859237670898
1761131470357800000,-0.6274243593215942,0.2695560455322265,0.0971307754516601,-0.1651626974344253,-0.6508005857467651,-1.2496012449264526
1761131470367800800,-0.6310975551605225,0.2021205425262451,0.0922231674194336,-0.1285107731819152,-0.6049856543540955,-1.2404382228851318
1761131470377800700,-0.6406084299087524,0.1839270591735839,0.1410102844238281,-0.0771980956196785,-0.5652794241905212,-1.2221122980117798
1761131470387800800,-0.7668248414993286,0.1322252750396728,0.2245616912841797,-0.0155007056891918,-0.5426774024963379,-1.20317542552948
1761131470397800700,-0.8915988802909851,0.048539400100708,0.4435358047485351,0.0492510087788105,-0.5225188732147217,-1.1726322174072266
1761131470407800800,-1.046558499336243,-0.0360853672027587,0.6614465713500977,0.1366047412157058,-0.4834234714508056,-1.1249847412109375
1761131470417800700,-0.5982685089111328,-0.0016541481018066,0.8405017852783203,0.2392300963401794,-0.4321108162403106,-1.0681742429733276
1761131470427800800,-0.0801418721675872,0.0161802768707275,1.3713407516479492,0.3754530549049377,-0.3716351389884949,-1.0596221685409546
1761131470437800700,-0.1206271350383758,0.0047788619995117,1.8166093826293943,0.5690973401069641,-0.2335795909166336,-1.084056735038757
1761131470457800700,0.316143661737442,-0.5562105178833008,-0.1592531204223632,0.8635343909263611,-0.090637132525444,-1.2367730140686035
1761131470467800000,0.2322189509868621,-0.5373636484146118,-1.1740083694458008,0.8555931448936462,-0.0985783785581588,-1.2935835123062134
1761131470477800000,-0.6136033535003662,-0.2235703468322754,-1.530311107635498,0.7175375819206238,-0.2152536362409591,-1.3620004653930664
1761131470487800000,-1.5241010189056396,0.2773261070251465,-1.430434226989746,0.511676013469696,-0.411952257156372,-1.366276502609253
1761131470497800000,-1.8814133405685425,0.6885819435119629,-0.6006612777709961,0.2893210649490356,-0.6367506384849548,-1.2740358114242554
1761131470507800000,-1.6948796510696411,0.9755864143371582,0.3596830368041992,0.1011745557188987,-0.7241044044494629,-1.1579713821411133
1761131470517800000,-1.4663307666778564,1.1132657527923584,1.126378059387207,-0.0112246489152312,-0.630031168460846,-1.0504591464996338
1761131470527800000,-0.822970986366272,0.4508078098297119,1.622715950012207,-0.0649807900190353,-0.3899610936641693,-0.96799236536026
1761131470537800000,-0.2911570370197296,-0.5991530418395996,1.9769964218139648,-0.1205695271492004,-0.1688278764486313,-0.93805992603302
1761131470547800000,-0.2086169123649597,-1.30788254737854,2.2440185546875,-0.1792125850915908,0.0187077485024929,-0.9563859105110168
1761131470557800000,0.0171136260032653,-1.555633306503296,2.301708221435547,-0.2439643144607544,0.3168099820613861,-1.0168615579605105
1761131470567800800,-0.1141067147254943,-1.3493462800979614,1.939979553222656,-0.2677880525588989,0.4652502536773681,-1.0657308101654053
1761131470577800700,-0.4912871718406677,-1.0848709344863892,1.609675407409668,-0.2958878576755523,0.5855907201766968,-1.1023826599121094
1761131470587800800,-0.9115393757820128,-1.0010700225830078,1.605330467224121,-0.3129920661449432,0.6314055919647217,-1.1237629652023315
1761131470597800700,-1.2410892248153689,-0.9361238479614258,1.565526008605957,-0.3056617081165313,0.605749249458313,-1.103604435920715
1761131470607800800,-1.418316125869751,-0.8686380386352539,1.6317205429077148,-0.2800053656101227,0.5006804466247559,-1.0675634145736694
1761131470617800700,-1.8605247735977173,-0.5899178981781006,1.9616823196411133,-0.2103667259216308,0.3913355469703674,-1.0028116703033447
1761131470627800800,-1.1513633728027344,-0.5211186408996582,1.8187332153320312,-0.1077413558959961,0.2599995136260986,-0.9148470759391784
1761131470637800700,-0.5933787822723389,-0.7807159423828125,1.581486701965332,-0.00267253536731,0.0376445725560188,-0.8763625621795654
1761131470647800800,-0.4956420063972473,-0.8731447458267212,1.2489690780639648,0.0999528244137764,-0.1798234581947326,-0.8543714284896851
1761131470657800700,-0.3951407670974731,-0.8892329931259155,0.9311771392822266,0.1940260678529739,-0.3203224539756775,-0.7987826466560364
1761131470667799800,-0.3882128596305847,-0.828585147857666,0.7650995254516602,0.2801580727100372,-0.3777438104152679,-0.7163158655166626
1761131470677800000,-0.4938300251960754,-0.7721936702728271,0.2007398605346679,0.3516293168067932,-0.3789655268192291,-0.605749249458313
1761131470687799800,-0.3864579796791076,-0.611152172088623,-0.2876081466674804,0.3980550765991211,-0.3417027592658996,-0.4811327457427978
1761131470697800000,0.1655312776565551,-0.4995802640914917,-0.6741218566894531,0.4151592850685119,-0.3667482137680053,-0.3760639131069183
1761131470707799800,0.2301993370056152,-0.359727144241333,-0.943368911743164,0.4121049642562866,-0.4174500405788421,-0.3351359367370605
1761131470717800000,0.0457403063774108,-0.1488559246063232,-0.9786243438720704,0.3992767930030823,-0.3881285190582275,-0.2978731691837311
1761131470727799800,0.3906150460243225,-0.0752210617065429,-1.066572189331055,0.3748421967029571,-0.3380375504493713,-0.2459496259689331
1761131470737800000,0.5108292102813721,-0.0726118087768554,-1.0226669311523438,0.3339142203330993,-0.3160464167594909,-0.2288453876972198
1761131470747799800,0.322843998670578,-0.2043323516845703,-0.7923860549926758,0.2813797891139984,-0.2793944776058197,-0.2294562608003616
1761131470757800000,0.0636724829673767,-0.4276793003082275,-0.4144229888916015,0.2386192381381988,-0.2219731658697128,-0.2086868435144424
1761131470767800600,-0.0063043236732482,-0.5443301200866699,-0.0490036010742187,0.2117411643266677,-0.2555707395076751,-0.157374158501625
1761131470777800700,-0.0112209916114807,-0.5244016647338867,0.1885986328125,0.1995238661766052,-0.3630830347537994,-0.1091158017516136
1761131470787800600,-0.0417125821113586,-0.5390968322753906,0.190530776977539,0.2147954851388931,-0.5048037767410278,-0.0523053370416164
1761131470797800700,0.0731502175331115,-1.0673282146453855,0.4625082015991211,0.2227367460727691,-0.667293906211853,-0.0260381307452917
1761131470807800600,0.1196797788143158,-0.9320235252380372,0.137603759765625,0.230677992105484,-0.7491498589515686,-0.0358119755983352
1761131470817800700,0.1039460301399231,-0.5526361465454102,-0.0746641159057617,0.2245693355798721,-0.7302130460739136,-0.039477165788412
1761131470827800600,0.0376432240009307,-0.1968414783477783,-0.497110366821289,0.2037999182939529,-0.6428593397140503,-0.0297033227980136
1761131470837800700,0.2834762334823608,-0.668626070022583,-0.6891746520996094,0.1647045463323593,-0.4492150247097015,-0.0089339045807719
1761131470847800600,0.5944962501525879,-0.979426383972168,-1.0703277587890625,0.105450615286827,-0.2690097689628601,-0.0107664996758103
1761131470857800700,0.5650606751441956,-0.7922619581222534,-0.9637842178344728,0.0645226389169693,-0.0765872299671173,-0.0217620749026536
1761131470867799800,0.5176783204078674,-0.6474249362945557,-0.8599939346313477,0.0620791800320148,0.0284815914928913,-0.0297033227980136
1761131470877800000,0.3795842826366424,-0.3496017456054687,-0.8037443161010742,0.0883463844656944,0.0144316917285323,-0.0339793786406517
1761131470887799800,0.3119998574256897,-0.2509701251983642,-0.717982292175293,0.1366047412157058,-0.0613155998289585,-0.0370337069034576
1761131470897799700,0.2660461366176605,-0.152367353439331,-0.7052478790283203,0.2025781869888305,-0.1419498175382614,-0.0290924571454525
1761131470907799800,0.413413941860199,-0.0673503875732421,-0.7866191864013672,0.2777146100997925,-0.2054798007011413,-0.0113773653283715
1761131470917799700,0.4489498734474182,-0.1093769073486328,-0.9856643676757812,0.3449097871780395,-0.2842814028263092,0.0051159965805709
1761131470927799800,0.4431681632995605,-0.0167186260223388,-1.2761945724487305,0.3803399801254272,-0.3673590719699859,0.0289397407323122
1761131470937799700,0.3285613358020782,0.249413251876831,-1.4267048835754397,0.382172554731369,-0.4101196527481079,0.0478765629231929
1761131470947799800,0.2287720441818237,0.5223629474639893,-1.608006477355957,0.3565162420272827,-0.4235586822032928,0.0845284759998321
1761131470957800000,0.1866226494312286,0.4888443946838379,-1.59820556640625,0.3076470196247101,-0.3936263024806976,0.1333976984024047
1761131470967800800,0.4259949922561645,0.6012110710144043,-1.6254315376281738,0.2337323129177093,-0.3453679382801056,0.1883755773305893
1761131470977800700,0.6635019779205322,0.3733913898468017,-1.328963279724121,0.1372155994176864,-0.3245985209941864,0.2384665161371231
1761131470987800800,0.8894802927970886,0.2624320983886719,-1.1022043228149414,0.0443640872836113,-0.283059686422348,0.2677880525588989
1761131470997801200,0.924535036087036,0.3278515338897705,-0.9331455230712892,-0.0460439696907997,-0.1932624876499176,0.2683989107608795
1761131471007801300,0.7644708156585693,0.5287158489227295,-0.8002662658691406,-0.1443932652473449,-0.0747546330094337,0.2409099787473678
1761131471017801200,0.6712692379951477,0.6117815971374512,-0.6966552734375,-0.3166572749614715,0.055359661579132,0.2225840240716934
1761131471027801300,0.4156365990638733,0.7104501724243164,-0.6267423629760742,-0.425391286611557,0.1042288839817047,0.2256383448839187
1761131471037801200,0.4083813428878784,0.7300875186920166,0.1394023895263672,-0.5176319479942322,0.0455858185887336,0.2396882474422454
1761131471047801300,0.4471737742424011,0.8839426040649414,-0.767552375793457,-0.5665011405944824,-0.012446379289031,0.2610685229301452
1761131471057801200,1.2915599346160889,1.568554162979126,-0.5429105758666992,-0.5982661247253418,0.1488220393657684,0.2457969039678573
1761131471067800300,0.1297523081302642,1.3206865787506104,-0.7806110382080078,-0.5994879007339478,0.2954297065734863,0.2537381649017334
1761131471077800400,0.1480265110731125,1.3717482089996338,-0.7954120635986328,-0.6110942959785461,0.349796712398529,0.3484222590923309
1761131471087800300,1.2513427734375,1.301264762878418,-0.2953042984008789,-0.580551028251648,0.3406337201595306,0.4101196527481079
1761131471097800400,1.13515305519104,1.205585479736328,0.2037696838378906,-0.5115233063697815,0.2019673287868499,0.3459787964820862
1761131471107800000,1.5068641901016235,1.408491611480713,-0.075204849243164,-0.3911828398704529,0.0633009076118469,0.3105486333370209
1761131471117800000,1.652250051498413,1.7333848476409912,0.5159702301025391,-0.3013856410980224,0.0529162026941776,0.1871538460254669
1761131471127800000,1.6611303091049194,1.7802674770355225,1.1355047225952148,-0.142560675740242,0.0773508101701736,0.0979675129055976
1761131471137800000,1.8221056461334229,1.7740066051483154,1.5188522338867188,0.0657443702220916,0.1396590620279312,0.016111571341753
1761131471147800000,1.8204731941223145,1.714702844619751,1.6743640899658203,0.2618321180343628,0.1524872332811355,-0.0920115783810615
1761131471157800000,1.5637527704238892,1.433116436004639,1.6067304611206057,0.4328743815422058,0.1048397496342659,-0.2050216495990753
1761131471167800800,1.4806989431381226,1.372873067855835,1.4787588119506836,0.5752059817314148,0.0498618744313716,-0.2997057735919952
1761131471177801000,1.1699155569076538,1.1627297401428225,0.9931678771972656,0.6723335385322571,-0.0246636848896741,-0.3772856593132019
1761131471197801000,1.0824848413467407,0.8522129058837891,0.6518707275390625,0.7108180522918701,-0.0087811881676316,-0.4518111944198608
1761131471207800800,0.9433236122131348,0.694354772567749,0.4775981903076172,0.6613379716873169,0.1017854213714599,-0.4597524404525757
1761131471221229000,0.6043593287467957,0.6251537799835205,0.5250635147094727,0.5758168697357178,0.2276236563920974,-0.4603633284568786
1761131471231229000,0.2319667041301727,0.5474636554718018,0.5058860778808594,0.4915174543857574,0.3436880707740783,-0.4426482319831848
1761131471241229000,-0.1753689050674438,0.4994637966156006,0.3961257934570312,0.420657068490982,0.4701371788978576,-0.3962224721908569
1761131471251229000,-0.5128101706504822,0.5107855796813965,0.083749771118164,0.3571271002292633,0.7370852828025818,-0.282601535320282
1761131471261229000,-0.6523524522781372,0.6258676052093506,-0.3491373062133789,0.330249011516571,0.9624945521354676,-0.2068542391061782
1761131471271228200,-0.7237535119056702,0.6926276683807373,-0.5251102447509766,0.2948188483715057,1.081613302230835,-0.1451568603515625
1761131471281228300,-1.1241081953048706,0.6757733821868896,-0.5783634185791016,0.2355649173259735,0.9899834990501404,-0.0834594666957855
1761131471291228200,-1.2474123239517212,1.001131534576416,-0.5966081619262695,0.1439351290464401,0.7645742297172546,-0.0009926559869199
1761131471301227800,-1.1802582740783691,1.4174411296844482,-0.4453840255737304,0.0333685129880905,0.5275585055351257,0.0692568495869636
1761131471311227600,-1.1337753534317017,1.40921950340271,-0.4394817352294922,-0.0643699243664741,0.3223077654838562,0.1382846236228943
1761131471321227800,0.2137047946453094,1.1910436153411863,0.3405752182006836,-0.1663844138383865,0.1152244582772255,0.1498910635709762
1761131471331227600,1.064822793006897,0.5803413391113281,1.0393285751342771,-0.273285835981369,-0.1761582642793655,0.0943023189902305
1761131471341227800,1.403871774673462,0.2254767417907714,1.825678825378418,-0.3728568851947784,-0.5005277395248413,-0.0119882300496101
1761131471351227600,1.2203224897384644,0.0452370643615722,2.5178041458129883,-0.4272238910198211,-0.668515682220459,-0.1195005103945732
1761131471361227800,0.9150259494781494,-0.235398530960083,2.92708683013916,-0.3893502354621887,-0.544510006904602,-0.1891391575336456
1761131471371228400,0.7263497114181519,-0.7416172027587891,2.8430185317993164,-0.2580142021179199,-0.1639409661293029,-0.2215150147676468
1761131471381228500,0.4806545376777649,-1.0540285110473633,2.63576602935791,-0.0668133869767189,0.3522401750087738,-0.2276236563920974
1761131471391228400,0.2162348628044128,-1.1112545728683472,2.3889970779418945,0.1457677185535431,0.7786241173744202,-0.220904141664505
1761131471401228500,0.2953926920890808,-1.1235839128494265,2.397824287414551,0.3504075706005096,1.03579843044281,-0.2025781869888305
1761131471411229000,-0.5405875444412231,-0.4916837215423584,1.780780792236328,0.5135086178779602,1.107880473136902,-0.1763109862804412
1761131471421229000,-0.8417081236839294,-0.1645510196685791,1.599034309387207,0.6332381963729858,0.9722684025764464,-0.1274417638778686
1761131471431229000,-0.8434406518936157,-0.0808424949645996,1.3948431015014648,0.7004333734512329,0.6924921274185181,-0.0724638924002647
1761131471441229000,-0.5593196153640747,-0.2550122737884521,1.260706901550293,0.7120398283004761,0.3473532497882843,-0.0382554344832897
1761131471451229000,-0.1166949272155761,-0.5524373054504395,1.090744972229004,0.6784422397613525,0.0058795781806111,-0.0217620749026536
1761131471461229000,0.3562259078025818,-0.8204545974731445,0.9286890029907228,0.6185774207115173,-0.2372447848320007,-0.0150425564497709
1761131471471228200,0.782687783241272,-1.0230391025543213,0.7889080047607422,0.5684864521026611,-0.3258202373981476,0.0051159965805709
1761131471481228000,1.233936429023743,-1.0990643501281738,0.6206254959106445,0.531223714351654,-0.2537381649017334,0.036270122975111
1761131471491228200,1.647634744644165,-1.1311216354370115,0.3994283676147461,0.5226715803146362,-0.1590540409088134,0.0301614720374345
1761131471501228000,1.8323493003845213,-1.1079165935516355,0.2167119979858398,0.5238932967185974,-0.0936914533376693,-0.0058795781806111
1761131471511228200,1.8123929500579836,-1.085331916809082,0.1347541809082031,0.5306128263473511,-0.0949131846427917,-0.0706312954425811
1761131471521228000,1.6784523725509644,-1.075908660888672,0.0167617797851562,0.5446627140045166,-0.1535562574863433,-0.1445459872484207
1761131471531228200,1.509540557861328,-1.140195369720459,-0.1279106140136718,0.5715407729148865,-0.2146427780389785,-0.2013564556837082
1761131471541228000,1.3767234086990356,-1.198061227798462,-0.2940177917480469,0.6136904954910278,-0.2348013222217559,-0.2392300963401794
1761131471551228200,1.2615878582000732,-1.3036415576934814,-0.6314573287963867,0.6759987473487854,-0.1987602859735489,-0.2612212598323822
1761131471561228000,1.2467023134231567,-1.3550143241882324,-0.6114616394042969,0.7596873044967651,-0.1065196245908737,-0.2862667143344879
1761131471571229000,1.3363497257232666,-1.525669813156128,-1.7210087776184082,0.8366563320159912,0.0113773653283715,-0.3333033621311188
1761131471581229000,1.2134108543395996,-1.5853877067565918,-2.3651552200317383,0.8751408457756042,0.1085049360990524,-0.4011093974113464
1761131471591229000,1.238911271095276,-1.6600818634033203,-2.32966423034668,0.8659778237342834,0.17081318795681,-0.4621959030628204
1761131471601229000,0.5975559949874878,-1.3259923458099363,-3.224635601043701,0.8036695718765259,0.1793653070926666,-0.5043455958366394
1761131471611229000,0.2174914479255676,-1.215369701385498,-3.3049893379211426,0.6998224854469299,0.1231657043099403,-0.5141194462776184
1761131471621229000,-0.0519301295280456,-1.1453180313110352,-3.2819061279296875,0.5794820189476013,0.0150425564497709,-0.4945717751979828
1761131471631229000,-0.149523377418518,-1.193824291229248,-3.2382259368896484,0.4530329406261444,-0.1089630872011184,-0.4560872614383697
1761131471641229000,-0.0583078861236572,-1.226635456085205,-3.1243066787719727,0.3284164369106293,-0.2146427780389785,-0.4157701432704925
1761131471651229000,0.034014344215393,-1.2224900722503662,-3.028634548187256,0.2050216495990753,-0.2946661114692688,-0.382783442735672
1761131471661229000,0.0605831742286682,-1.1312472820281982,-2.7881593704223637,0.0828486010432243,-0.3343723714351654,-0.3626248836517334
1761131471671228200,0.0301737189292907,-1.012793779373169,-2.481456756591797,-0.0307723358273506,-0.3368158340454101,-0.3540727794170379
1761131471681228000,-0.0247938632965087,-0.9348077774047852,-2.155681133270264,-0.129121646285057,-0.3209333419799804,-0.3418554663658142
1761131471691228200,-0.0765383839607238,-0.901031494140625,-1.831535816192627,-0.2036471962928772,-0.2885574698448181,-0.330859899520874
1761131471701228000,-0.0877090096473693,-0.8800091743469238,-1.8429970741271973,-0.2531272768974304,-0.2457969039678573,-0.3204751908779144
1761131471711228200,-0.0310474038124084,-0.8020787239074707,-1.1952810287475586,-0.2812270820140838,-0.2164753675460815,-0.3174208402633667
1761131471721228000,-0.1420172452926635,-0.7695631980895996,-0.8524627685546875,-0.2855031490325928,-0.209755852818489,-0.3125339448451996
1761131471731228200,-0.2503482103347778,-0.7271170616149902,-0.5240373611450195,-0.2555707395076751,-0.211588442325592,-0.3003166317939758
1761131471741228000,-0.3163497447967529,-0.6778440475463867,-0.2469558715820312,-0.2109775841236114,-0.2537381649017334,-0.2807689309120178
1761131471751228200,-0.3582434058189392,-0.6183114051818848,-0.056924819946289,-0.1590540409088134,-0.3258202373981476,-0.2508365511894226
1761131471761228000,-0.3767306208610534,-0.6019792556762695,-0.0664358139038086,-0.1211803928017616,-0.3948480188846588,-0.2245693355798721
1761131471771229000,-0.1367033720016479,-0.459972620010376,0.2507057189941406,-0.0973566472530365,-0.4296673536300659,-0.2044107764959335
1761131471781228800,0.0442777276039123,-0.4017140865325928,0.4106359481811523,-0.0863610729575157,-0.4247804284095764,-0.1873065531253814
1761131471791229000,0.1367628574371338,-0.3728930950164795,0.518345832824707,-0.079030692577362,-0.3948480188846588,-0.180587038397789
1761131471801228800,0.3300932347774505,-0.3465526103973388,0.5953216552734375,-0.0759763643145561,-0.3667482137680053,-0.1879174262285232
1761131471811229000,0.430404931306839,-0.3701298236846924,0.6269741058349609,-0.0857502073049545,-0.3643047511577606,-0.2202932834625244
1761131471821228800,0.4170100688934326,-0.3585102558135986,0.7514181137084961,-0.1175151988863945,-0.3869067728519439,-0.2661081850528717
1761131471831229000,0.2952466607093811,-0.3263990879058838,0.934051513671875,-0.1682170182466507,-0.4382194578647613,-0.3064252734184265
1761131471841228800,0.1031621694564819,-0.3223516941070556,1.2840566635131836,-0.2293035387992859,-0.505414605140686,-0.3278055489063263
1761131471851229000,-0.077359914779663,-0.3797848224639892,1.5786638259887695,-0.2897791862487793,-0.5658903121948242,-0.3229186534881592
1761131471861228800,-0.1149196624755859,-0.3486747741699219,1.5621519088745115,-0.3374266922473907,-0.5878814458847046,-0.2880993187427521
1761131471871228000,-0.35929936170578,-0.3071651458740234,1.9680862426757808,-0.3520874679088592,-0.5292384028434753,-0.2215150147676468
1761131471881228000,-0.2205442190170288,-0.191425085067749,1.886098861694336,-0.3178789913654327,-0.3759112060070038,-0.130496084690094
1761131471891228000,0.1364102959632873,-0.127969741821289,1.6967477798461914,-0.2494620978832245,-0.1853212416172027,-0.0516944713890552
1761131471901228000,0.1217430531978607,-0.1051328182220459,1.6861572265625,-0.1779908537864685,-0.087582804262638,-0.0211512092500925
1761131471911228000,0.4307066798210144,0.294076919555664,1.4227285385131836,-0.122402124106884,-0.1376737505197525,-0.0315359197556972
1761131471921228000,0.3979447484016418,0.4872200489044189,1.264164924621582,-0.0729220360517501,-0.2402991205453872,-0.0541379339993
1761131471931228000,0.4429581463336944,0.5970003604888916,1.1166181564331057,-0.0344375297427177,-0.3478114008903503,-0.0712421610951423
1761131471941228000,0.5387636423110962,0.5716984272003174,0.9820899963378906,-0.0216093584895133,-0.444938987493515,-0.0859029218554496
1761131471951228200,0.7436742782592773,0.4877936840057373,0.8908748626708984,-0.0582612715661525,-0.5200753808021545,-0.1060614809393882
1761131471961228000,0.9473162293434144,0.3881034851074219,0.9154767990112304,-0.1217912584543228,-0.5707772374153137,-0.1231657043099403
1761131471971229000,1.0153326988220217,0.3324751853942871,1.0550622940063477,-0.2109775841236114,-0.6306419968605042,-0.1421025246381759
1761131471981229000,1.0282727479934692,0.2801222801208496,1.258453369140625,-0.3001639246940613,-0.6746243238449097,-0.1506546437740326
1761131471991229000,0.9369084239006042,0.2286229133605957,1.4755544662475586,-0.3612504303455353,-0.668515682220459,-0.1439351290464401
1761131472001229000,0.9295176863670348,0.1897964477539062,1.7219781875610352,-0.3789655268192291,-0.5842162370681763,-0.1298852264881134
1761131472011229000,1.00810706615448,0.1381828784942627,1.8198699951171875,-0.3520874679088592,-0.454101949930191,-0.1115592643618583
1761131472021229000,0.970864713191986,0.1703066825866699,1.8066797256469729,-0.2702315151691437,-0.2580142021179199,-0.0956767722964286
1761131472031229000,1.2620749473571775,-0.0276901721954345,1.598052978515625,-0.1431715488433838,-0.0423787757754325,-0.0914007127285003
1761131472041228800,1.390780687332153,-0.0936288833618164,1.413315773010254,0.0083230389282107,0.1042288839817047,-0.1115592643618583
1761131472051229000,1.4019196033477783,0.0229606628417968,1.1718435287475586,0.1604284793138504,0.1543198376893997,-0.1567633002996444
1761131472061228800,1.397712230682373,0.1137616634368896,0.9406919479370116,0.2899319231510162,0.1213331073522567,-0.2166280895471573
1761131472071228000,1.4453450441360474,0.1282093524932861,0.6616067886352539,0.3907246887683868,0.0205403435975313,-0.2801580727100372
1761131472081228000,1.6466079950332642,0.0138993263244628,0.3838357925415039,0.4524220824241638,-0.119347795844078,-0.3504075706005096
1761131472091228000,1.797174096107483,-0.1968398094177246,0.1203298568725586,0.4670828282833099,-0.2531272768974304,-0.4298200607299804
1761131472101228000,1.8856215476989744,-0.3775193691253662,-0.0420589447021484,0.4334852397441864,-0.3569743633270263,-0.5147303342819214
1761131472111228200,1.7962825298309326,-0.4922730922698974,-0.224985122680664,0.3546836376190185,-0.4003458023071289,-0.5947536826133728
1761131472121228000,1.515255093574524,-0.5825464725494385,-0.3702917098999023,0.2514474093914032,-0.3704134225845337,-0.6558402180671692
1761131472131228200,1.1393402814865112,-0.64849853515625,-0.4622220993041992,0.147600308060646,-0.2836705446243286,-0.6784422397613525
1761131472141228000,0.8325778841972351,-0.6972522735595703,-0.5559501647949219,0.0516944713890552,-0.1700496077537536,-0.6656140685081482
1761131472151228200,0.5577042102813721,-0.7007415294647217,-0.7182846069335938,-0.024052819237113,-0.0466548316180706,-0.6295729875564575
1761131472161228000,0.4019744098186493,-0.7018008232116699,-0.8764858245849609,-0.0765872299671173,0.0822377353906631,-0.5794820189476013
1761131472171229000,0.3153577446937561,-0.6508562564849854,-1.0195903778076172,-0.1095739528536796,0.1836413592100143,-0.5287802219390869
1761131472181228800,0.2908461987972259,-0.5234646797180176,-1.230520248413086,-0.1181260645389556,0.2587777972221374,-0.4457025527954101
1761131472191229000,0.2813914716243744,-0.3386092185974121,-1.4532194137573242,-0.102243572473526,0.2642755806446075,-0.3870594799518585
1761131472201228800,0.3628145754337311,-0.1462531089782714,-1.679670810699463,-0.0741437673568725,0.2459496259689331,-0.3388011455535888
1761131472211229000,0.4876381158828735,0.0359473228454589,-1.8544845581054688,-0.0552069470286369,0.2141846269369125,-0.3058144152164459
1761131472221228800,0.621493935585022,0.1134173870086669,-1.97103214263916,-0.0503200255334377,0.1702023297548294,-0.2874884605407715
1761131472231229000,0.7339772582054138,0.1641724109649658,-2.044349670410156,-0.0515417568385601,0.1060614809393882,-0.2764928936958313
1761131472241228800,0.7540510892868042,0.1695683002471923,-2.046010971069336,-0.0558178126811981,0.0516944713890552,-0.2795472145080566
1761131472251229000,0.9632208347320556,0.3382284641265869,-2.0479745864868164,-0.0619264654815197,0.0107664996758103,-0.2874884605407715
1761131472261228800,0.97744882106781,0.3853981494903564,-2.050281524658203,-0.0686459839344024,-0.012446379289031,-0.3045926690101623
1761131472281228000,0.9493170976638794,0.3242480754852295,-2.024813175201416,-0.0955240502953529,0.0235946699976921,-0.3485749661922455
1761131472291228000,0.9645335674285888,0.3340687751770019,-2.028319835662842,-0.119347795844078,0.035201109945774,-0.3681226670742035
1761131472301228000,0.6870110034942627,0.3820784091949463,-1.7668991088867188,-0.1492801904678344,0.0168751515448093,-0.3833943009376526
1761131472311228000,0.5591733455657959,0.377873420715332,-1.6239638328552246,-0.181045189499855,-0.0167224369943141,-0.3803399801254272
1761131472321228000,0.5645997524261475,0.3909597396850586,-1.5086431503295898,-0.2054798007011413,-0.0423787757754325,-0.3614031374454498
1761131472331228200,0.6507040858268738,0.3894808292388916,-1.341620922088623,-0.2323578745126724,-0.0509308911859989,-0.3369685411453247
1761131472341228000,0.6584583520889282,0.4119539260864258,-1.350358486175537,-0.2592359483242035,-0.0472656972706317,-0.3278055489063263
1761131472351228200,0.6493580937385559,0.4631948471069336,-1.0487585067749023,-0.2891683280467987,-0.0216093584895133,-0.3357468247413635
1761131472361228000,0.4679965078830719,0.4526307582855224,-0.8653955459594727,-0.3123812079429626,0.0345902442932128,-0.3516293168067932
1761131472371229000,0.1677544116973877,0.4466981887817383,-0.7591485977172852,-0.3209333419799804,0.1140027269721031,-0.3650683462619781
1761131472381228800,-0.0985252559185028,0.4225754737854004,-0.6647224426269531,-0.3184898793697357,0.2062433809041977,-0.3589596748352051
1761131472391229000,-0.4048149585723877,0.4554321765899658,-0.4952917098999023,-0.3087160289287567,0.2966514229774475,-0.3296381533145904
1761131472401228800,-0.3667874932289123,0.4840869903564453,-0.5041255950927734,-0.2934443950653076,0.3418554663658142,-0.2740494310855865
1761131472411229000,-0.9684283137321472,0.656113862991333,0.0319147109985351,-0.2482403665781021,0.3076470196247101,-0.1500437706708908
1761131472421228800,-0.93558531999588,0.6760859489440918,0.026503562927246,-0.1987602859735489,0.2392300963401794,-0.0535270683467388
1761131472431229400,-0.8995864391326904,0.873835563659668,0.5594053268432617,-0.1382846236228943,0.1769218444824218,0.0313832014799118
1761131472441229600,-0.7179486751556396,0.836761474609375,0.7761707305908203,-0.079030692577362,0.1372155994176864,0.0912479981780052
1761131472451229400,-0.6321609020233154,0.7839450836181641,0.9614019393920898,-0.0228310879319906,0.1158353239297866,0.1285107731819152
1761131472461229600,-0.6239327788352966,0.7252237796783447,1.2027835845947266,0.0278707277029752,0.1262200325727462,0.1541671156883239
1761131472471228700,-0.7333203554153442,0.6968896389007568,1.495600700378418,0.0700204297900199,0.167148008942604,0.1889864355325698
1761131472481228800,-0.9028867483139038,0.6228365898132324,1.674652099609375,0.117057055234909,0.2551125884056091,0.2476294934749603
1761131472491228700,-0.9568844437599182,0.5978062152862549,1.6065187454223633,0.1811978965997696,0.4359287023544311,0.33131805062294
1761131472501228800,-0.7512509226799011,0.5907902717590332,1.3980627059936523,0.2502256631851196,0.6430120468139648,0.4192826449871063
1761131472511228700,-0.3456264734268188,0.6342086791992188,1.1961383819580078,0.2935971021652221,0.7523568868637085,0.4779256880283355
1761131472521228800,-0.0184744000434875,0.8262779712677002,1.123884201049805,0.2795472145080566,0.6961572766304016,0.4950299263000488
1761131472531228700,0.1039458513259887,1.239555835723877,1.2402524948120115,0.2025781869888305,0.5141194462776184,0.4705953001976013
1761131472541228800,0.0213492512702941,1.5141494274139404,1.529767990112305,0.0694095641374588,0.3033709526062011,0.4082870483398437
1761131472551228700,0.0725557804107666,1.439511775970459,2.0282115936279297,-0.0857502073049545,0.1243874356150627,0.3282637000083923
1761131472561228800,0.1774017214775085,1.0633156299591064,2.593696594238281,-0.2299144119024276,-0.0680351182818412,0.2525164186954498
1761131472571229700,0.3848454356193542,0.4785845279693603,3.061295509338379,-0.3453679382801056,-0.2433534413576126,0.1761582642793655
1761131472581229600,0.449809193611145,-0.1834940910339355,3.3796682357788086,-0.4235586822032928,-0.3258202373981476,0.1144608780741691
1761131472591229700,0.2460972070693969,-0.7037174701690674,3.57266616821289,-0.4553236961364746,-0.2903900742530823,0.0735329017043113
1761131472601229600,-0.0774667263031005,-0.988356113433838,3.4371118545532227,-0.4180608987808227,-0.0912479981780052,0.0710894465446472
1761131472611229700,-0.2630361914634704,-1.156581163406372,3.1873559951782227,-0.2983313202857971,0.2685516476631164,0.1132391467690467
1761131472621229600,-0.2423018813133239,-1.1301751136779783,3.179347038269043,-0.1187369301915168,0.6570619344711304,0.1779908537864685
1761131472631228700,-0.6262825131416321,-0.9723656177520752,2.524847984313965,0.0834594666957855,0.9014080166816713,0.232968732714653
1761131472641228800,-0.8078383803367615,-0.6469326019287109,2.2629194259643555,0.2862667143344879,0.9301186800003052,0.2665663361549377
1761131472651228700,-0.9042844772338868,-0.3740582466125488,1.913125991821289,0.5556582808494568,0.6136904954910278,0.2885574698448181
1761131472661228800,-0.7433813810348511,-0.2625415325164795,1.5149459838867188,0.6924921274185181,0.2887101769447326,0.2812270820140838
1761131472671228000,-0.3678865432739258,-0.3692278861999511,1.097055435180664,0.7786241173744202,-0.0295506063848733,0.2482403665781021
1761131472681227800,-0.0179377794265747,-0.5622014999389648,0.6697397232055664,0.7993935346603394,-0.2629011273384094,0.1914298981428146
1761131472691228000,0.1763648986816406,-0.7944948673248291,0.3298854827880859,0.757854700088501,-0.3618612885475158,0.119347795844078
1761131472701227800,0.2733720541000366,-0.9693615436553956,0.031229019165039,0.6796639561653137,-0.3551417887210846,0.0503200255334377
1761131472711228000,0.2754548192024231,-1.10996675491333,-0.2697029113769531,0.5819255113601685,-0.2671771943569183,-0.006490443367511
1761131472721227800,0.304499089717865,-1.1246771812438965,-0.4731531143188476,0.473191499710083,-0.1278999149799347,-0.042531494051218
1761131472731227100,0.218206524848938,-1.186030387878418,-0.7236499786376953,0.3736204504966736,0.0297033227980136,-0.0706312954425811
1761131472741227300,0.0417189002037048,-1.239959955215454,-0.9083318710327148,0.2917645275592804,0.178754448890686,-0.0956767722964286
1761131472751227100,-0.1157394647598266,-1.235743284225464,-1.0169439315795898,0.2312888503074646,0.2838232517242431,-0.1158353239297866
1761131472761227300,-0.2605315446853637,-1.1940524578094482,-1.193140983581543,0.2068542391061782,0.3436880707740783,-0.130496084690094
1761131472771228200,-0.3753004074096679,-1.2243423461914062,-1.4857606887817385,0.2123520374298095,0.3925572633743286,-0.1378264725208282
1761131472781228000,-0.4135626554489136,-1.254995822906494,-1.728532314300537,0.2386192381381988,0.4267657399177551,-0.1427133977413177
1761131472791228200,-0.4487292766571045,-1.2757432460784912,-1.9591050148010252,0.263053834438324,0.4176027476787567,-0.1469894498586654
1761131472801228000,-0.5566065311431885,-1.2112219333648682,-2.1856179237365723,0.2819906771183014,0.3583488166332245,-0.1433242559432983
1761131472811228200,-0.6579283475875854,-1.1411528587341309,-2.3136610984802246,0.2813797891139984,0.2532800137996673,-0.1317178159952163
1761131472821228000,-0.7522956132888794,-1.042337417602539,-2.3925466537475586,0.2551125884056091,0.1115592643618583,-0.1115592643618583
1761131472831228200,-0.7737876176834106,-1.0682973861694336,-2.4956655502319336,0.2019673287868499,-0.0399353168904781,-0.0791834071278572
1761131472841228000,-0.680699348449707,-1.178499698638916,-2.495055675506592,0.128663495182991,-0.1590540409088134,-0.0358119755983352
1761131472851228200,-0.6669065952301025,-1.2420711517333984,-2.37678861618042,0.035201109945774,-0.2549598813056946,0.0100029185414314
1761131472861228000,-0.7089388370513916,-1.2500977516174316,-2.0839290618896484,-0.0692568495869636,-0.3276528418064117,0.0558178126811981
1761131472881227300,-0.7221300601959229,-1.2480545043945312,-1.4361295700073242,-0.2610685229301452,-0.3441462218761444,0.1767691373825073
1761131472891227100,-0.7597978115081787,-1.226952075958252,-1.4506540298461914,-0.2848922908306122,-0.2745075821876526,0.2201405614614486
1761131472901227300,-0.790695309638977,-1.249596357345581,-0.8977947235107422,-0.2818379402160644,-0.2085341215133667,0.2622902691364288
1761131472911227100,-0.8653045892715454,-1.1004533767700195,-0.6911344528198242,-0.2537381649017334,-0.181045189499855,0.3062725663185119
1761131472921227300,-0.8769785165786743,-0.8583648204803467,-0.6002607345581055,-0.2054798007011413,-0.1614975035190582,0.3563635051250458
1761131472931228200,-0.8457943201065063,-0.6425127983093262,-0.5933446884155273,-0.1352302879095077,-0.1278999149799347,0.4003458023071289
1761131472941228000,-0.7535210847854614,-0.4523601531982422,-0.4826745986938476,-0.0625373274087905,-0.1156826093792915,0.4333325326442718
1761131472951228200,-0.7308638691902161,-0.26888108253479,-0.4120302200317383,0.0058795781806111,-0.1639409661293029,0.4492150247097015
1761131472961228000,-0.7706274390220642,-0.1298193931579589,-0.3246850967407226,0.0749073475599289,-0.2201405614614486,0.4632649421691894
1761131472971229000,-0.7727700471878052,-0.0806164741516113,-0.2469797134399414,0.1427133977413177,-0.2677880525588989,0.4785365760326385
1761131472981228800,-0.6706802845001221,-0.0561676025390625,-0.2435007095336914,0.2086868435144424,-0.2940552532672882,0.496862530708313
1761131472991229000,-0.6089430451393127,-0.0396866798400878,-0.2063093185424804,0.2612212598323822,-0.3026073575019836,0.5103015303611755
1761131473001228800,-0.492644727230072,0.0610079765319824,-0.2315273284912109,0.2978731691837311,-0.3026073575019836,0.5145776271820068
1761131473011229000,-0.3520350456237793,0.129983901977539,-0.2813682556152344,0.3149773776531219,-0.283059686422348,0.506025493144989
1761131473021228800,-0.2043564915657043,0.2024817466735839,-0.2918224334716797,0.2997057735919952,-0.2396882474422454,0.4767039716243744
1761131473031229000,-0.025356113910675,0.2598156929016113,-0.2377395629882812,0.2545017302036285,-0.19998200237751,0.4314999282360077
1761131473041228800,0.1204836070537567,0.2280197143554687,-0.1467733383178711,0.1891391575336456,-0.1724930703639984,0.3698025345802307
1761131473051229000,0.0937672555446624,0.2095050811767578,-0.1396474838256836,0.1146135926246643,-0.1676061451435089,0.2983313202857971
1761131473061228800,0.2064588069915771,-0.2018065452575683,0.0822811126708984,0.0406988970935344,-0.1889864355325698,0.2219731658697128
1761131473071228200,0.1643848717212677,-0.3617043495178222,0.2146978378295898,-0.0289397407323122,-0.2390773892402649,0.1559997051954269
1761131473081228000,0.0532532930374145,-0.430870771408081,0.4395217895507812,-0.1052978932857513,-0.3184898793697357,0.1034653037786483
1761131473091228200,0.023415207862854,-0.4206368923187256,0.4331111907958984,-0.1895972937345504,-0.4143957197666168,0.0698677152395248
1761131473101228000,-0.3005507588386535,-0.3709955215454101,0.9421224594116212,-0.2848922908306122,-0.4822017550468445,0.0637590587139129
1761131473111228200,-0.4527969658374786,-0.3148212432861328,1.2601661682128906,-0.415617436170578,-0.4669301211833954,0.1040761694312095
1761131473121228000,-0.4595502018928528,-0.33583664894104,1.4534854888916016,-0.4712061882019043,-0.3789655268192291,0.1547779887914657
1761131473131228200,-0.2934738099575043,-0.3785169124603271,1.630878448486328,-0.4919756054878235,-0.2910009324550628,0.2146427780389785
1761131473141228000,-0.3261879086494446,-0.3335087299346924,1.609421730041504,-0.4944190680980682,-0.2763401567935943,0.2665663361549377
1761131473161228000,0.3714551925659179,-0.1096646785736084,2.0379743576049805,-0.4321108162403106,-0.3166572749614715,0.3142138123512268
1761131473171229000,0.634721577167511,-0.1000669002532959,1.922335624694824,-0.3746894598007202,-0.2940552532672882,0.3081051707267761
1761131473181228800,0.596238911151886,-0.0667073726654052,1.907404899597168,-0.3178789913654327,-0.2372447848320007,0.2861140072345733
1761131473191229000,0.970821738243103,0.0574820041656494,1.5980520248413086,-0.2781727612018585,-0.1920407563447952,0.2512947022914886
1761131473201228800,1.0156519412994385,0.108797550201416,1.5250301361083984,-0.2567924857139587,-0.2005928754806518,0.2158645093441009
1761131473211229000,0.989300012588501,0.1343557834625244,1.572648048400879,-0.2506838142871856,-0.2549598813056946,0.1883755773305893
1761131473221228800,0.9519094824790956,0.106743574142456,1.6110506057739258,-0.23113614320755,-0.3013856410980224,0.1761582642793655
1761131473231229000,1.0616393089294434,0.0008521080017089,1.4587974548339844,-0.1902081668376922,-0.2818379402160644,0.1755474060773849
1761131473241228800,1.199506402015686,-0.1206507682800293,1.2938480377197266,-0.1266781836748123,-0.1914298981428146,0.1724930703639984
1761131473251229000,1.3456895351409912,-0.1185834407806396,1.0786218643188477,-0.0454331040382385,-0.0771980956196785,0.1584431678056717
1761131473261228800,1.4213613271713257,-0.0735633373260498,0.8806915283203125,0.0309250522404909,0.0217620749026536,0.1248455867171287
1761131473271228000,1.3995156288146973,0.0315234661102294,0.7549257278442383,0.0926224440336227,0.0663552358746528,0.0747546330094337
1761131473281228000,1.335706353187561,0.0567269325256347,0.6146526336669922,0.1414916664361953,0.0633009076118469,0.014278975315392
1761131473291228000,1.3696333169937134,-0.0374946594238281,0.3397560119628906,0.1830305010080337,0.0455858185887336,-0.0461966842412948
1761131473301228000,1.3753952980041504,-0.0540828704833984,0.3465681076049804,0.2166280895471573,0.0327576473355293,-0.1097266674041748
1761131473311228000,1.4000681638717651,-0.3294575214385986,-0.1410856246948242,0.2276236563920974,0.0144316917285323,-0.1769218444824218
1761131473321228000,1.308954834938049,-0.3970553874969482,-0.3004579544067383,0.2099085748195648,-0.0191658977419137,-0.2416735589504242
1761131473331228000,1.2416713237762451,-0.4194128513336181,-0.3553104400634765,0.1726457923650741,-0.0600938685238361,-0.2935971021652221
1761131473341228000,1.1733014583587646,-0.4355590343475342,-0.4356508255004883,0.1072832122445106,-0.1254564523696899,-0.3351359367370605
1761131473351228000,1.1924378871917725,-0.459820032119751,-0.4826507568359375,0.0547487959265708,-0.1541671156883239,-0.3614031374454498
1761131473361228000,1.213346004486084,-0.4838688373565674,-0.5245494842529297,-0.0051159965805709,-0.1657735556364059,-0.3943898677825928
1761131473371229000,1.1062647104263306,-0.5024251937866211,-0.5615787506103516,-0.0600938685238361,-0.1486693322658538,-0.4292092025279999
1761131473381228800,1.0175631046295166,-0.5596287250518799,-0.6460399627685547,-0.0943023189902305,-0.087582804262638,-0.4591415822505951
1761131473391229000,0.9055166840553284,-0.6261544227600098,-0.8346843719482422,-0.1144608780741691,0.0095447693020105,-0.482354462146759
1761131473401228800,0.7518796920776367,-0.6050996780395508,-1.0432190895080566,-0.1321759670972824,0.1201113760471344,-0.5092325210571289
1761131473411229000,0.4624051749706268,-0.5302236080169678,-1.2571454048156738,-0.1462258696556091,0.230677992105484,-0.5232824683189392
1761131473421228800,0.1661111861467361,-0.4568593502044678,-1.397233486175537,-0.1572214365005493,0.3107013404369354,-0.5238932967185974
1761131473431229000,-0.0972344875335693,-0.3731284141540527,-1.4944090843200684,-0.1633300930261612,0.3418554663658142,-0.5067890882492065
1761131473441228800,-0.2540382444858551,-0.3846080303192138,-1.5867609977722168,-0.1657735556364059,0.3278055489063263,-0.4701371788978576
1761131473451229000,-0.3192252516746521,-0.3645462989807129,-1.6574583053588867,-0.1621083617210388,0.278325468301773,-0.420657068490982
1761131473461229000,-0.3357445001602173,-0.3039596080780029,-1.648881912231445,-0.1602757722139358,0.1958586722612381,-0.3669009506702423
1761131473471228200,-0.2540411949157715,-0.2578186988830566,-1.6090960502624512,-0.1645518243312835,0.0950659066438674,-0.3192534446716308
1761131473481228000,-0.1186572760343551,-0.1968922615051269,-1.5432171821594238,-0.1773799955844879,0.0058795781806111,-0.2709950804710388
1761131473491228200,0.0882139950990676,-0.1419959068298339,-1.4994783401489258,-0.1957059502601623,-0.0631481930613517,-0.2288453876972198
1761131473501228000,0.0908756256103515,-0.1237924098968505,-1.5067825317382812,-0.2176970988512039,-0.0839176103472709,-0.1970804035663604
1761131473511228200,0.4112504124641418,-0.0916609764099121,-1.3760261535644531,-0.2439643144607544,-0.0692568495869636,-0.1836413592100143
1761131473521228000,0.5121833682060242,0.0003128051757812,-1.2269949913024902,-0.2781727612018585,-0.0466548316180706,-0.1940260678529739
1761131473531228200,0.5005702972412109,0.0715219974517822,-1.1054401397705078,-0.3129920661449432,-0.016111571341753,-0.2111303061246872
1761131473541228000,0.5018682479858398,0.0813183784484863,-0.9323225021362304,-0.3392592966556549,0.0358119755983352,-0.2233476042747497
1761131473551228200,0.489123523235321,0.1151492595672607,-0.7360057830810547,-0.3478114008903503,0.0791834071278572,-0.2318997234106063
1761131473561228000,0.4853736758232116,0.0852081775665283,-0.616398811340332,-0.3386484086513519,0.0956767722964286,-0.2398409694433212
1761131473571229000,0.4881380200386047,0.0976381301879882,-0.5035018920898438,-0.2958878576755523,0.0816268697381019,-0.2545017302036285
1761131473581229000,0.4706104099750519,0.1370546817779541,-0.3530139923095703,-0.264122873544693,0.0523053370416164,-0.2612212598323822
1761131473591229000,0.4835531115531921,0.1612074375152588,-0.3616800308227539,-0.2341904640197754,0.0400880314409732,-0.2606103718280792
1761131473601229000,0.3199964165687561,0.2013430595397949,-0.0985927581787109,-0.2042580693960189,0.055359661579132,-0.2538908720016479
1761131473611229000,0.1475081294775009,0.1928660869598388,0.005319595336914,-0.1773799955844879,0.07551821321249,-0.2465604841709137
1761131473621229000,-0.0452752411365509,0.2127225399017334,0.0504894256591796,-0.1505019217729568,0.1182787865400314,-0.2270127981901168
1761131473631229000,-0.2109389305114746,0.1963179111480713,0.0297775268554687,-0.1217912584543228,0.20746511220932,-0.1897500157356262
1761131473641229000,-0.3479077219963074,0.2345249652862548,0.0630769729614257,-0.0924697294831276,0.3045926690101623,-0.1421025246381759
1761131473651229000,-0.4748053252696991,0.2841885089874267,0.0283746719360351,-0.0552069470286369,0.3846160173416137,-0.0822377353906631
1761131473661229000,-0.5120640397071838,0.3444738388061523,0.0097579956054687,-0.012446379289031,0.4316526651382446,-0.0187077485024929
1761131473671228200,-0.5801509618759155,0.4172337055206299,0.0240964889526367,0.0290924571454525,0.421267956495285,0.0448222383856773
1761131473681228000,-0.6699090003967285,0.5336554050445557,0.0926771163940429,0.0626900494098663,0.3455206453800201,0.09918924421072
1761131473691228200,-0.6719476580619812,0.6535351276397705,0.2173843383789062,0.087124653160572,0.2172389477491378,0.142560675740242
1761131473701228000,-0.4902393817901611,0.6392109394073486,0.3471746444702148,0.1011745557188987,0.0810160040855407,0.1749365329742431
1761131473711228200,-0.1950027346611023,0.4752333164215088,0.4551248550415039,0.1072832122445106,-0.0368809886276721,0.2042580693960189
1761131473721228000,0.0331957936286926,0.3421618938446045,0.6702260971069336,0.098731093108654,-0.1205695271492004,0.2280818074941635
1761131473731228200,0.1112214624881744,0.3182172775268554,0.9274444580078124,0.0828486010432243,-0.1700496077537536,0.2445751726627349
1761131473741228000,0.0351917147636413,0.4066638946533203,1.0590782165527344,0.0736856237053871,-0.1566105782985687,0.2525164186954498
1761131473751228200,-0.0520960688591003,0.4820175170898437,0.9988069534301758,0.0779616758227348,-0.0289397407323122,0.2537381649017334
1761131473761228000,-0.1086940467357635,0.511716365814209,0.8913364410400391,0.0889572501182556,0.1909717470407486,0.2439643144607544
1761131473771229000,-0.2646010220050812,0.633925199508667,0.9456195831298828,0.0767399445176124,0.3571271002292633,0.2207514345645904
1761131473781229000,-0.5218669772148132,0.7669408321380615,0.990713119506836,0.0345902442932128,0.382172554731369,0.2012037336826324
1761131473791229000,-0.6684499979019165,0.7841463088989258,1.075282096862793,-0.0167224369943141,0.3345250785350799,0.19998200237751
1761131473801229000,-0.6733324527740479,0.6983213424682617,1.148331642150879,-0.0747546330094337,0.2661081850528717,0.2183079719543457
1761131473811229000,-0.6588343977928162,0.5603225231170654,1.1663618087768557,-0.1718822121620178,0.2111303061246872,0.2464077621698379
1761131473821229000,-0.5713486075401306,0.4023091793060303,1.2981023788452148,-0.2470186352729797,0.2080759704113006,0.2531272768974304
1761131473831229000,-0.5345896482467651,0.2272059917449951,1.5996904373168943,-0.3392592966556549,0.1091158017516136,0.2506838142871856
1761131473841229000,-0.6001213788986206,0.048612356185913,2.086796760559082,-0.4431063830852508,-0.0973566472530365,0.2592359483242035
1761131473851229000,-0.7279125452041626,-0.1275889873504638,2.5813207626342773,-0.5200753808021545,-0.2934443950653076,0.2989421784877777
1761131473861229000,-0.6523401737213135,-0.4547758102416992,2.806691169738769,-0.5316818356513977,-0.334983229637146,0.3643047511577606
1761131473871228200,-0.5419435501098633,-0.8935427665710449,2.687075614929199,-0.4528802335262298,-0.1755474060773849,0.4376085996627807
1761131473881228000,-0.3472580313682556,-1.227183818817139,2.154501914978028,-0.2867248654365539,0.1824196279048919,0.5078580975532532
1761131473891228200,-0.2795503437519073,-1.3082445859909058,1.595489501953125,-0.0698677152395248,0.6283512711524963,0.5579490661621094
1761131473901228000,-0.4545692503452301,-1.1056840419769287,1.07427978515625,0.1543198376893997,0.9612728357315063,0.5719989538192749
1761131473911228200,-0.8099730610847473,-0.6584897041320801,0.5599050521850586,0.3442989289760589,1.093219757080078,0.5646685361862183
1761131473921228000,-1.150805950164795,-0.2172799110412597,0.1178598403930664,0.4884631335735321,1.0296896696090698,0.5683337450027466
1761131473931228200,-1.33529531955719,0.1168584823608398,-0.2518758773803711,0.5813146233558655,0.8103891015052795,0.5811619162559509
1761131473941228000,-1.2558753490447998,0.1622278690338134,-0.5953702926635742,0.6100252866744995,0.4738023579120636,0.5946009755134583
1761131473951228200,-1.0563514232635498,-0.0022573471069335,-0.8684253692626953,0.5776494741439819,0.0920115783810615,0.6019313335418701
1761131473961228000,-1.0655138492584229,-0.0573470592498779,-0.8486118316650391,0.4847979247570038,-0.2677880525588989,0.6043748259544373
1761131473971229000,-0.3421587347984314,-0.5791747570037842,-0.9544668197631836,0.3357468247413635,-0.5744423866271973,0.5988770127296448
1761131473981229000,-0.1429283022880554,-0.8154335021972656,-0.6295757293701172,0.1482111811637878,-0.8016842603683472,0.5823836326599121
1761131473991229200,-0.064677357673645,-0.9646012783050536,-0.2261314392089843,-0.0466548316180706,-0.9354637861251832,0.5603924989700317
1761131474001229000,0.0613823533058166,-1.0881588459014893,0.2182254791259765,-0.2085341215133667,-0.942183256149292,0.5414556860923767
1761131474011229000,0.2399192452430725,-1.2604649066925049,0.6120462417602539,-0.3136029541492462,-0.8401687741279602,0.5292384028434753
1761131474021229000,0.4351671934127807,-1.3617501258850098,0.7780208587646484,-0.3520874679088592,-0.6434701681137085,0.5133558511734009
1761131474031229000,0.6412888765335083,-1.4936494827270508,0.7016620635986328,-0.3160464167594909,-0.3472005426883697,0.4834234714508056
1761131474041229000,0.714081346988678,-1.5267730951309204,0.5338602066040039,-0.1700496077537536,0.1341612786054611,0.3893502354621887
1761131474051229000,0.6124436259269714,-1.4140615463256836,0.2735939025878906,-0.0368809886276721,0.3723987340927124,0.301996499300003
1761131474061229000,0.2732232809066772,-1.1838996410369873,-0.1086435317993164,0.1140027269721031,0.501902163028717,0.2103667259216308
1761131474071228200,-0.1164858639240264,-1.0015606880187988,-0.5282831192016602,0.2636647224426269,0.5385540723800659,0.1382846236228943
1761131474081228300,-0.3784289062023163,-0.9251594543457032,-0.9971427917480468,0.3882812261581421,0.5000695586204529,0.0918588638305664
1761131474091228200,-0.3356601297855377,-0.9552955627441406,-0.9844799041748048,0.4683045744895935,0.4078288972377777,0.072311170399189
1761131474101228300,-0.78171306848526,-0.8560459613800049,-2.004938125610352,0.4964043796062469,0.2960405647754669,0.0698677152395248
1761131474111228200,-0.871679425239563,-0.8191499710083008,-2.3772106170654297,0.4750240743160248,0.190360888838768,0.0839176103472709
1761131474121228300,-0.950617253780365,-0.7551941871643066,-2.6254353523254395,0.4041637182235718,0.0993419587612152,0.1114065498113632
1761131474131228200,-0.9814273715019226,-0.6249539852142334,-2.699191093444824,0.2862667143344879,0.0107664996758103,0.1480584591627121
1761131474141228300,-0.9833922386169434,-0.4840743541717529,-2.6361751556396484,0.1427133977413177,-0.0710894465446472,0.1938733607530594
1761131474151228200,-0.8651869893074036,-0.3422560691833496,-2.4732837677001958,-0.004505131393671,-0.1352302879095077,0.2390773892402649
1761131474161228300,-0.6371722221374512,-0.2326524257659912,-2.193861961364746,-0.1388954818248748,-0.1627192348241806,0.2690097689628601
1761131474171229000,-0.3959764838218689,-0.1874911785125732,-1.864307403564453,-0.254349023103714,-0.1688278764486313,0.2793944776058197
1761131474181229000,-0.2442575395107269,-0.091055154800415,-1.483804702758789,-0.3435353338718414,-0.1700496077537536,0.2659554481506347
1761131474191229000,-0.1663302779197693,0.0423767566680908,-1.0561017990112305,-0.3972914814949035,-0.1761582642793655,0.2366339266300201
1761131474201229000,-0.1884184777736663,0.1282503604888916,-0.6565036773681641,-0.4186717569828033,-0.2018146067857742,0.19998200237751
1761131474211229000,-0.2498371601104736,0.1684150695800781,-0.2671108245849609,-0.406454473733902,-0.2280818074941635,0.1608866304159164
1761131474221229000,-0.3505549132823944,0.1789650917053222,0.1204481124877929,-0.3691916763782501,-0.2421317100524902,0.129121646285057
1761131474231229200,-0.4801653623580932,0.1670856475830078,0.3897552490234375,-0.3093268871307373,-0.2134210467338562,0.1089630872011184
1761131474241229000,-0.4977051019668579,0.187608003616333,0.5083131790161133,-0.2256383448839187,-0.122402124106884,0.1028544381260871
1761131474251229200,-0.5077735185623169,0.1472983360290527,0.5822973251342773,-0.1248455867171287,0.0284815914928913,0.102243572473526
1761131474261229000,-0.5771394968032837,0.2650637626647949,0.6002283096313477,-0.028328875079751,0.1610393524169922,0.0918588638305664
1761131474271228400,-0.7624089121818542,0.4145066738128662,0.6025714874267578,0.0602465830743312,0.292375385761261,0.0826958790421485
1761131474281228300,-0.8793504238128662,0.5747754573822021,0.5364618301391602,0.1811978965997696,0.330859899520874,0.0918588638305664
1761131474291228200,-0.7916910648345947,0.6399719715118408,0.357370376586914,0.2483930736780166,0.3247512280941009,0.1016327068209648
1761131474301228300,-0.5115644931793213,0.6008396148681641,0.1543426513671875,0.2929862439632416,0.2514474093914032,0.0912479981780052
1761131474311228200,-0.1473883092403412,0.5145142078399658,0.0102567672729492,0.2856558561325073,0.0840703323483467,0.0484874285757541
1761131474321228300,0.0969294011592865,0.4528875350952148,0.0786266326904296,0.2044107764959335,-0.2048689275979995,-0.0217620749026536
1761131474331228200,0.0149015486240386,0.4540042877197265,0.4713363647460937,0.0364228412508964,-0.5665011405944824,-0.1042288839817047
1761131474341228300,-0.279711902141571,0.3463900089263916,1.0822429656982422,-0.1731039434671402,-0.8719337582588196,-0.1518763750791549
1761131474351228200,-0.4285237491130829,0.0286805629730224,1.6637468338012695,-0.354530930519104,-1.0051023960113523,-0.1396590620279312
1761131474361228300,-0.4229488372802734,-0.3987405300140381,2.129096984863281,-0.4760931134223938,-0.9324094653129578,-0.0852920562028884
1761131474371229200,-0.2843494415283203,-0.714026689529419,2.44265365600586,-0.5188536643981934,-0.6886742115020752,-0.0022143865935504
1761131474381229000,-0.0316457971930503,-0.8697597980499268,2.6024036407470703,-0.4907538592815399,-0.3410918712615967,0.0851393416523933
1761131474391229200,-0.0659246444702148,-0.8244521617889404,2.5862808227539062,-0.4137848317623138,0.0150425564497709,0.1529453843832016
1761131474401229000,0.3063060045242309,-0.3910512924194336,2.5750551223754883,-0.2940552532672882,0.2990948855876922,0.1792125850915908
1761131474411229200,0.3233653306961059,-0.0333294868469238,2.3090896606445312,-0.1199586614966392,0.4793001413345337,0.1822669208049774
1761131474421229000,0.3426762521266937,0.2148866653442382,1.967416763305664,0.0681878328323364,0.5464953184127808,0.1584431678056717
1761131474431229200,0.4551904201507568,0.3043406009674072,1.5554208755493164,0.2361757755279541,0.4982369542121887,0.1071304902434349
1761131474441229000,0.5600590109825134,0.1890604496002197,1.1491117477416992,0.3577379584312439,0.3381902575492859,0.0338266640901565
1761131474451229200,0.5495051741600037,0.0937049388885498,0.7804231643676758,0.4169918894767761,0.0761290788650512,-0.0431423597037792
1761131474461229000,0.5004832148551941,-0.0093750953674316,0.5069980621337891,0.4078288972377777,-0.2305252701044082,-0.1023962870240211
1761131474471228200,0.5377371311187744,-0.1258943080902099,0.4222803115844726,0.3357468247413635,-0.4681518375873565,-0.1231657043099403
1761131474481228300,0.5850141644477844,-0.3003644943237304,0.4189662933349609,0.2172389477491378,-0.5781075954437256,-0.1140027269721031
1761131474491228200,0.6147353053092957,-0.4424099922180176,0.4860973358154297,0.0865137875080108,-0.5524512529373169,-0.0889572501182556
1761131474501228300,0.7104222178459167,-0.6223540306091309,0.5800333023071289,-0.0484874285757541,-0.2952769994735718,-0.0358119755983352
1761131474511228200,0.8252593874931335,-0.7247908115386963,0.6811914443969727,-0.0765872299671173,-0.0802524238824844,-0.0168751515448093
1761131474521228300,0.8176042437553406,-0.7164809703826904,0.6781721115112305,-0.0521526187658309,0.1030071526765823,-0.019318614155054
1761131474531228200,0.8504470586776733,-0.5425477027893066,0.7260208129882812,0.0223729386925697,0.2239584773778915,-0.039477165788412
1761131474541228300,0.8803835511207581,-0.4087820053100586,0.6541643142700195,0.1347721517086029,0.259388655424118,-0.0681878328323364
1761131474551228200,0.9117664694786072,-0.3641724586486816,0.557373046875,0.249614804983139,0.2147954851388931,-0.1103375330567359
1761131474561228300,0.9520391821861268,-0.3993332386016845,0.4166421890258789,0.3449097871780395,0.0797942727804184,-0.1683697402477264
1761131474571229000,0.9598150253295898,-0.5194587707519531,0.3222513198852539,0.4059963226318359,-0.0924697294831276,-0.2325105816125869
1761131474581229000,0.9558343291282654,-0.5536313056945801,0.3352394104003906,0.4316526651382446,-0.2451860308647155,-0.2880993187427521
1761131474591229000,1.092447280883789,-0.8863096237182617,0.1119985580444336,0.4182136058807373,-0.3160464167594909,-0.3284164369106293
1761131474601229000,1.0700346231460571,-0.9199163913726808,0.1251430511474609,0.369344413280487,-0.3191007375717163,-0.3565162420272827
1761131474611229000,1.152824878692627,-1.2399818897247314,0.016550064086914,0.2960405647754669,-0.2855031490325928,-0.382783442735672
1761131474621229000,1.133776068687439,-1.2604670524597168,0.024815559387207,0.2068542391061782,-0.2396882474422454,-0.4121049642562866
1761131474631229000,0.9328477382659912,-1.2650189399719238,0.1110286712646484,0.1140027269721031,-0.1981494128704071,-0.4377613067626953
1761131474641229000,0.7699270248413086,-1.2509818077087402,0.1457433700561523,0.0382554344832897,-0.1370628923177719,-0.4432590901851654
1761131474651229000,0.7012795209884644,-1.2703092098236084,0.1104335784912109,-0.0087811881676316,-0.0436005070805549,-0.4353178441524505
1761131474661229000,0.677256166934967,-1.345423460006714,-0.0247573852539062,-0.0234419535845518,0.0614683143794536,-0.4285983145236969
1761131474671228400,0.591261625289917,-1.3788983821868896,-0.2322416305541992,-0.0173333007842302,0.1549306958913803,-0.430430918931961
1761131474681228300,0.3277919888496399,-1.310580492019653,-0.4752206802368164,-0.0038942659739404,0.2270127981901168,-0.4334852397441864
1761131474691228400,0.0407916605472564,-1.2155239582061768,-0.6072454452514648,0.0162642877548933,0.2532800137996673,-0.4200462102890014
1761131474701228300,-0.1954172849655151,-1.111088752746582,-0.7453222274780273,0.0406988970935344,0.2184606790542602,-0.3797291219234466
1761131474711228400,-0.2724127173423767,-1.0359768867492676,-0.8342189788818359,0.066966101527214,0.147600308060646,-0.3155882656574249
1761131474721228300,-0.2159332931041717,-0.9451096057891846,-0.950453758239746,0.0901789814233779,0.058413989841938,-0.2349540442228317
1761131474731228400,-0.0667437762022018,-0.9244875907897948,-1.0869865417480469,0.1127809956669807,-0.0167224369943141,-0.1579850167036056
1761131474741228300,0.1595410108566284,-0.8543033599853516,-1.2031850814819336,0.1317178159952163,-0.0851393416523933,-0.0712421610951423
1761131474751228400,0.3505041599273681,-0.748455286026001,-1.3040218353271484,0.1207222416996955,-0.119347795844078,-0.0406988970935344
1761131474761228300,0.4177060723304748,-0.5942320823669434,-1.366751194000244,0.0901789814233779,-0.1376737505197525,-0.0235946699976921
1761131474771229200,0.4826292693614959,-0.44921875,-1.3731083869934082,0.0431423597037792,-0.1370628923177719,-0.0144316917285323
1761131474781229000,0.5185619592666626,-0.3549838066101074,-1.282996654510498,-0.012446379289031,-0.1462258696556091,-0.0089339045807719
1761131474791229200,0.5558542609214783,-0.2915966510772705,-1.1829257011413574,-0.0717003047466278,-0.1755474060773849,-0.0095447693020105
1761131474801229000,0.5881003141403198,-0.2635211944580078,-1.0442876815795898,-0.1340085566043853,-0.1987602859735489,-0.0119882300496101
1761131474811229200,0.6494321823120117,-0.2704753875732422,-0.8647727966308594,-0.192651629447937,-0.2054798007011413,-0.0132099613547325
1761131474821229000,0.7077862024307251,-0.2624819278717041,-0.7256364822387695,-0.2482403665781021,-0.2060906589031219,-0.0168751515448093
1761131474831229200,0.7614023089408875,-0.254213809967041,-0.5596828460693359,-0.3001639246940613,-0.1914298981428146,-0.0260381307452917
1761131474841229300,0.7424564361572266,-0.2340023517608642,-0.2685995101928711,-0.3490331172943115,-0.182877779006958,-0.0370337069034576
1761131474851229200,0.6786033511161804,-0.1661443710327148,0.0783090591430664,-0.3881285190582275,-0.2085341215133667,-0.0455858185887336
1761131474861229300,0.6429575085639954,-0.1329734325408935,0.3857202529907226,-0.4003458023071289,-0.2091449946165084,-0.0431423597037792
1761131474871228400,0.697169303894043,-0.1799614429473877,0.5444355010986328,-0.3746894598007202,-0.1468367278575897,-0.0345902442932128
1761131474881228300,0.6816185712814331,-0.1453099250793457,0.5317106246948242,-0.3166572749614715,-0.0552069470286369,-0.0315359197556972
1761131474891228400,0.7117031812667847,-0.1994657516479492,0.5735530853271484,-0.2390773892402649,0.035201109945774,-0.0419206283986568
1761131474901228300,0.5532867908477783,-0.0760908126831054,0.5029449462890625,-0.1547779887914657,0.105450615286827,-0.0571922585368156
1761131474911228400,0.3869312405586242,0.1019010543823242,0.3919734954833984,-0.0710894465446472,0.1317178159952163,-0.0626900494098663
1761131474921228300,0.2904140949249267,0.2385017871856689,0.1976490020751953,0.0058795781806111,0.1201113760471344,-0.0523053370416164
1761131474931228400,0.3726075887680053,0.2814323902130127,0.0204238891601562,0.0657443702220916,0.0889572501182556,-0.0284815914928913
1761131474941228300,0.4872484803199768,0.3233168125152588,-0.2001209259033203,0.1017854213714599,0.0388663001358509,-0.0058795781806111
1761131474951228400,0.6203840374946594,0.3686389923095703,-0.3090925216674804,0.1146135926246643,-0.0032834007870405,0.01061378326267
1761131474961228300,0.7894535064697266,0.4146976470947265,-0.3527355194091797,0.1091158017516136,-0.0332157984375953,0.0179441664367914
1761131474971229000,0.9311254024505616,0.436812162399292,-0.3436346054077148,0.0706312954425811,-0.0594830028712749,-0.0003817907709162
1761131474981229000,0.9197746515274048,0.4284806251525879,-0.3403921127319336,0.0449749529361724,-0.0600938685238361,-0.019318614155054
1761131474991229200,1.1861257553100586,0.369471788406372,-0.2205486297607422,0.0333685129880905,-0.0533743500709533,-0.0455858185887336
1761131475001229000,1.175517439842224,0.3639380931854248,-0.2183103561401367,0.0333685129880905,-0.0472656972706317,-0.0846811980009079
1761131475011229200,1.3383245468139648,0.1691410541534423,-0.1705446243286132,0.0437532216310501,-0.0417679101228714,-0.1390482038259506
1761131475021229000,1.354288935661316,0.1266541481018066,-0.1751289367675781,0.0614683143794536,-0.0258854143321514,-0.197691261768341
1761131475031229200,1.3491076231002808,0.1185293197631836,-0.1719999313354492,0.0810160040855407,0.0016035212902352,-0.2575560510158539
1761131475041229000,1.173346757888794,0.0105962753295898,-0.3048057556152344,0.0950659066438674,0.0309250522404909,-0.3155882656574249
1761131475051229200,1.0429450273513794,-0.0673308372497558,-0.444462776184082,0.1005636900663375,0.066966101527214,-0.3687335252761841
1761131475061229000,0.8726409077644348,-0.1647067070007324,-0.5841045379638672,0.1023962870240211,0.1115592643618583,-0.4151592850685119
1761131475071228200,0.6777514219284058,-0.2547647953033447,-0.6760091781616211,0.1017854213714599,0.1445459872484207,-0.4481460154056549
1761131475081228300,0.4833806753158569,-0.265444278717041,-0.7920417785644531,0.1005636900663375,0.157374158501625,-0.4640285074710846
1761131475091228200,0.2250561118125915,-0.2637593746185303,-0.9297513961791992,0.1005636900663375,0.168980598449707,-0.4658611118793487
1761131475101228300,0.0627425760030746,-0.2043735980987548,-0.9908885955810548,0.1005636900663375,0.1524872332811355,-0.4493677318096161
1761131475111228200,-0.0883655399084091,-0.0778038501739502,-1.0017061233520508,0.0944550409913063,0.0999528244137764,-0.4224896728992462
1761131475121228300,-0.2417714148759842,0.0278763771057128,-0.9599952697753906,0.0816268697381019,0.0345902442932128,-0.3833943009376526
1761131475131228200,-0.2939714789390564,0.1060068607330322,-0.7893695831298828,0.0767399445176124,-0.0216093584895133,-0.3345250785350799
1761131475141228300,-0.347754955291748,0.1534414291381836,-0.5997085571289062,0.0797942727804184,-0.0967457816004753,-0.278325468301773
1761131475151228200,-0.4172309339046478,0.1909308433532714,-0.3619861602783203,0.0993419587612152,-0.1627192348241806,-0.2221258729696273
1761131475161228300,-0.4176128506660461,0.2050976753234863,-0.1331233978271484,0.1329395473003387,-0.2189188301563263,-0.1714240610599517
1761131475171229000,-0.4772031605243683,0.2234556674957275,-0.00360107421875,0.1757001131772995,-0.2616794109344482,-0.1274417638778686
1761131475181229000,-0.5251368284225464,0.2881755828857422,0.0676755905151367,0.2257910668849945,-0.2402991205453872,-0.0865137875080108
1761131475191229000,-0.6223320960998535,0.3913178443908691,0.1049480438232421,0.2832123935222626,-0.1144608780741691,-0.0486401468515396
1761131475201229000,-0.6798495650291443,0.512901782989502,0.034250259399414,0.3717878460884094,0.2001347243785858,-0.0052687125280499
1761131475211229000,-0.68785160779953,0.5926234722137451,-0.0164966583251953,0.4096615016460418,0.3705661296844482,0.0209984928369522
1761131475221229000,-0.6521469354629517,0.5537481307983398,-0.0009689331054687,0.4188244938850403,0.4469242990016937,0.0509308911859989
1761131475231229200,-0.3112224638462066,0.8752193450927734,-0.0708112716674804,0.3974441885948181,0.4328743815422058,0.0826958790421485
1761131475241229000,-0.2724224030971527,0.8366014957427979,-0.0546760559082031,0.3326924741268158,0.2880993187427521,0.0998001098632812
1761131475251229000,0.1276283115148544,1.191563844680786,0.3352956771850586,0.1946369409561157,-0.0020616701804101,0.079030692577362
1761131475261229000,0.0179231949150562,1.3551297187805176,0.8923473358154297,0.0095447693020105,-0.4321108162403106,0.0289397407323122
1761131475271228200,-0.0834455490112304,1.267683029174805,1.42041015625,-0.1773799955844879,-0.878042459487915,-0.0205403435975313
1761131475281228000,0.1501570343971252,0.7572636604309082,1.80472469329834,-0.3331506252288818,-1.1730903387069702,-0.0364228412508964
1761131475291228200,0.6205929517745972,0.1425845623016357,2.1287078857421875,-0.4431063830852508,-1.2457833290100098,-0.0327576473355293
1761131475301228000,0.9543938636779784,-0.368049144744873,2.3683815002441406,-0.506636381149292,-1.1504883766174316,-0.0523053370416164
1761131475311228200,1.1154191493988037,-0.7508535385131836,2.384248733520508,-0.515188455581665,-0.8566621541976929,-0.0816268697381019
1761131475321228000,1.0765529870986938,-1.0156497955322266,2.361556053161621,-0.4528802335262298,-0.4095087945461273,-0.1195005103945732
1761131475331228200,0.7587436437606812,-1.0995166301727295,2.2535829544067383,-0.3245985209941864,0.0559705272316932,-0.1647045463323593
1761131475341228000,0.2981182634830475,-1.0252368450164795,2.0093870162963867,-0.1376737505197525,0.4255439937114715,-0.2080759704113006
1761131475351228200,-0.1943153887987136,-0.934589147567749,1.5045862197875977,0.0859029218554496,0.6613379716873169,-0.2349540442228317
1761131475361228000,-0.5158506631851196,-0.9385380744934082,0.8467283248901367,0.3333033621311188,0.8140543103218079,-0.2251801937818527
1761131475371229000,-0.4335283041000366,-0.9696123600006104,0.8562345504760742,0.5739842653274536,0.8977428078651428,-0.1915826052427292
1761131475381228800,-0.8045333623886108,-0.849907636642456,-0.5637483596801758,0.7804567217826843,0.899575412273407,-0.1579850167036056
1761131475391229000,-0.8321706056594849,-0.7081222534179688,-1.1139187812805176,0.928286075592041,0.8323802351951599,-0.1329395473003387
1761131475401229000,-0.7520503997802734,-0.7871949672698975,-1.0813422203063965,1.0168615579605105,0.7163158655166626,-0.1152244582772255
1761131475411229000,-0.8861974477767944,-0.2896444797515869,-1.734605312347412,1.0431287288665771,0.5611560940742493,-0.1060614809393882
1761131475421229000,-0.8306905031204224,-0.3775331974029541,-1.6954293251037598,1.0046442747116089,0.3540727794170379,-0.105450615286827
1761131475431229000,-0.7744811773300171,0.0029568672180175,-1.902493476867676,0.8623126745223999,0.0376445725560188,-0.1066723465919494
1761131475441229000,-0.5406860113143921,0.0356421470642089,-1.8796172142028809,0.7248679995536804,-0.1089630872011184,-0.1158353239297866
1761131475451229000,-0.2312943041324615,0.0702247619628906,-1.797025203704834,0.5605452060699463,-0.1914298981428146,-0.1469894498586654
1761131475461229000,0.1244248375296592,0.0664229393005371,-1.649071216583252,0.3705661296844482,-0.2280818074941635,-0.209297701716423
1761131475471228200,0.4053565263748169,0.0747275352478027,-1.3629822731018066,0.1445459872484207,-0.2867248654365539,-0.301538348197937
1761131475481228300,0.3930541574954986,0.0623698234558105,-1.357125759124756,-0.1419498175382614,-0.4742605090141296,-0.4188244938850403
1761131475491228200,0.2064743936061859,0.4488382339477539,0.3026046752929687,-0.4669301211833954,-0.8126798272132874,-0.5373323559761047
1761131475501228300,-0.0192740261554718,0.3177847862243652,1.3068876266479492,-0.7796931266784668,-1.1547644138336182,-0.6118578910827637
1761131475511228200,0.1994964480400085,-0.1597161293029785,2.315654754638672,-1.0332021713256836,-1.4064408540725708,-0.634459912776947
1761131475521228300,0.631065309047699,-0.844496488571167,2.93489933013916,-1.189583659172058,-1.4925729036331177,-0.6326273083686829
1761131475531228200,1.2207837104797363,-1.5935733318328855,3.193258285522461,-1.2189052104949951,-1.276937484741211,-0.6228534579277039
1761131475541228000,1.7892637252807615,-2.1382758617401123,3.251217842102051,-1.1352167129516602,-0.7986299395561218,-0.6491206884384155
1761131475551228200,2.1490211486816406,-2.3921103477478027,3.0786523818969727,-0.9684504866600036,-0.2323578745126724,-0.7334200739860535
1761131475561228000,1.9902034997940063,-2.182551860809326,2.765567779541016,-0.7460955381393433,0.2899319231510162,-0.8623126745223999
1761131475571229000,1.4208592176437378,-1.8183146715164185,2.3613853454589844,-0.477314829826355,0.6857725977897644,-1.0028116703033447
1761131475581229000,0.8324235081672668,-1.5163884162902832,1.8516035079956052,-0.1773799955844879,0.9026297330856324,-1.1145999431610107
1761131475591229000,0.377739816904068,-1.329425573348999,1.2238636016845703,0.1323286890983581,0.9398925304412842,-1.1701887845993042
1761131475601229000,0.1247622519731521,-1.2435460090637207,0.3976421356201172,0.4292092025279999,0.8586474657058716,-1.1744648218154907
1761131475611229000,0.0299336612224578,-1.2120120525360107,-0.5532236099243164,0.6796639561653137,0.7370852828025818,-1.1494193077087402
1761131475621229000,-0.0037797391414642,-1.1471245288848877,-1.1932296752929688,0.861090898513794,0.5709299445152283,-1.1133782863616943
1761131475631229000,-0.0821289122104644,-1.005392074584961,-1.6598248481750488,0.9545533061027528,0.3430771827697754,-1.0755046606063845
1761131475641229000,-0.1195175647735595,-0.850703239440918,-2.0119194984436035,0.9637162685394288,0.0797942727804184,-1.034576654434204
1761131475651229000,-0.140851080417633,-0.7017381191253662,-2.1662492752075195,0.9014080166816713,-0.1743256747722625,-0.9783770442008972
1761131475661229000,0.0239250659942626,-0.5833618640899658,-2.209612369537353,0.7114289402961731,-0.515188455581665,-0.8623126745223999
1761131475671228200,0.5197768211364746,-0.4293215274810791,-2.322673320770264,0.5434409976005554,-0.697226345539093,-0.7926740050315857
1761131475681228000,1.0499807596206665,-0.2490406036376953,-2.349373817443848,0.349796712398529,-0.800462543964386,-0.7627416253089905
1761131475691228200,1.5486303567886353,-0.087745189666748,-2.17810583114624,0.1390482038259506,-0.8468883037567139,-0.7926740050315857
1761131475701228000,2.0182361602783203,-0.0419549942016601,-1.8261384963989256,-0.0778089612722396,-0.9165269136428832,-0.8800277709960938
1761131475711228200,2.3990046977996826,-0.1756463050842285,-1.4015488624572754,-0.3001639246940613,-1.0448086261749268,-1.0107529163360596
1761131475721228000,2.534015655517578,-0.380540132522583,-0.9333000183105468,-0.5304601192474365,-1.1871402263641355,-1.16530179977417
1761131475731228200,2.458461284637451,-0.5961084365844727,-0.2681293487548828,-0.7467064261436462,-1.2720504999160769,-1.3198506832122805
1761131475741228000,2.282281875610352,-0.7925891876220703,0.3868989944458008,-0.9287442564964294,-1.2793809175491333,-1.462793231010437
1761131475751228200,2.047044277191162,-1.0616402626037598,0.995427131652832,-1.0625237226486206,-1.211574912071228,-1.575803279876709
1761131475761228000,1.8699127435684204,-1.3186497688293457,1.533246994018555,-1.1456013917922974,-1.0716867446899414,-1.6619352102279663
1761131475771229000,1.6409528255462646,-1.5051665306091309,2.0094146728515625,-1.181031584739685,-0.8884271383285522,-1.7193565368652344
1761131475781228800,1.3797143697738647,-1.605332374572754,2.3367795944213867,-1.1572078466415403,-0.6831763982772827,-1.7425694465637207
1761131475791229000,1.1491364240646362,-1.591974139213562,2.383685111999512,-1.0716867446899414,-0.4614323377609253,-1.7425694465637207
1761131475801228800,1.0047307014465332,-1.5508352518081665,2.296070098876953,-0.9244682192802428,-0.2567924857139587,-1.7297413349151611
1761131475811229000,0.8985624313354492,-1.4373761415481567,2.03022575378418,-0.7265478372573853,-0.1352302879095077,-1.7059175968170166
1761131475821228800,0.8365218639373779,-1.318299651145935,1.6137123107910156,-0.4895321428775787,-0.1101848185062408,-1.670487403869629
1761131475831229000,0.842379629611969,-1.2136361598968506,1.2028446197509766,-0.2415208518505096,-0.1737148016691208,-1.632002830505371
1761131475841229000,0.8476717472076416,-1.035538911819458,0.6561374664306641,-0.0069485921412706,-0.301996499300003,-1.594129204750061
1761131475851229000,0.8006364703178406,-0.8710215091705322,0.1330995559692382,0.1970804035663604,-0.4357759952545166,-1.555033802986145
1761131475861228800,0.8417277336120605,-0.7528886795043945,-0.4751901626586914,0.3614031374454498,-0.5035820603370667,-1.507386326789856
1761131475871228200,1.043496012687683,-0.6555836200714111,-1.0693931579589844,0.4915174543857574,-0.4712061882019043,-1.450575828552246
1761131475881228000,1.2756508588790894,-0.5111255645751953,-1.6120901107788086,0.5819255113601685,-0.3746894598007202,-1.4145348072052002
1761131475891228200,1.4024922847747805,-0.3726227283477783,-1.9983668327331543,0.6185774207115173,-0.2769510447978973,-1.427363038063049
1761131475901228000,1.4175087213516235,-0.4242730140686035,-1.979899883270264,0.5660430192947388,-0.2390773892402649,-1.517160177230835
1761131475911194600,1.2173044681549072,-0.058349609375,-2.3020987510681152,0.521449863910675,-0.2696206569671631,-1.5544229745864868
1761131475921161500,1.0428180694580078,-0.0146265029907226,-2.1606831550598145,0.3998876512050628,-0.4009566605091095,-1.6283376216888428
1761131475931128000,0.953562557697296,-0.0527331829071044,-1.898942470550537,0.2361757755279541,-0.6233116388320923,-1.677817702293396
1761131475941094700,1.0232044458389282,-0.1233983039855957,-1.5857696533203125,-0.0753654986619949,-1.0252609252929688,-1.6979763507843018
1761131475951061500,1.19077467918396,-0.2686562538146972,-1.066105842590332,-0.3307071626186371,-1.2274574041366575,-1.7059175968170166
1761131475961028000,1.2006815671920776,-0.3145685195922851,-0.4544248580932617,-0.6159812211990356,-1.3276392221450806,-1.7297413349151611
1761131475970995700,1.079082489013672,-0.361478328704834,0.289708137512207,-0.8865945339202881,-1.2891547679901123,-1.757230281829834
1761131475980962300,0.9737865924835204,-0.4729208946228027,0.9041204452514648,-1.0924561023712158,-1.085736632347107,-1.7718909978866575
1761131475990929000,0.8712337017059326,-0.6162896156311035,1.281214714050293,-1.1969140768051147,-0.725937008857727,-1.7712801694869995
1761131476000895700,0.7496064901351929,-0.7809672355651855,1.4743709564208984,-1.1950814723968506,-0.3087160289287567,-1.7621171474456787
1761131476010862300,0.4827635288238525,-0.6909313201904297,1.5463886260986328,-1.0979539155960083,0.035201109945774,-1.759062886238098
1761131476020829000,0.0259964652359485,-0.3021721839904785,1.3779573440551758,-0.9391289353370668,0.2722168266773224,-1.7566193342208862
1761131476030795500,-0.4368433058261871,0.0486869812011718,1.1625080108642578,-0.735710859298706,0.4249331355094909,-1.7321847677230835
1761131476040762400,-0.7299544215202332,0.3191399574279785,0.8484592437744141,-0.5194645524024963,0.4621959030628204,-1.690035104751587
1761131476050729000,-0.8624584078788757,0.4935877323150635,0.5291461944580078,-0.3105486333370209,0.3882812261581421,-1.642998456954956
1761131476060695600,-0.9934614300727844,0.6323890686035156,0.1032342910766601,-0.1230129897594451,0.2288453876972198,-1.5977944135665894
1761131476070661400,-1.1068018674850464,0.7301003932952881,-0.2724504470825195,0.0339793786406517,0.0455858185887336,-1.5446491241455078
1761131476080628200,-1.1065293550491333,0.8059020042419434,-0.5487861633300781,0.1604284793138504,-0.1266781836748123,-1.4829517602920532
1761131476090594800,-1.1302883625030518,0.8664655685424805,-0.8940744400024414,0.2520582675933838,-0.2708423733711242,-1.407204508781433
1761131476100561400,-1.0362578630447388,0.9075350761413574,-1.1702051162719729,0.3168099820613861,-0.3502548635005951,-1.3241267204284668
1761131476110528300,-0.8732242584228516,0.9670453071594238,-1.420515060424805,0.3571271002292633,-0.3728568851947784,-1.2416599988937378
1761131476120494800,-0.7545270919799805,1.08949613571167,-1.5452532768249512,0.369344413280487,-0.3441462218761444,-1.178130030632019
1761131476130461400,-0.7854031324386597,1.079029560089111,-1.7747955322265625,0.3760639131069183,-0.2708423733711242,-1.1231521368026731
1761131476140428000,-0.7127406001091003,1.1066532135009766,-1.821908950805664,0.3809508383274078,-0.1413389444351196,-1.0724502801895142
1761131476150395000,-0.6822057962417603,1.2326133251190186,-1.6936039924621582,0.369344413280487,-0.0778089612722396,-1.0431287288665771
1761131476160361500,-0.670617938041687,1.4872407913208008,-1.3618698120117188,0.3436880707740783,-0.1199586614966392,-1.0309114456176758
1761131476170328800,-0.6750967502593994,1.6965434551239014,-1.1817874908447266,0.321086049079895,-0.2152536362409591,-1.0309114456176758
1761131476180295700,-0.5827564001083374,1.5964505672454834,-1.0026235580444336,0.330249011516571,-0.2592359483242035,-1.054124355316162
1761131476190262300,-0.543662428855896,1.310810089111328,-1.0577917098999023,0.3565162420272827,-0.2574033439159393,-1.0907762050628662
1761131476200228900,-0.6226514577865601,1.039592742919922,-1.1958246231079102,0.3803399801254272,-0.1957059502601623,-1.1347585916519165
1761131476210229000,-0.8762660622596741,0.9200491905212402,-1.131671905517578,0.3833943009376526,-0.1450041383504867,-1.1714104413986206
1761131476220228900,-1.2719871997833252,1.0020015239715576,-1.0215778350830078,0.353461891412735,-0.1608866304159164,-1.1787408590316772
1761131476230229000,-1.6442397832870483,1.106182336807251,-0.7183866500854492,0.3058144152164459,-0.1798234581947326,-1.1451432704925537
1761131476240228900,-2.032346487045288,1.0898761749267578,-0.5074224472045898,0.2618321180343628,-0.1944842189550399,-1.0657308101654053
1761131476250229000,-2.240644216537476,0.9068255424499512,-0.309518814086914,0.2172389477491378,-0.1993711441755294,-0.9514989852905272
1761131476260228900,-2.4462697505950928,0.803621768951416,-0.0840072631835937,0.1726457923650741,-0.2360230535268783,-0.815276026725769
1761131476270228200,-2.614305019378662,0.8495616912841797,0.1712589263916015,0.1195005103945732,-0.3038291037082672,-0.6625596880912781
1761131476280228000,-2.696142673492432,0.9404034614562988,0.4005002975463867,0.0791834071278572,-0.3423136174678802,-0.4933500289916992
1761131476290228000,-2.5895509719848637,1.0425820350646973,0.7233619689941406,0.0559705272316932,-0.3355940878391266,-0.3161991238594055
1761131476300228000,-2.2575275897979736,1.2499330043792725,1.0785131454467771,0.0431423597037792,-0.3068834245204925,-0.1512655019760131
1761131476310228000,-1.906407356262207,1.2812840938568115,1.2150821685791016,0.0571922585368156,-0.1749365329742431,-0.0107664996758103
1761131476320228000,-1.604583501815796,1.1843647956848145,1.2256650924682615,0.1030071526765823,0.0645226389169693,0.0924697294831276
1761131476330228000,-1.505635380744934,1.1598289012908936,1.1622810363769531,0.1726457923650741,0.3326924741268158,0.159664899110794
1761131476340228000,-1.5899733304977417,1.3390936851501465,1.1986303329467771,0.2532800137996673,0.5086216926574707,0.2085341215133667
1761131476350228000,-1.7314568758010864,1.6637639999389648,1.095235824584961,0.3314707577228546,0.5300019383430481,0.2561815977096557
1761131476360228000,-1.865431547164917,1.885329246520996,1.0115346908569336,0.3986659348011017,0.4548655450344085,0.3136029541492462
1761131476370229000,-1.9221670627593996,1.973021507263184,1.0709991455078125,0.4389830231666565,0.2966514229774475,0.3783546686172485
1761131476380228900,-1.919188499450684,1.8625528812408447,1.0805206298828125,0.4487568736076355,0.0895681157708168,0.4516584873199463
1761131476390229000,-1.8277616500854488,1.6692655086517334,1.1727209091186523,0.4292092025279999,-0.0784198269248008,0.5231297016143799
1761131476400228900,-1.7016984224319458,1.4698636531829834,1.2559595108032229,0.3766747713088989,-0.1877647042274475,0.5982661247253418
1761131476410229000,-1.5525188446044922,1.3015632629394531,1.430171012878418,0.2667190432548523,-0.1877647042274475,0.7039458155632019
1761131476420228900,-1.4478498697280884,1.1572303771972656,1.2273101806640625,0.1842522323131561,-0.0729220360517501,0.7534258961677551
1761131476430229000,-1.2794697284698486,1.06107497215271,1.0368766784667969,0.0907898470759391,0.1023962870240211,0.7839691638946533
1761131476440228900,-1.103446364402771,0.9639179706573486,0.7725419998168945,-0.0258854143321514,0.2404518276453018,0.7967973351478577
1761131476450229000,-1.0206403732299805,0.9396703243255616,0.5840272903442383,-0.1639409661293029,0.3155882656574249,0.7992408275604248
1761131476460228900,-1.0507371425628662,0.9376380443572998,0.5898923873901367,-0.3087160289287567,0.3045926690101623,0.8016842603683472
1761131476470228200,-1.1296653747558594,0.8315305709838867,0.6840715408325195,-0.4302782118320465,0.220904141664505,0.8169559240341187
1761131476480228000,-1.1782078742980957,0.5019097328186035,0.7209463119506836,-0.5078580975532532,0.1146135926246643,0.8438339829444885
1761131476490228200,-1.1963679790496826,0.5433242321014404,0.7043914794921875,-0.5481752157211304,0.0376445725560188,0.8743772506713867
1761131476500228000,-1.7585582733154297,0.107302188873291,0.5832700729370117,-0.5530621409416199,0.035201109945774,0.9214138388633728
1761131476510228200,-1.9581890106201167,-0.0863914489746093,0.4598188400268554,-0.515799343585968,0.1109483987092971,0.990441620349884
1761131476520228000,-1.9587609767913816,-0.2333045005798339,0.2999248504638672,-0.4473824203014374,0.2404518276453018,1.0674107074737549
1761131476530228200,-1.8632349967956543,-0.2382383346557617,0.0449304580688476,-0.3612504303455353,0.3852269053459167,1.1278862953186035
1761131476540228000,-1.8622175455093384,-0.2109036445617675,0.0355510711669921,-0.273285835981369,0.482354462146759,1.1602622270584106
1761131476550228200,-1.753272294998169,0.229236364364624,-0.2815093994140625,-0.1987602859735489,0.4646393656730652,1.1688143014907837
1761131476560228000,-1.7429113388061523,0.2407436370849609,-0.284830093383789,-0.1492801904678344,0.3320816159248352,1.1620947122573853
1761131476570229000,-1.9711580276489256,0.6065096855163574,-0.2009382247924804,-0.1132391467690467,0.1072832122445106,1.1553752422332764
1761131476580228900,-1.905874490737915,0.4517800807952881,-0.1673345565795898,-0.0833067446947097,-0.1126282811164856,1.1639273166656494
1761131476590229000,-1.946954369544983,0.45253586769104,-0.1697988510131836,-0.0533743500709533,-0.292222648859024,1.1816424131393433
1761131476600228900,-1.600035548210144,0.0511596202850341,-0.0523614883422851,-0.0289397407323122,-0.4302782118320465,1.1981358528137207
1761131476610229000,-1.4981261491775513,-0.0619728565216064,0.0534677505493164,-0.0020616701804101,-0.5261840224266052,1.2109639644622805
1761131476620228900,-1.3069665431976318,-0.1406733989715576,0.0666952133178711,0.0339793786406517,-0.5530621409416199,1.2176835536956787
1761131476630229000,-1.1180791854858398,-0.3101198673248291,-0.0695409774780273,0.078572541475296,-0.4931973218917846,1.2109639644622805
1761131476640228900,-0.9657660722732544,-0.4369938373565674,-0.3165092468261719,0.1585958898067474,-0.3142138123512268,1.169425129890442
1761131476650228700,-0.8206799626350403,-0.3881440162658691,-0.5797758102416992,0.2129628956317901,-0.1889864355325698,1.116890788078308
1761131476660228900,-0.7782576084136963,-0.3242623805999756,-0.9154558181762696,0.2624429762363434,-0.0545960813760757,1.0435869693756104
1761131476670228000,-0.7946503758430481,-0.2213673591613769,-1.057973861694336,0.2966514229774475,0.0633009076118469,0.9647852778434752
1761131476680227800,-0.8115933537483215,-0.248349905014038,-1.0484933853149414,0.3125339448451996,0.1207222416996955,0.8939249515533447
1761131476690228000,-0.9114658832550048,-0.2240874767303466,-1.3616299629211426,0.3357468247413635,0.1842522323131561,0.8420013785362244
1761131476700227800,-0.9219757318496704,-0.2474665641784668,-1.491952419281006,0.3662900626659393,0.2648864388465881,0.7967973351478577
1761131476710228000,-0.892014741897583,-0.2569446563720703,-1.4894747734069824,0.3870594799518585,0.2874884605407715,0.7332673668861389
1761131476720227800,-0.9745115041732788,-0.2946639060974121,-1.708831787109375,0.3980550765991211,0.2679407596588135,0.6660721898078918
1761131476730228000,-1.0057672262191772,-0.369330883026123,-1.9252495765686035,0.4053854346275329,0.2966514229774475,0.6135377883911133
1761131476740227800,-1.0187578201293943,-0.4351003170013428,-2.1245040893554688,0.4011093974113464,0.3296381533145904,0.5738315582275391
1761131476750228000,-1.128152847290039,-0.5219941139221191,-2.2447452545166016,0.369344413280487,0.3100904822349548,0.5536729693412781
1761131476760227800,-1.274806022644043,-0.3833527565002441,-2.2150797843933105,0.311312198638916,0.2410627007484436,0.5579490661621094
1761131476770228700,-1.3443292379379272,-0.2920453548431396,-2.137054920196533,0.2490039467811584,0.1775327175855636,0.590324878692627
1761131476780228900,-1.2198766469955444,-0.262040376663208,-2.092291831970215,0.2007455974817276,0.1604284793138504,0.6318637132644653
1761131476790228700,-0.9693108797073364,-0.2634966373443603,-2.063572406768799,0.1622610837221145,0.1647045463323593,0.6532440185546875
1761131476800228900,-0.7838817238807678,-0.2062759399414062,-2.0529913902282715,0.1207222416996955,0.168980598449707,0.6422484517097473
1761131476810228700,-0.7270519733428955,-0.1500217914581298,-1.92418909072876,0.0736856237053871,0.1549306958913803,0.6080399751663208
1761131476820228900,-0.8546693325042725,-0.043947696685791,-1.7108945846557615,0.027259862050414,0.1201113760471344,0.5707772374153137
1761131476830228700,-0.9577990770339966,-0.0365576744079589,-1.5136442184448242,-0.0075594573281705,0.0675769671797752,0.5408447980880737
1761131476840228900,-0.8970426321029663,-0.0522892475128173,-1.3631243705749512,-0.0368809886276721,0.0016035212902352,0.5231297016143799
1761131476850228700,-0.834465503692627,-0.2831358909606933,-1.1418023109436035,-0.0564286783337593,-0.0277180112898349,0.5005277395248413
1761131476860228900,-1.0633950233459473,0.1510596275329589,-0.6625795364379883,-0.0710894465446472,-0.0717003047466278,0.4534910917282104
1761131476870228000,-0.9618316888809204,0.2371008396148681,-0.6722421646118164,-0.1162934675812721,-0.152334526181221,0.4339433908462524
1761131476880227800,-0.7303946018218994,-0.1059978008270263,-0.5181894302368164,-0.2262492179870605,0.0125990957021713,0.4278347492218017
1761131476890228000,-0.8547372817993164,-0.3072915077209472,-0.0714292526245117,-0.3062725663185119,0.1085049360990524,0.4272238910198211
1761131476900227800,-0.8599069714546204,-0.2785847187042236,-0.0825252532958984,-0.3410918712615967,0.1176679208874702,0.4504367709159851
1761131476910228000,-1.1523860692977903,-0.2781798839569092,0.7720499038696289,-0.3081051707267761,0.1243874356150627,0.4846452176570892
1761131476920227800,-0.9878979921340942,-0.165856122970581,1.0963401794433594,-0.2164753675460815,0.1011745557188987,0.5023602843284607
1761131476930228000,-0.7612494230270386,0.1730298995971679,1.239426612854004,-0.1242347210645675,0.0095447693020105,0.5103015303611755
1761131476940228000,-0.2657479047775268,0.5085210800170898,1.2876176834106443,-0.0735329017043113,-0.1169043332338333,0.5035820603370667
1761131476950228000,0.0895604491233825,0.7364065647125244,1.3546419143676758,-0.0961349159479141,-0.2964987158775329,0.4681518375873565
1761131476960228000,0.1850908994674682,1.0141079425811768,1.5172395706176758,-0.2109775841236114,-0.5384013652801514,0.4052327275276184
1761131476970229000,0.1603723466396331,1.311842679977417,1.796550750732422,-0.3930154144763946,-0.7503715753555298,0.3300963044166565
1761131476980228900,0.2439351379871368,0.968116283416748,2.16660213470459,-0.5829945206642151,-0.848110020160675,0.2683989107608795
1761131476990229000,0.3699433207511902,0.1993341445922851,2.675079345703125,-0.7131088376045227,-0.8139016032218933,0.2244166135787964
1761131477000228900,0.1486439704895019,-0.3466498851776123,3.278325080871582,-0.7796931266784668,-0.725937008857727,0.1853212416172027
1761131477010229000,-0.185397058725357,-0.5847334861755371,3.8489084243774414,-0.7876343727111816,-0.668515682220459,0.1755474060773849
1761131477020228900,-0.492274135351181,-0.5249733924865723,4.084752082824707,-0.7375434041023254,-0.5878814458847046,0.221362292766571
1761131477030229000,-0.5536627769470215,-0.4548778533935547,4.066359519958496,-0.6147595047950745,-0.3814089894294739,0.3209333419799804
1761131477040229000,-0.8932949304580688,-0.1030967235565185,4.072386741638184,-0.4327216744422912,-0.1303433775901794,0.4595997333526611
1761131477050229000,-0.9190412163734436,-0.0590302944183349,4.060647010803223,-0.2140319049358368,0.0706312954425811,0.5915466547012329
1761131477060229000,-0.3431806564331054,0.2436170578002929,3.404961585998535,0.0156534221023321,0.2355649173259735,0.6825655698776245
1761131477070228200,-0.0226682424545288,0.3484721183776855,3.010780334472656,0.238008365035057,0.3406337201595306,0.7302130460739136
1761131477080228000,0.2487470507621765,0.3156542778015136,2.507295608520508,0.4603633284568786,0.4194353520870209,0.7460955381393433
1761131477090228200,0.5531613826751709,0.214259386062622,2.009824752807617,0.6808856725692749,0.4786892831325531,0.7338782548904419
1761131477100228000,0.8510865569114685,0.1520318984985351,1.3368072509765625,0.939281702041626,0.4408156275749206,0.6654613018035889
1761131477110228200,1.1158404350280762,0.1322977542877197,0.6390590667724609,1.024191975593567,0.3974441885948181,0.5946009755134583
1761131477120228000,1.2512283325195312,0.1569447517395019,0.1247797012329101,1.0303006172180176,0.3394120037555694,0.515188455581665
1761131477130228200,1.2682480812072754,0.1878490447998047,-0.3423910140991211,0.9606619477272034,0.2667190432548523,0.4357759952545166
1761131477140228000,1.21124267578125,0.1769311428070068,-0.7289876937866211,0.8268824815750122,0.1958586722612381,0.3612504303455353
1761131477150228000,1.1043646335601809,0.163609504699707,-1.0230751037597656,0.6399577260017395,0.1549306958913803,0.2873357534408569
1761131477160228000,0.8734862804412842,0.1146748065948486,-1.2247347831726074,0.4218788146972656,0.1866956949234008,0.2262492179870605
1761131477170229000,0.5663567781448364,0.0574951171875,-1.3384137153625488,0.220904141664505,0.2984840273857116,0.1895972937345504
1761131477180228900,0.3762990236282348,-0.0890648365020752,-1.3185644149780271,0.0657443702220916,0.4408156275749206,0.1669952869415283
1761131477190229000,0.1790229678153991,-0.1740496158599853,-1.3408050537109375,-0.0350483916699886,0.5581017732620239,0.1376737505197525
1761131477200228900,-0.0369531512260437,-0.2196650505065918,-1.4149222373962402,-0.0784198269248008,0.6399577260017395,0.1040761694312095
1761131477210229000,-0.3287880420684814,-0.1975173950195312,-1.497915744781494,-0.0784198269248008,0.6729444265365601,0.0814741551876068
1761131477220228900,-0.6032008528709412,-0.1495020389556884,-1.5903277397155762,-0.0454331040382385,0.6491206884384155,0.082085020840168
1761131477230229000,-0.854533314704895,-0.1094038486480712,-1.6524033546447754,0.0071013085544109,0.5874232649803162,0.1095739528536796
1761131477240228900,-0.8051236867904663,-0.1098239421844482,-1.65464448928833,0.0639117732644081,0.4957934916019439,0.1517236530780792
1761131477250229000,-1.0093798637390137,-0.0983133316040039,-1.8482928276062007,0.1072832122445106,0.3882812261581421,0.1963168233633041
1761131477260228900,-1.0287399291992188,-0.0786707401275634,-1.929708480834961,0.1329395473003387,0.2960405647754669,0.2451860308647155
1761131477270228000,-0.9649034738540648,-0.1330628395080566,-1.949946403503418,0.1427133977413177,0.2325105816125869,0.2977204620838165
1761131477280228000,-0.8609186410903931,-0.1187829971313476,-1.9791412353515625,0.1323286890983581,0.2068542391061782,0.3526983261108398
1761131477290228000,-0.7277617454528809,-0.1584696769714355,-1.9918293952941892,0.1140027269721031,0.2294562608003616,0.4034001231193542
1761131477300228000,-0.5584738254547119,-0.1532375812530517,-2.0459227561950684,0.0944550409913063,0.2844341397285461,0.4467715620994568
1761131477310228000,-0.3594483733177185,-0.1126298904418945,-2.0888776779174805,0.078572541475296,0.3601814210414886,0.4809800088405609
1761131477320228000,-0.2266092002391815,-0.0345933437347412,-2.1445608139038086,0.0559705272316932,0.4420373737812042,0.4999168515205383
1761131477330228000,-0.1636285781860351,0.0694060325622558,-2.093472003936768,0.0254272650927305,0.5000695586204529,0.5005277395248413
1761131477340228000,-0.2031212151050567,0.233532428741455,-1.9645094871521,-0.0130572449415922,0.5006804466247559,0.4919756054878235
1761131477350228000,-0.1967557668685913,0.3004424571990967,-1.6883525848388672,-0.0197767615318298,0.4408156275749206,0.4822017550468445
1761131477360228000,-0.2146418541669845,0.339099645614624,-1.5438780784606934,-0.0093920528888702,0.3571271002292633,0.467540979385376
1761131477370229000,-0.2156730890274047,0.3024709224700928,-1.4227409362792969,0.0125990957021713,0.3070361316204071,0.4534910917282104
1761131477380228900,-0.2016084790229797,0.2182533740997314,-1.3653202056884766,0.0327576473355293,0.2978731691837311,0.4333325326442718
1761131477390229000,-0.2020265609025955,0.1225337982177734,-1.3382487297058103,0.0309250522404909,0.3161991238594055,0.4150065779685974
1761131477400228900,-0.3294005990028381,0.1250691413879394,-1.2394051551818848,0.0016035212902352,0.3559053540229797,0.4009566605091095
1761131477410229000,-0.5819577574729919,0.185267686843872,-0.997966766357422,-0.0466548316180706,0.4035528600215912,0.4009566605091095
1761131477420228900,-0.8037919998168945,0.2210516929626464,-0.7845783233642578,-0.09918924421072,0.4524220824241638,0.4272238910198211
1761131477430229000,-0.9191465377807616,0.2136762142181396,-0.6352672576904297,-0.1388954818248748,0.5263367891311646,0.473649650812149
1761131477440228900,-0.8880655765533447,0.2265777587890625,-0.640498161315918,-0.1602757722139358,0.6210208535194397,0.5267949104309082
1761131477450229000,-0.9794206619262696,0.2795455455780029,-0.2823715209960937,-0.1688278764486313,0.6876052021980286,0.5695554614067078
1761131477460228900,-1.118069052696228,0.408912181854248,-0.1753396987915039,-0.1614975035190582,0.7193701863288879,0.6092617511749268
1761131477470228000,-1.0722501277923584,0.4216289520263672,-0.1799116134643554,-0.132786825299263,0.7804567217826843,0.6569092273712158
1761131477480228000,-1.1625993251800537,0.5191822052001953,-0.0606060028076171,-0.0894154012203216,0.815886914730072,0.7015023827552795
1761131477490228000,-1.2284821271896362,0.6164073944091797,0.1496095657348632,-0.0338266640901565,0.7810675501823425,0.7424303293228149
1761131477500228000,-1.1781049966812134,0.6140856742858887,0.1517353057861328,0.0297033227980136,0.6900486350059509,0.7705301642417908
1761131477510228000,-1.0689853429794312,0.6313793659210205,0.2402639389038086,0.0852920562028884,0.5556582808494568,0.7803040146827698
1761131477520228000,-0.6989364624023438,0.4850294589996338,0.3283586502075195,0.1140027269721031,0.4035528600215912,0.7760279178619385
1761131477530228000,-0.628071129322052,0.4010758399963379,0.376220703125,0.1005636900663375,0.2795472145080566,0.7686975598335266
1761131477540228000,-0.6050561666488647,0.3812963962554931,0.468423843383789,0.0504727400839328,0.2233476042747497,0.771751880645752
1761131477550228000,-0.7436524629592896,0.3691370487213135,0.5895004272460938,-0.0319940671324729,0.2276236563920974,0.7796931266784668
1761131477560228000,-0.8994494676589966,0.4440317153930664,0.8318967819213867,-0.1382846236228943,0.2355649173259735,0.801073431968689
1761131477570229000,-1.0175808668136597,0.6439800262451172,1.269002914428711,-0.3465896546840668,0.1427133977413177,0.839557945728302
1761131477580228900,-1.2134573459625244,0.8800876140594482,1.7197084426879885,-0.4931973218917846,0.0565813928842544,0.8701011538505554
1761131477590229000,-1.2375637292861938,0.9028427600860596,2.12646484375,-0.6031530499458313,0.0431423597037792,0.9128617644309998
1761131477600228900,-1.071522235870361,0.7017405033111572,2.5269317626953125,-0.6734025478363037,0.0633009076118469,0.9562332034111024
1761131477610229000,-0.8902443051338196,0.4211649894714355,2.951700210571289,-0.7094436287879944,0.0058795781806111,0.9849438667297364
1761131477620228900,-0.8343119621276855,0.1969809532165527,3.224677085876465,-0.7143305540084839,-0.1181260645389556,0.9983828663825988
1761131477630229000,-1.033858060836792,-0.0310218334197998,3.2678699493408203,-0.6721808314323425,-0.1816560477018356,1.0215957164764404
1761131477640228900,-1.2442318201065063,-0.168973684310913,3.1380748748779297,-0.5628359913825989,-0.0826958790421485,1.0698541402816772
1761131477650229000,-1.3817811012268066,-0.4122529029846191,2.7010650634765625,-0.3795763850212097,0.1940260678529739,1.1315515041351318
1761131477660228900,-1.4352822303771973,-0.626708984375,2.076332092285156,-0.1376737505197525,0.5996406078338623,1.187751054763794
1761131477670228200,-1.4740899801254272,-0.6098861694335938,1.3589439392089844,0.1207222416996955,0.9728792905807496,1.217072606086731
1761131477680228000,-1.5581283569335938,-0.3685083389282226,0.7172365188598633,0.3485749661922455,1.1714104413986206,1.2140183448791504
1761131477690228200,-1.7796427011489868,0.1502249240875244,0.1578683853149414,0.5098434090614319,1.1420888900756836,1.1932488679885864
1761131477700228000,-1.9512234926223757,0.6221470832824707,-0.0722484588623046,0.5910884737968445,0.8855255246162415,1.1755337715148926
1761131477710228200,-2.000789165496826,0.9735262393951416,-0.1559028625488281,0.5910884737968445,0.4133267104625702,1.179809808731079
1761131477720228000,-1.93933367729187,0.989560842514038,-0.0680856704711914,0.5153411626815796,-0.1969276815652847,1.2036336660385132
1761131477730228200,-1.7201237678527832,0.6251287460327148,0.0683660507202148,0.3675118088722229,-0.8279514908790588,1.2421181201934814
1761131477740228000,-1.3931670188903809,-0.0071861743927001,0.3642082214355469,0.1848630905151367,-1.2958742380142212,1.3025938272476196
1761131477750228200,-0.993320882320404,-0.6089377403259277,0.7026968002319336,0.0345902442932128,-1.531057357788086,1.369178056716919
1761131477760228000,-0.4825083017349243,-1.0938475131988523,0.8685379028320312,-0.0539852157235145,-1.4913511276245115,1.4314863681793213
1761131477770229000,0.0450974106788635,-1.3880414962768557,0.7513513565063477,-0.0765872299671173,-1.189583659172058,1.4711925983428955
1761131477780228900,0.5955666303634644,-1.5117555856704712,0.4114971160888672,-0.0429896414279937,-0.6898959279060364,1.4614187479019165
1761131477790229000,0.9352737665176392,-1.4392366409301758,-0.048959732055664,0.0266489963978528,-0.0949131846427917,1.391780138015747
1761131477800228900,0.8378298878669739,-1.1502859592437744,-0.4707517623901367,0.1494329124689102,0.6650031805038452,1.1853076219558716
1761131477810229000,0.3313453197479248,-0.7903192043304443,-0.9328441619873048,0.2428952902555465,0.938670814037323,1.0423651933670044
1761131477820228900,-0.2040985226631164,-0.5309295654296875,-1.299950122833252,0.3479641079902649,1.0083094835281372,0.9470701813697816
1761131477830229000,-0.5957022309303284,-0.3682732582092285,-1.7820734977722168,0.4573090076446533,0.9398925304412842,0.9024770259857178
1761131477840229000,-0.8307971954345703,-0.3884875774383545,-2.24894380569458,0.5477170348167419,0.7993935346603394,0.8902597427368164
1761131477850229000,-0.9481577277183532,-0.5268964767456055,-2.684292793273926,0.6130796074867249,0.6088035702705383,0.9000335931777954
1761131477860229000,-0.9936047792434692,-0.5884072780609131,-3.146735191345215,0.6454554796218872,0.4145484268665313,0.914694368839264
1761131477870228200,-0.914269208908081,-0.5330920219421387,-3.360145092010498,0.6387359499931335,0.249614804983139,0.9287442564964294
1761131477880228400,-0.8103044033050537,-0.3644282817840576,-3.47934627532959,0.5855907201766968,0.1109483987092971,0.9342420101165771
1761131477890228200,-0.693357527256012,-0.1187777519226074,-3.479865550994873,0.4976260960102081,0.0144316917285323,0.9250790476799012
1761131477900228000,-0.5564947724342346,0.1040613651275634,-3.327335834503174,0.3717878460884094,-0.0545960813760757,0.9006444215774536
1761131477910228200,-0.4564056694507599,0.2547409534454345,-3.1071672439575195,0.2221258729696273,-0.1065196245908737,0.8560512661933899
1761131477920228400,-0.3858613967895508,0.3281311988830566,-2.686361789703369,0.0651335045695304,-0.129121646285057,0.7986299395561218
1761131477930228200,-0.4277716279029846,0.3271410465240478,-2.6831116676330566,-0.0784198269248008,-0.1401172131299972,0.7387651801109314
1761131477940228000,-0.2648630440235138,0.2552227973937988,-1.7107210159301758,-0.1963168233633041,-0.1315651088953018,0.6752351522445679
1761131477950228200,-0.2351298630237579,0.2345154285430908,-1.2623062133789062,-0.2757292985916137,-0.1016327068209648,0.6092617511749268
1761131477960228000,-0.1354273557662964,0.2135686874389648,-0.8888053894042969,-0.3081051707267761,-0.0197767615318298,0.5390121936798096
1761131477970229000,-0.1069177389144897,0.1904215812683105,-0.6008071899414062,-0.2940552532672882,0.1030071526765823,0.457767128944397
1761131477980229000,-0.2700434923171997,0.2085967063903808,-0.2173671722412109,-0.2457969039678573,0.2044107764959335,0.3643047511577606
1761131477990229000,-0.2648153901100158,0.2336897850036621,-0.2279109954833984,-0.1804343163967132,0.2508365511894226,0.2720641195774078
1761131478000229000,-0.8696190118789673,0.35268235206604,0.4483852386474609,-0.1028544381260871,0.2612212598323822,0.1993711441755294
1761131478010229000,-1.1255204677581787,0.367673397064209,0.7853031158447266,-0.0246636848896741,0.2661081850528717,0.1578323096036911
1761131478020229000,-1.1240131855010986,0.2518708705902099,1.003321647644043,0.0633009076118469,0.2734385430812835,0.1486693322658538
1761131478030229000,-0.9352196455001832,0.187263011932373,1.0809507369995115,0.1860848218202591,0.2563343346118927,0.1547779887914657
1761131478040229000,-0.6651839017868042,0.1379764080047607,1.0265865325927734,0.2300671190023422,0.2325105816125869,0.1272890418767929
1761131478050229000,-0.6424281001091003,0.1163268089294433,1.0336294174194336,0.2318997234106063,0.2080759704113006,0.0839176103472709
1761131478060229000,-0.4085510075092315,0.2028472423553466,1.0024394989013672,0.1891391575336456,0.1702023297548294,0.0387135855853557
1761131478070228200,-0.4457608163356781,0.2359986305236816,1.1255016326904297,0.1072832122445106,0.0944550409913063,0.004505131393671
1761131478080228000,-0.4343789517879486,0.2263708114624023,1.128676414489746,0.0052687125280499,0.0217620749026536,-0.0138208260759711
1761131478090228200,-0.3745110929012298,0.0679936408996582,1.2793445587158203,-0.1089630872011184,-0.0191658977419137,-0.0162642877548933
1761131478100228400,-0.1728447675704956,0.0229997634887695,1.4763107299804688,-0.2470186352729797,-0.0680351182818412,-0.0187077485024929
1761131478110228200,-0.155730664730072,0.0335915088653564,1.797842025756836,-0.4027892649173736,-0.1260673105716705,-0.0260381307452917
1761131478120228400,-0.1946363151073455,0.0916674137115478,2.085494041442871,-0.5359578728675842,-0.1541671156883239,-0.0211512092500925
1761131478130228200,-0.2102947533130645,0.1211605072021484,2.361572265625,-0.6251442432403564,-0.1120174154639244,-0.006490443367511
1761131478140228000,-0.1269031763076782,0.118255615234375,2.6273422241210938,-0.6666830778121948,-0.0289397407323122,0.012446379289031
1761131478150228200,-0.0270265936851501,0.1936240196228027,2.855599403381348,-0.6605743765830994,0.0694095641374588,0.0277180112898349
1761131478160228000,0.1938417553901672,0.2447495460510254,3.02400016784668,-0.6135377883911133,0.1524872332811355,0.0326049327850341
1761131478170229000,0.3384329676628113,0.2821564674377441,3.076549530029297,-0.5390121936798096,0.1769218444824218,0.020387627184391
1761131478180228900,0.3827758431434631,0.2624697685241699,3.079106330871582,-0.4418846368789673,0.1616502106189727,0.000839939690195
1761131478190229000,0.397646963596344,0.3032302856445312,3.063663482666016,-0.3239876627922058,0.1390482038259506,-0.0089339045807719
1761131478200228900,0.1857380270957946,0.0625543594360351,2.906306266784668,-0.1950950920581817,0.1323286890983581,-0.0003817907709162
1761131478210229000,0.0016404390335083,-0.0056033134460449,2.693380355834961,-0.0594830028712749,0.1359938681125641,0.0264962799847126
1761131478220228900,-0.0057643055915832,-0.1029212474822998,2.4489126205444336,0.0852920562028884,0.1665371358394622,0.0778089612722396
1761131478230229000,0.16994708776474,-0.2037694454193115,2.0461339950561523,0.238008365035057,0.2086868435144424,0.1456149965524673
1761131478240228900,0.18454509973526,-0.225006103515625,2.0527124404907227,0.3852269053459167,0.249614804983139,0.2079232633113861
1761131478250229000,0.7347447276115417,-0.1733477115631103,1.0703754425048828,0.5165629386901855,0.2697733640670776,0.2476294934749603
1761131478260228900,0.751467227935791,-0.2197780609130859,1.0860557556152344,0.6234643459320068,0.2624429762363434,0.2488512247800827
1761131478270228000,1.155174732208252,-0.127551794052124,-0.1393327713012695,0.7163158655166626,0.1983021348714828,0.1883755773305893
1761131478280228000,1.245974063873291,-0.1350321769714355,-0.6449766159057617,0.7248679995536804,0.128663495182991,0.1230129897594451
1761131478290228000,1.2894203662872314,-0.0907528400421142,-1.0393943786621094,0.6778313517570496,0.0461966842412948,0.0515417568385601
1761131478300228000,1.1780964136123655,-0.094106912612915,-1.3487334251403809,0.577038586139679,-0.0191658977419137,-0.0278707277029752
1761131478310228000,1.1734933853149414,-0.1446278095245361,-1.328615665435791,0.4377613067626953,-0.036270122975111,-0.0975093618035316
1761131478320228000,0.850835382938385,-0.2968840599060058,-1.7610931396484375,0.2777146100997925,-0.0093920528888702,-0.1488220393657684
1761131478330228000,0.5915201902389526,-0.4376635551452636,-1.7945713996887207,0.1140027269721031,0.0376445725560188,-0.1799761801958084
1761131478340228000,0.2993369996547699,-0.4738712310791015,-1.6208195686340332,-0.0338266640901565,0.0920115783810615,-0.197691261768341
1761131478350228000,0.0913812518119812,-0.5022091865539551,-1.493274211883545,-0.1364520192146301,0.1604284793138504,-0.1940260678529739
1761131478360228000,0.1112617254257202,-0.4904115200042724,-1.4990019798278809,-0.1798234581947326,0.263053834438324,-0.1769218444824218
1761131478370229000,-0.0146916806697845,-0.6087892055511475,-1.5162434577941897,-0.1627192348241806,0.382172554731369,-0.159206748008728
1761131478380228900,-0.0531204640865325,-0.5945909023284912,-1.5978307723999023,-0.1059087589383125,0.47258061170578,-0.1543198376893997
1761131478390229000,-0.2271767109632492,-0.5136487483978271,-1.75407075881958,-0.0246636848896741,0.5049564838409424,-0.1598176211118698
1761131478400228900,-0.3669236302375793,-0.4208734035491943,-1.914398193359375,0.0718530267477035,0.4951826333999634,-0.1598176211118698
1761131478410229000,-0.4620685577392578,-0.3344078063964844,-2.09967041015625,0.1616502106189727,0.4512003362178802,-0.1482111811637878
1761131478420228900,-0.4754612743854522,-0.29433274269104,-2.3292222023010254,0.2349540442228317,0.3705661296844482,-0.1262200325727462
1761131478430229000,-0.4467028975486755,-0.2895340919494629,-2.500697135925293,0.2807689309120178,0.2746602892875671,-0.1048397496342659
1761131478440228900,-0.4705521762371063,-0.2265849113464355,-2.574428081512451,0.292375385761261,0.1665371358394622,-0.0834594666957855
1761131478450229000,-0.5529015064239502,-0.1693954467773437,-2.556528091430664,0.272827684879303,0.0516944713890552,-0.0602465830743312
1761131478460228900,-0.4789319634437561,-0.0912156105041503,-2.536792755126953,0.2294562608003616,-0.0332157984375953,-0.0327576473355293
1761131478470228000,-0.3322623372077942,-0.0449864864349365,-2.429978847503662,0.1665371358394622,-0.0515417568385601,-0.0016035212902352
1761131478480228000,-0.1022492498159408,-0.0145821571350097,-2.289572238922119,0.0962876379489898,-0.0258854143321514,0.0197767615318298
1761131478490228000,0.0742232501506805,-0.0041131973266601,-2.10634183883667,0.0187077485024929,0.0217620749026536,0.0185550320893526
1761131478500228000,0.0754839181900024,-0.0057995319366455,-2.1056437492370605,-0.0753654986619949,0.1023962870240211,-0.0242055356502532
1761131478510228000,0.2412841320037841,0.0656354427337646,-1.7039475440979004,-0.1236238554120063,0.1372155994176864,-0.0687986984848976
1761131478520228000,0.172502338886261,0.1414263248443603,-1.5051946640014648,-0.1645518243312835,0.1421025246381759,-0.1201113760471344
1761131478530228000,0.0582238659262657,0.141911506652832,-1.2911882400512695,-0.1993711441755294,0.1158353239297866,-0.1598176211118698
1761131478540228000,0.0747173205018043,0.1599371433258056,-1.2986984252929688,-0.2335795909166336,0.0828486010432243,-0.1793653070926666
1761131478550228000,-0.2462658733129501,0.0661704540252685,-0.8237934112548828,-0.2677880525588989,0.0657443702220916,-0.1750892549753189
1761131478560228000,-0.3654957711696625,0.045008897781372,-0.3979873657226562,-0.2946661114692688,0.0700204297900199,-0.1537089645862579
1761131478570229000,-0.3534614741802215,0.0718116760253906,-0.4088344573974609,-0.3038291037082672,0.1121701300144195,-0.1182787865400314
1761131478580228900,-0.4945558905601501,0.1138432025909423,0.1427278518676757,-0.2751184403896332,0.2080759704113006,-0.0773508101701736
1761131478590229000,-0.5133594870567322,0.2150969505310058,0.2647047042846679,-0.2152536362409591,0.3216969072818756,-0.0388663001358509
1761131478600228900,-0.5228211283683777,0.3483767509460449,0.327127456665039,-0.1352302879095077,0.4176027476787567,-0.0119882300496101
1761131478610229000,-0.6054677963256836,0.5000226497650146,0.3115463256835937,-0.0533743500709533,0.4841870665550232,0.000839939690195
1761131478620228900,-0.7275639772415161,0.6555821895599365,0.2036609649658203,0.0278707277029752,0.4976260960102081,0.0197767615318298
1761131478630229000,-0.7575713396072388,0.8126859664916992,0.051309585571289,0.1017854213714599,0.4609741866588592,0.0466548316180706
1761131478640228900,-0.6788325905799866,0.928807497024536,-0.0907773971557617,0.1524872332811355,0.3723987340927124,0.0680351182818412
1761131478650229000,-0.6492105722427368,1.017975091934204,-0.1804924011230468,0.1604284793138504,0.2422844320535659,0.0778089612722396
1761131478660228900,-0.6194190979003906,1.0672922134399414,-0.1214017868041992,0.1249983012676239,0.0950659066438674,0.0802524238824844
1761131478670228200,-0.4904573261737823,0.9951465129852296,-0.0375862121582031,0.0461966842412948,-0.0490982942283153,0.0881936699151992
1761131478680228000,-0.3222767412662506,0.8751027584075928,0.2056808471679687,-0.0710894465446472,-0.1376737505197525,0.0998001098632812
1761131478690228000,-0.3065395057201385,0.7421298027038574,0.5136270523071289,-0.2060906589031219,-0.1505019217729568,0.1114065498113632
1761131478700228000,-0.4580066502094269,0.7083137035369873,0.7947492599487305,-0.3343723714351654,-0.0845284759998321,0.1187369301915168
1761131478710228000,-0.6352537274360657,0.7181570529937744,0.960947036743164,-0.4198935031890869,0.1109483987092971,0.1340085566043853
