timestamp,accel_x,accel_y,accel_z,gyro_x,gyro_y,gyro_z
1761132214439633000,-0.6239709258079529,2.8704137802124023,-0.8844747543334961,-0.0812450796365737,-0.1014799922704696,-0.0710130855441093
1761132215902882800,2.421914339065552,3.984848737716675,-12.416292190551758,1.6108516454696655,-0.5559637546539307,0.3358231782913208
1761132215912883700,1.926970601081848,3.7181179523468018,-13.64459228515625,1.5247195959091189,-0.4673882722854614,-0.0148134818300604
1761132215922883800,1.222736954689026,3.228889942169189,-14.144532203674316,1.292590856552124,-0.3898083865642547,-0.357508897781372
1761132215932883700,0.2063071429729461,2.634141445159912,-13.774810791015623,0.9517280459403992,-0.3342196345329284,-0.6635523438453674
1761132215942883800,-0.9201101064682008,2.0570311546325684,-12.528847694396973,0.5925393104553223,-0.28718301653862,-0.8767443299293518
1761132215952883700,-1.4528803825378418,1.4564872980117798,-11.264713287353516,0.323147714138031,-0.2328160107135772,-0.964708924293518
1761132215962883800,-1.5011789798736572,0.7883137464523315,-10.138887405395508,0.1227839142084121,-0.1589013189077377,-0.9708175659179688
1761132215972883700,-1.434274673461914,0.4028933644294739,-8.965128898620605,0.1069014146924018,-0.204716220498085,-0.9622654914855956
1761132215982883800,-1.3166029453277588,0.1505849063396453,-8.147807121276855,0.180816113948822,-0.316504567861557,-0.9494373202323914
1761132215992883700,-1.391653060913086,-0.2695798873901367,-7.799159049987793,0.3182607889175415,-0.4191299080848694,-0.9347765445709229
1761132216002883300,-1.7158541679382324,-0.5741750001907349,-7.758711814880371,0.4416555762290954,-0.5187009572982788,-0.9115636348724364
1761132216012882400,-2.2026405334472656,-0.876752495765686,-7.633562088012695,0.5363397002220154,-0.6280458569526672,-0.8571966290473938
1761132216022882600,-2.7020044326782227,-1.3012534379959106,-7.550230026245117,0.6200281977653503,-0.7532731890678406,-0.755182147026062
1761132216032882400,-3.1269516944885254,-1.381775975227356,-7.027009963989258,0.6444628238677979,-0.9322566986083984,-0.6067419052124023
1761132216042882600,-2.932196140289306,-1.4616714715957642,-6.190014839172363,0.6395758986473083,-1.0403798818588257,-0.4234823286533355
1761132216052882400,-2.166112899780273,-1.8344279527664185,-5.214255332946777,0.6194173693656921,-0.9902889132499696,-0.2390010207891464
1761132216062882600,-1.6155576705932615,-1.9953970909118648,-3.4161109924316406,0.5473352670669556,-0.7935903072357178,-0.0942259654402732
1761132216072882400,-0.8353869318962097,-2.02339768409729,-0.3217983245849609,0.4642575979232788,-0.5034292936325073,0.0004581489483825
1761132216082882600,-0.4534152746200561,-1.8219659328460691,2.688196182250977,0.4728097021579742,-0.1265254616737365,0.0762054398655891
1761132216092882400,-0.1691807508468628,-0.679502010345459,3.321453094482422,0.4599815309047699,0.2076178193092346,0.1501201391220092
1761132216102882600,-0.3388553857803345,1.4538705348968506,4.305230140686035,0.0995710343122482,0.1068250611424446,0.1238529309630394
1761132216112883200,-0.0753191709518432,3.1287670135498047,7.72849178314209,-0.6499606370925903,-0.538859486579895,-0.0019853119738399
1761132216122883300,1.17660391330719,2.9551990032196045,14.23150634765625,-1.680490255355835,-1.5431219339370728,-0.1235474944114685
1761132216132883200,2.688741683959961,1.335557460784912,23.82950592041016,-2.7513370513916016,-2.4979043006896973,-0.2292271852493286
1761132216142883300,4.022727012634277,-0.702086865901947,34.3300666809082,-3.3957998752593994,-2.748359203338623,-0.1992947906255722
1761132216152883200,3.8147459030151367,-1.584611415863037,41.179969787597656,-3.447112560272217,-2.177810907363892,-0.0612392425537109
1761132216162883300,3.097994565963745,-1.3820466995239258,42.12248229980469,-2.869234085083008,-1.091692566871643,0.1861611902713775
1761132216172883200,2.9952709674835205,-1.1043527126312256,42.16779327392578,-1.940108060836792,0.0536797828972339,0.4598288238048553
1761132216182883300,0.0454742908477783,1.9679529666900637,27.772706985473636,-1.1325441598892212,0.7842746376991272,0.7903069257736206
1761132216192883500,0.1291897296905517,2.092402458190918,27.769161224365234,-0.6328563690185547,1.0640509128570557,1.2063060998916626
1761132216202883300,0.1714484691619873,5.485895156860352,10.981189727783203,-0.7275404930114746,0.8923977613449097,1.326035737991333
1761132216212882400,0.7125297784805298,6.16722583770752,6.415355682373047,-0.9663888216018676,0.6040693521499634,1.315040111541748
1761132216222882600,1.3543413877487185,6.072649002075195,3.7414064407348633,-1.177748203277588,0.330401748418808,1.2221885919570925
1761132216232882400,2.1425905227661133,5.5191755294799805,2.55477237701416,-1.271210551261902,0.1141554415225982,1.1036807298660278
1761132216242882300,2.5890607833862305,5.38364315032959,2.213200569152832,-1.179580807685852,0.1227075532078743,0.9442449808120728
1761132216252882400,2.321359634399414,5.602475643157959,2.0726318359375,-0.8918632864952087,0.3743840456008911,0.7414376735687256
1761132216262882300,1.0282599925994873,5.474106788635254,0.7935218811035156,-0.4019493460655212,0.8258134722709656,0.5612324476242065
1761132216272882400,-0.469524621963501,5.422878265380859,-1.1147842407226562,0.1612684279680252,1.1562916040420532,0.5068654417991638
1761132216282882300,-1.618476629257202,5.288227558135986,-3.050637722015381,0.7440338730812073,1.1764501333236694,0.566119372844696
1761132216292882400,-2.089030504226685,5.244442939758301,-4.939952373504639,1.3518447875976562,0.875904381275177,0.6962336897850037
1761132216302882800,-0.8165122270584106,5.196147918701172,-6.722462177276611,1.9535470008850095,0.2900846302509308,0.8721628785133362
1761132216312883700,-1.235243320465088,5.280495643615723,-8.374496459960938,2.506990909576416,-0.4563927054405212,0.946077525615692
1761132216322883600,-0.9457314014434814,4.56782341003418,-9.98208999633789,3.009732961654663,-1.073366641998291,0.9900598526000975
1761132216332883700,0.2759205102920532,3.609593629837036,-11.670733451843262,3.375030517578125,-1.393460035324097,0.9876163601875304
1761132216342883600,1.2887685298919678,2.7797393798828125,-13.33640480041504,3.5460727214813232,-1.384907841682434,0.8733845949172974
1761132216352883700,1.6782149076461792,2.1312811374664307,-14.97195816040039,3.506366491317749,-1.1454486846923828,0.6320928335189819
1761132216362883600,1.5123982429504397,1.6418858766555786,-16.17855453491211,3.271183490753174,-0.7801512479782104,0.3022255897521972
1761132216372883700,0.9966719150543212,1.2878788709640503,-16.95030975341797,2.883283853530884,-0.4038582742214203,-0.0325285755097866
1761132216382883600,0.7686605453491211,0.9756059050559998,-16.91018295288086,2.3915374279022217,-0.061162881553173,-0.3226895630359649
1761132216392883700,0.594367504119873,0.4857478141784668,-16.442424774169922,1.884519338607788,0.2528218626976013,-0.5798638463020325
1761132216402883600,0.3666048049926758,0.0213152170181274,-15.813419342041016,1.4300355911254885,0.5570327639579773,-0.8260425329208374
1761132216412883000,-0.0801392793655395,-0.3577155470848083,-14.730548858642578,1.0207557678222656,0.8013788461685181,-1.0477865934371948
1761132216422882800,-0.7490290403366089,-0.4657386541366577,-13.301224708557127,0.6823364496231079,0.971810221672058,-1.2261592149734497
1761132216432883000,-0.9435582756996156,-1.0433512926101685,-11.97971534729004,0.3958406746387481,1.1245265007019043,-1.3880385160446167
1761132216442882800,-1.3216021060943604,-1.517666578292847,-10.314983367919922,0.3127630054950714,1.0884854793548584,-1.4595097303390503
1761132216452883000,-1.507477879524231,-1.961679220199585,-8.823981285095215,0.3347541689872741,0.9632581472396852,-1.468061923980713
1761132216462882800,-1.4842171669006348,-2.4038357734680176,-7.722449779510498,0.4807509481906891,0.8600218892097473,-1.4350751638412476
1761132216472883000,-1.379543423652649,-2.7911362648010254,-7.227166175842285,0.6805039048194885,0.7421249151229858,-1.3752104043960571
1761132216482882800,-1.2908720970153809,-3.0976109504699707,-7.342061996459961,0.8698720932006836,0.6529386043548584,-1.2909109592437744
1761132216492883000,-1.2755577564239502,-3.31264591217041,-7.294081687927246,0.979216992855072,0.5863542556762695,-1.2066116333007812
1761132216502882800,-1.563650608062744,-3.292238473892212,-6.387706756591797,1.004873275756836,0.5118287205696106,-1.13758385181427
1761132216512883700,-2.115099668502808,-3.4523754119873047,-4.80134391784668,1.004873275756836,0.5020548701286316,-1.0367910861968994
1761132216522883600,-3.027313232421875,-3.632474660873413,-2.9474682807922363,1.036027431488037,0.591852068901062,-0.8743008971214294
1761132216532883700,-3.82048773765564,-3.622183799743652,-1.2360801696777344,1.112385630607605,0.7659486532211304,-0.6012440919876099
1761132216542883600,-4.30955696105957,-3.265002489089966,0.108835220336914,1.1832460165023804,0.9559277296066284,-0.2567161321640014
1761132216552883700,-5.615987300872803,-1.471050500869751,1.2337379455566406,1.2040153741836548,1.2027173042297363,0.0719293802976608
1761132216562883600,-7.004009246826172,1.1341168880462646,1.781290054321289,1.091616153717041,1.3731486797332764,0.3694207668304443
1761132216572883700,-8.349661827087402,3.482913017272949,3.293450355529785,0.694553792476654,1.1031463146209717,0.6339253783226013
1761132216582883800,-8.099913597106934,5.639354705810547,6.276070594787598,0.0726929605007171,0.3084105849266052,0.9124799370765686
1761132216592883700,-5.531778335571289,7.534473896026611,12.70595932006836,-0.789237916469574,-1.3317625522613523,1.145830512046814
1761132216602883800,-2.1975486278533936,8.259489059448242,21.606842041015625,-1.5851953029632568,-3.3635003566741943,1.098793864250183
1761132216612883000,-2.5432488918304443,8.414310455322266,21.582029342651367,-2.0219640731811523,-4.910821914672852,0.8617781400680542
1761132216622883000,3.7336931228637695,4.933847427368164,30.167312622070312,-2.1252002716064453,-5.387907981872559,0.7707592248916626
1761132216632883000,5.655221462249756,3.2331318855285645,29.766521453857425,-2.1728477478027344,-4.97740650177002,0.7512115240097046
1761132216642883000,5.455150604248047,3.4119319915771484,26.803714752197266,-2.057394027709961,-3.414202213287353,0.6369797587394714
1761132216652883000,3.957410097122192,3.5290603637695312,22.24804306030273,-2.0231857299804688,-1.5315154790878296,0.5899431109428406
1761132216662883000,0.621046781539917,4.396981239318848,17.09231185913086,-2.068389654159546,0.9834166765213012,0.6455318331718445
1761132216672883000,-1.1416587829589844,4.351714134216309,12.417070388793944,-2.077552795410156,1.7622698545455933,0.7964155673980713
1761132216682883000,-2.1092851161956787,4.344696998596191,8.36384391784668,-2.014022827148437,1.930257797241211,0.9393580555915833
1761132216692883000,-1.6274051666259766,4.451899528503418,5.341923713684082,-1.8466455936431885,1.5441910028457642,1.0841331481933594
1761132216702883000,0.162792682647705,4.617254257202148,3.628377914428711,-1.5369369983673096,0.7292967438697815,1.1293370723724363
1761132216712883700,1.381386637687683,4.812956809997559,1.8144950866699217,-1.037249207496643,0.0243582520633935,0.9949467778205872
1761132216722883800,1.1812758445739746,4.61750078201294,-0.4833946228027344,-0.4776966273784637,-0.3940844535827636,0.8006916046142578
1761132216732883700,0.3050277233123779,4.434458255767822,-2.946943759918213,0.0598647929728031,-0.4453971087932586,0.7005097270011902
1761132216742883800,-0.5375196933746338,4.528468608856201,-5.644052505493164,0.5461135506629944,-0.2688570618629455,0.7108944058418274
1761132216752883700,-1.260225534439087,5.148726463317871,-8.039998054504395,0.9535606503486632,-0.104534313082695,0.7768678665161133
1761132216762883800,-1.4839860200881958,5.443756580352783,-10.230217933654783,1.284038782119751,-0.0746019184589386,0.8428413271903992
1761132216772884200,-1.3154523372650146,5.46905517578125,-11.923978805541992,1.511891484260559,-0.2157117873430252,0.860556423664093
1761132216782884400,-0.9403058290481568,5.0549163818359375,-13.56460952758789,1.626123309135437,-0.4398993253707886,0.8330674767494202
1761132216792884200,0.0458183288574218,4.212026596069336,-14.020170211791992,1.6120734214782717,-0.6457608938217163,0.7683157324790955
1761132216802884400,1.0020172595977783,3.494697332382202,-13.516094207763672,1.5344934463500977,-0.7935903072357178,0.6143777370452881
1761132216812883500,1.063249588012695,3.012216567993164,-12.657132148742676,1.50211763381958,-0.7758752107620239,0.3578143119812011
1761132216822883300,0.4358129501342773,2.52077054977417,-11.913484573364258,1.5387696027755735,-0.672639012336731,0.081092357635498
1761132216832883500,-0.2512094974517822,1.8621119260787964,-11.928202629089355,1.624901533126831,-0.5761222839355469,-0.1510364264249801
1761132216842883300,-1.0197809934616089,1.3914134502410889,-12.38685703277588,1.6975945234298706,-0.5070945024490356,-0.3349068760871887
1761132216852883500,-1.3241153955459597,0.9098784923553468,-13.11867618560791,1.693318486213684,-0.4722751975059509,-0.4637994468212127
1761132216862883300,-1.356817603111267,0.4140311479568481,-13.90579605102539,1.587027907371521,-0.3788128197193146,-0.5566509366035461
1761132216872883500,-1.3208730220794678,0.0579226016998291,-14.085902214050291,1.3628404140472412,-0.2572506368160248,-0.6409503817558289
1761132216882883300,-1.0843746662139893,-0.1808688640594482,-13.604997634887695,1.0677924156188965,-0.1778381466865539,-0.7276932001113892
1761132216892883500,-0.8212084770202637,-0.5353924036026001,-12.825887680053713,0.6664539575576782,-0.0330630801618099,-0.8944594264030457
1761132216902883300,-0.8134307861328125,-0.8759028911590576,-12.083791732788086,0.4434881806373596,0.0970512181520462,-1.0245736837387085
1761132216912884200,-1.0487959384918213,-1.1891872882843018,-11.255745887756348,0.2535090744495392,0.2393828183412552,-1.136362075805664
1761132216922884000,-1.2895537614822388,-1.489649772644043,-10.549915313720703,0.1007927656173706,0.3933208584785461,-1.2078332901000977
1761132216932884200,-1.573838472366333,-1.8345576524734497,-9.678521156311035,-0.0555887371301651,0.4788419902324676,-1.2389874458312988
1761132216942884000,-1.4181382656097412,-2.131402969360352,-8.158697128295898,-0.1973094791173935,0.5118287205696106,-1.232878804206848
1761132216952884200,-1.0629158020019531,-2.2727928161621094,-6.082213401794434,-0.2535090744495392,0.5857434272766113,-1.222494125366211
1761132216962884000,-0.7942708730697632,-2.510672807693481,-4.4248151779174805,-0.1985312104225158,0.7671703696250916,-1.2169963121414185
1761132216972884200,-1.293971300125122,-2.484262704849243,-2.57045841217041,-0.1270599663257599,0.9131671786308287,-1.1809552907943726
1761132216982884000,-1.974523663520813,-2.187138795852661,-0.3458089828491211,-0.0128281703218817,1.0781008005142212,-1.0844385623931885
1761132216992884200,-2.804297924041748,-1.904631733894348,1.9799680709838867,0.1429424732923507,1.1013137102127075,-0.9543242454528807
1761132217002884000,-4.003123760223389,-1.6115498542785645,4.990227699279785,0.3109304010868072,0.9333257079124452,-0.7661777138710022
1761132217012883200,-4.797855854034424,-0.6309278011322021,8.169193267822266,0.5516113042831421,0.772057294845581,-0.4607451260089874
1761132217022883300,-5.360825538635254,0.8783843517303467,9.425020217895508,0.8142833709716797,0.74395751953125,-0.1027780771255493
1761132217032883200,-5.565566539764404,3.0564451217651367,9.52834701538086,0.8558222055435181,0.6187301278114319,0.2857322096824646
1761132217042883300,-3.7550816535949703,5.589932441711426,11.155054092407228,0.4508185386657715,-0.124692864716053,0.6534730792045593
1761132217052883200,-0.4509130716323852,7.239925861358643,15.542951583862305,-0.219300627708435,-1.5620588064193726,0.8141306638717651
1761132217062883300,3.2295851707458496,6.973225116729736,20.21240997314453,-0.7678576111793518,-3.1790192127227783,0.670577347278595
1761132217072883000,5.464234352111816,7.674042701721191,22.17036437988281,-1.0855075120925903,-4.507650852203369,0.3394883573055267
1761132217082882800,9.084600448608398,5.138491630554199,21.87683868408203,-1.3115277290344238,-4.675639152526856,0.1238529309630394
1761132217092883000,8.719276428222656,4.426526546478272,19.790489196777344,-1.6303993463516235,-3.813708066940308,-0.2463314086198806
1761132217102882800,4.92501163482666,4.859890937805176,15.44137477874756,-1.9004018306732176,-1.9004781246185305,-0.5523748993873596
1761132217112883700,-0.8433423042297363,3.5636351108551025,4.578103065490723,-2.381152629852295,-0.0165697205811738,-0.5303837656974792
1761132217142883600,0.8001594543457031,4.163940906524658,3.405437469482422,-3.970624208450317,2.550286054611206,0.0755945742130279
1761132217152883700,1.931529521942139,4.080581188201904,4.413973808288574,-4.144109725952148,2.313881158828736,-0.1375973969697952
1761132217162883800,1.67016339302063,3.849442720413208,6.408738136291504,-3.9547414779663086,1.957746744155884,-0.4607451260089874
1761132217172883700,0.1028096675872802,3.4833827018737797,7.943633079528809,-3.395189046859741,1.568625569343567,-0.6708827614784241
1761132217182883800,-1.4669654369354248,3.109605550765991,7.060564041137695,-2.528982162475586,1.4507286548614502,-0.6177374720573425
1761132217192883700,-2.5488922595977783,3.5939974784851074,4.767636299133301,-1.5900822877883911,1.4354569911956787,-0.4051563739776611
1761132217202883800,-3.3637709617614746,4.61576509475708,2.026300430297852,-0.656069278717041,1.4018594026565552,-0.1345430761575698
1761132217212883000,-3.107570171356201,5.100461959838867,-0.9353046417236328,0.230907067656517,1.2094367742538452,0.1421788930892944
1761132217222882800,-2.7288215160369877,5.343771934509277,-3.658969879150391,0.9914342761039734,0.8386416435241699,0.3346014320850372
1761132217232882700,-2.006210803985596,4.987010002136231,-6.256718635559082,1.6041321754455566,0.4269184470176697,0.4494441151618957
1761132217242882800,-1.3925732374191284,4.63914680480957,-8.845221519470215,1.999361991882324,-0.0562759600579738,0.4818199574947357
1761132217252882700,-0.9676534533500672,4.392002105712891,-10.50877285003662,2.199114799499512,-0.4435645341873169,0.4451680481433868
1761132217262882800,-0.5083047747612,3.870027542114258,-11.69904899597168,2.277305603027344,-0.5724570751190186,0.3743076920509338
1761132217272882700,-0.298221230506897,3.338593006134033,-12.427239418029783,2.2711970806121826,-0.5364160537719727,0.252134621143341
1761132217282882800,-0.2191402912139892,2.9308829307556152,-13.27526569366455,2.199114799499512,-0.397138774394989,0.1104138940572738
1761132217292882700,-0.1335687637329101,2.4733240604400635,-13.965073585510254,2.054950714111328,-0.1454622894525528,-0.0282525178045034
1761132217302882800,-0.1713600158691406,2.003939151763916,-14.296087265014648,1.834428310394287,0.1086576581001281,-0.1693623960018158
1761132217312883700,-0.2791376113891601,1.721483588218689,-14.291548728942873,1.5650367736816406,0.2851977050304413,-0.3165809214115143
1761132217322883600,-0.5572558641433716,1.47490656375885,-14.22719383239746,1.3017538785934448,0.4000403881072998,-0.4619668424129486
1761132217332883700,-0.7767243385314941,1.1439783573150637,-13.791824340820312,1.0403034687042236,0.4006512463092804,-0.5908594131469727
1761132217342883600,-1.0681685209274292,0.807857871055603,-12.766733169555664,0.8045095205307007,0.2906954884529114,-0.7026477456092834
1761132217352883700,-1.3656511306762695,0.4308316707611084,-11.454856872558594,0.5742133259773254,0.0756709352135658,-0.8168795704841614
1761132217362883600,-1.3535645008087158,-0.090635061264038,-10.073209762573242,0.5125159621238708,-0.0471129827201366,-0.8321511745452881
1761132217372883700,-1.3453220129013062,-0.1513499021530151,-10.064693450927734,0.5186246037483215,-0.0678824037313461,-0.8217664957046509
1761132217382883600,-0.8550959229469299,-0.978533923625946,-8.403486251831055,0.5467243790626526,-0.0135153932496905,-0.8199338912963867
1761132217392883700,-0.6153407096862793,-1.2145150899887085,-7.577819347381592,0.5839871764183044,0.0524580515921115,-0.8309294581413269
1761132217402883600,-0.619972825050354,-1.4611918926239014,-6.761628150939941,0.6572909951210022,0.1483639031648636,-0.8578075170516968
1761132217412883000,-0.8609720468521118,-1.937635064125061,-6.095814228057861,0.7617489695549011,0.2027309089899063,-0.8822421431541443
1761132217422882800,-1.5960466861724854,-2.2133233547210693,-5.023564338684082,0.8802568316459656,0.1575268805027008,-0.8736900091171265
1761132217432883000,-2.3827216625213623,-2.257956027984619,-4.064684867858887,1.0299187898635864,0.093386024236679,-0.7991644740104675
1761132217442882800,-3.063643455505371,-2.334649085998535,-2.7924294471740723,1.1575896739959717,-0.0141262589022517,-0.6568328738212585
1761132217452883000,-3.967666149139404,-2.050234794616699,-0.6051063537597656,1.2052371501922607,-0.2438115924596786,-0.4699080884456634
1761132217462882800,-4.841854572296143,-1.7844536304473877,1.7862024307250977,1.2559388875961304,-0.3751476109027862,-0.2127338200807571
1761132217472882700,-5.6214447021484375,-0.8687583208084106,4.4093217849731445,1.2724323272705078,-0.4301255047321319,0.09269879758358
1761132217482882800,-6.032886505126953,1.1366357803344729,6.061061859130859,1.214400053024292,-0.4704425930976867,0.3987422883510589
1761132217492882700,-4.562312126159668,2.620835542678833,6.453800201416016,0.9853256344795228,-0.5852852463722229,0.6620252132415771
1761132217502882800,-2.5467751026153564,4.45497989654541,8.062782287597656,0.3414736688137054,-1.2413545846939087,0.7414376735687256
1761132217512883700,-0.2310479879379272,5.787047386169434,11.51688289642334,-0.598647952079773,-2.2633321285247803,0.5728389024734497
1761132217522883600,1.4684960842132568,5.540768623352051,14.212363243103027,-1.5338826179504397,-3.1185433864593506,0.2386955916881561
1761132217532883700,3.034666061401367,3.90337586402893,15.95810890197754,-2.470339059829712,-3.392822027206421,-0.0221438650041818
1761132217542883600,3.8356971740722656,2.557646989822388,16.951801300048828,-3.428786516189575,-3.016528844833374,-0.1235474944114685
1761132217552883700,5.12633228302002,-0.9031342267990112,17.814136505126953,-4.345695495605469,-1.9792797565460205,-0.1082758679986
1761132217562883600,2.841250419616699,-1.917783260345459,14.519686698913574,-4.927238941192627,-0.2499202489852905,-0.1919644027948379
1761132217572883700,-0.1291310787200927,-1.9621038436889648,8.197976112365723,-5.309030055999756,1.7182875871658323,-0.1736384481191635
1761132217582883600,-1.518239974975586,-2.696312427520752,2.8341989517211914,-6.349944114685059,3.3132567405700684,-0.1247692257165908
1761132217592883700,-2.135765314102173,-4.119776725769043,0.6814327239990234,-7.106195449829102,3.557602882385254,-0.2536617815494537
1761132217602883600,-1.377851486206055,-5.374916076660156,1.9997625350952148,-7.575339794158935,3.167259931564331,-0.4356996417045593
1761132217612883000,-0.1977002620697021,-5.455536842346191,4.520577430725098,-7.571674823760986,2.510579824447632,-0.6427829265594482
1761132217622882800,0.0309221744537353,-4.744962692260742,4.602960586547852,-7.051217555999756,1.944918632507324,-0.8724682927131653
1761132217632883000,-1.7190918922424316,-2.4655795097351074,7.850696563720703,-6.157521724700928,1.31511652469635,-1.0141890048980713
1761132217642882800,-2.816701889038086,-0.2392528057098388,9.365687370300291,-5.053688049316406,0.3823252916336059,-0.94516122341156
1761132217652883000,-4.210036754608154,2.8998420238494877,10.73548412322998,-3.662137031555176,-0.5413029789924622,-0.661719799041748
1761132217662882800,-5.5956315994262695,4.628959655761719,9.888137817382812,-2.001194477081299,-0.9524152874946594,-0.3074179291725158
1761132217672883000,-6.650086879730225,6.103731155395508,7.420517921447754,-0.4379903674125671,-1.3720797300338743,0.1049161031842231
1761132217682882800,-6.964618682861328,6.802059173583984,4.274579048156738,0.8900306820869446,-1.7373771667480469,0.5899431109428406
1761132217692883000,-6.392685890197754,7.126418590545654,1.361589431762695,1.9504927396774288,-2.0373120307922363,1.040150761604309
1761132217702882800,-5.162334442138672,6.7269206047058105,-2.0046019554138184,2.797762870788574,-2.190639019012451,1.399950385093689
1761132217712883700,-3.908403396606445,6.022807121276856,-5.324862480163574,3.419623613357544,-2.070298671722412,1.6467399597167969
1761132217722883800,-2.872186183929444,5.572170257568359,-8.372541427612305,3.72994327545166,-1.7679203748703003,1.7988454103469849
1761132217732883700,-1.8600783348083496,5.497754096984863,-10.268717765808104,3.708562850952149,-1.4569900035858154,1.890475273132324
1761132217742883800,-0.2108855247497558,4.954097270965576,-11.495368003845217,3.5185837745666504,-1.0312168598175049,1.88864266872406
1761132217752883700,0.7424073219299316,4.811890602111816,-12.082727432250977,3.242472648620605,-0.813748836517334,1.7719674110412598
1761132217762883800,0.2825362682342529,4.899053573608398,-11.775033950805664,2.9138271808624268,-0.6500369906425476,1.54472553730011
1761132217772883700,-0.3683314323425293,4.8400726318359375,-11.802846908569336,2.5723536014556885,-0.2596940994262695,1.3144292831420898
1761132217782883800,-0.2489790916442871,4.571628570556641,-11.505678176879885,2.198503971099853,0.2607631087303161,1.1678216457366943
1761132217792883700,0.2537426948547363,4.283000469207764,-11.019824981689451,1.7873916625976562,0.7598400115966797,1.0462594032287598
1761132217802883800,0.5697848796844482,4.251132488250732,-10.139739990234377,1.4043792486190796,1.169730544090271,0.8684976696968079
1761132217812883000,0.7867720127105713,4.1970062255859375,-9.027337074279783,1.0977247953414917,1.2845731973648071,0.6174320578575134
1761132217822882800,0.7138699293136597,3.712686777114868,-7.632286548614502,0.8539896011352539,1.0732139348983765,0.2081523388624191
1761132217832883000,0.419041633605957,3.2833399772644043,-6.186837673187256,0.8295549750328064,0.8227591514587402,-0.0361937656998634
1761132217842882800,-0.2234218120574951,2.7676658630371094,-5.048525333404541,0.9248499870300292,0.6449973583221436,-0.2292271852493286
1761132217852883000,-0.9639490842819214,2.1291956901550293,-4.2346296310424805,1.0965031385421753,0.5216025710105896,-0.34162637591362
1761132217862882800,-1.4873015880584717,1.2424099445343018,-3.5942511558532715,1.289536476135254,0.458683431148529,-0.3636175394058227
1761132217872883000,-1.93977689743042,0.5065913200378418,-2.5628366470336914,1.4850133657455444,0.4788419902324676,-0.3006984293460846
1761132217882882800,-2.324577808380127,0.013833999633789,-1.6893305778503418,1.7134770154953003,0.6480516791343689,-0.1565342247486114
1761132217892883000,-2.634058952331543,-0.4725714921951294,-1.2817974090576172,1.9449949264526367,0.8911760449409485,0.0517708286643028
1761132217902882800,-2.540351867675781,-0.7367392778396606,-0.8538589477539062,2.0891592502593994,0.9791406393051147,0.313832014799118
1761132217912883700,-1.4796358346939087,-0.757917046546936,0.3982458114624023,2.101376533508301,0.7983245253562927,0.556345522403717
1761132217922883800,-0.2811716794967651,-0.3371870219707489,2.023993492126465,2.090380907058716,0.5863542556762695,0.6638578176498413
1761132217932883700,-0.3877862095832824,0.880290150642395,3.946704864501953,2.032959461212158,0.3841578662395477,0.5539020895957947
1761132217942883800,-1.9778430461883545,2.728982925415039,5.687103271484375,1.8002198934555054,-0.0049632801674306,0.3174972236156463
1761132217952883700,-2.625765323638916,3.5335264205932617,7.433770179748535,1.19607412815094,-0.8229118585586548,0.0981965884566307
1761132217962883800,-1.495658278465271,3.125895500183105,11.645918846130373,0.1777617931365966,-1.937130093574524,-0.0123700210824608
1761132217972883700,1.0078532695770264,2.2944931983947754,19.48337745666504,-1.003040790557861,-2.9652161598205566,-0.0838412567973136
1761132217982883600,3.262699604034424,0.7332131266593933,26.74229049682617,-1.7904460430145264,-3.3647220134735107,-0.2438879460096359
1761132217992883700,4.271950721740723,-1.1583906412124634,31.646629333496094,-2.081218004226685,-2.9756009578704834,-0.3233004212379455
1761132218002883600,4.790966987609863,-2.1565921306610107,31.696969985961918,-1.9523253440856931,-1.705612063407898,-0.2157881408929824
1761132218012882700,2.9604852199554443,-0.8270349502563477,27.652515411376957,-1.6670511960983276,0.0121409464627504,-0.1211040318012237
1761132218022882800,1.4242591857910156,0.6353071928024292,21.683048248291016,-1.4208725690841677,1.6217708587646484,0.0413861200213432
1761132218032882700,1.1379344463348389,2.001964807510376,15.73702335357666,-1.3127493858337402,2.505082130432129,0.1953241676092147
1761132218042882800,1.008955955505371,3.479588508605957,11.370474815368652,-1.263269305229187,2.74454116821289,0.1965458989143371
1761132218052882700,-0.0364459753036499,3.863267421722412,8.664105415344238,-1.0989465713500977,2.044489622116089,-0.0612392425537109
1761132218062882800,-1.369598388671875,3.577876329421997,7.719766616821289,-0.7654141783714294,1.1575132608413696,-0.1327104717493057
1761132218072882700,-2.3503260612487797,2.993721008300781,6.686183929443359,-0.1820378452539444,0.3413973152637481,-0.0117591563612222
1761132218082882800,-2.9039697647094727,2.764540195465088,4.4816484451293945,0.5595525503158569,-0.1375210434198379,0.2570215463638305
1761132218092882700,-3.109595537185669,2.90340518951416,1.2073068618774414,1.3115277290344238,-0.3464369475841522,0.6101016402244568
1761132218102882800,-2.665710210800171,3.0802760124206543,-3.0658621788024902,1.954768776893616,-0.4411210715770721,0.9497427344322203
1761132218112883500,-1.5793190002441406,3.37514066696167,-7.652040958404541,2.387261390686035,-0.5810092091560364,1.1812607049942017
1761132218122883600,-0.6203302145004272,3.256455898284912,-10.824809074401855,2.646268129348755,-0.7190647721290588,1.2753338813781738
1761132218132883500,0.097676396369934,2.985946655273437,-13.091733932495115,2.777604341506958,-0.843681275844574,1.2527319192886353
1761132218142883600,0.69324791431427,2.547508001327514,-15.026588439941406,2.8289170265197754,-0.9151524901390076,1.1482739448547363
1761132218152883500,1.05901837348938,2.394425392150879,-16.57084083557129,2.7739391326904297,-0.8937721848487854,0.973566472530365
1761132218162883600,1.1933672428131104,2.11122989654541,-17.67226791381836,2.616335868835449,-0.7752643823623657,0.7451028823852539
1761132218172883700,0.9730417728424072,1.8165128231048584,-18.57146453857422,2.3573288917541504,-0.607276439666748,0.4885394871234894
1761132218182883600,0.7584912776947021,1.463727951049805,-19.023170471191406,2.0109684467315674,-0.3281109929084778,0.2344195395708084
1761132218192883700,0.2644023895263672,0.9407572746276855,-19.004295349121094,1.5919147729873655,0.00664315931499,-0.0056505035609006
1761132218202883600,-0.283145546913147,0.6683261394500732,-18.39967918395996,1.147204875946045,0.3267365396022796,-0.2176207453012466
1761132218212882700,-0.4497327804565429,0.4862321615219116,-17.572803497314453,0.7373143434524536,0.544204592704773,-0.3966042697429657
1761132218222882800,-0.5277659893035889,0.178775668144226,-16.466964721679688,0.3885102868080139,0.5900194644927979,-0.5884159207344055
1761132218232882700,-0.6981972455978394,-0.1042746305465698,-15.288800239562988,0.1258382350206375,0.4428009390830993,-0.8016079068183899
1761132218242882600,-1.1869760751724243,-0.5339995622634888,-14.052142143249512,-0.0769690200686454,0.1385900527238845,-1.0227410793304443
1761132218252882700,-1.817264199256897,-1.0370800495147705,-12.45455837249756,-0.230907067656517,-0.2248747646808624,-1.201724648475647
1761132218262882600,-2.411210775375366,-1.7371560335159302,-10.611266136169434,-0.3182607889175415,-0.540081262588501,-1.2915217876434326
1761132218272882700,-2.913413524627685,-2.344639539718628,-8.631972312927246,-0.3335324227809906,-0.7483862638473511,-1.2848023176193235
1761132218282882800,-3.090644836425781,-2.9199256896972656,-6.883351802825928,-0.1795943826436996,-0.7147886753082275,-1.127810001373291
1761132218292882700,-2.8989882469177246,-3.251004695892334,-5.893430709838867,-0.0012217304902151,-0.5095379948616028,-0.9879218339920044
1761132218302882800,-2.645073413848877,-3.412112236022949,-5.466567516326904,0.1912008225917816,-0.2401463985443115,-0.8755226135253906
1761132218312883700,-2.3964953422546387,-3.5987398624420166,-5.0676350593566895,0.3323107063770294,-0.0067958757281303,-0.7759515643119812
1761132218322883600,-2.153994560241699,-3.542709827423096,-4.34462308883667,0.4245513379573822,0.1245401501655578,-0.697760820388794
1761132218332883700,-2.0560457706451416,-3.3379647731781006,-3.3399534225463867,0.5112941861152649,0.1648572534322738,-0.6433938145637512
1761132218342883600,-2.3956284523010254,-3.1161015033721924,-1.919762134552002,0.5913175344467163,0.0909425616264343,-0.6055201888084412
1761132218352883700,-3.3243393898010254,-3.350879192352295,-0.4074182510375976,0.6481280326843262,-0.0574976913630962,-0.5175555944442749
1761132218362883600,-4.4145612716674805,-3.38317346572876,1.5907506942749023,0.6279694437980652,-0.2151009291410446,-0.289702832698822
1761132218372883700,-4.789383411407471,-2.46814489364624,4.367679595947266,0.4966334402561188,-0.3305544555187225,0.0878118798136711
1761132218382883600,-3.8430216312408447,-1.1575322151184082,7.726245880126953,0.2932153046131134,-0.3800345361232757,0.4634940028190613
1761132218392883700,-2.285396099090576,0.6249880790710449,11.669848442077637,0.0287106670439243,-0.5535202622413635,0.727998673915863
1761132218402883600,0.0206997394561767,2.23925518989563,15.811779022216797,-0.2620611786842346,-0.9499717950820924,0.8361217975616455
1761132218412883000,1.7347238063812256,2.8875491619110107,20.7053337097168,-0.6035348773002625,-1.5657240152359009,0.7518224120140076
1761132218422882800,2.4391350746154785,4.018770217895508,25.496620178222656,-0.8301658630371094,-2.274327754974365,0.517861008644104
1761132218432883000,2.938796043395996,5.06341552734375,27.77527618408203,-0.8197811841964722,-2.426433086395264,0.2625193297863006
1761132218442882800,2.2484076023101807,6.132134437561035,26.28843688964844,-0.7941248416900635,-1.7532596588134766,0.0664315968751907
1761132218452883000,0.439371109008789,7.279205322265625,23.221893310546875,-1.0384708642959597,-0.4398993253707886,0.020616702735424
1761132218462882800,0.5185470581054688,8.423201560974121,20.65015983581543,-1.539380431175232,0.9473756551742554,0.2270891517400741
1761132218472882700,1.8388051986694336,9.054486274719238,19.52768325805664,-2.014022827148437,1.9070448875427248,0.3987422883510589
1761132218482882800,2.539792537689209,9.01225471496582,17.25790786743164,-2.2156083583831787,2.395737171173096,0.3199406862258911
1761132218492882700,3.0024783611297607,8.906417846679688,13.583863258361816,-2.191173553466797,2.560670852661133,0.1049161031842231
1761132218502882800,3.2589213848114014,8.708194732666016,9.447348594665527,-2.121535062789917,2.491032123565674,-0.2066251635551452
1761132218512883700,2.379321813583374,7.87802791595459,6.180810928344727,-2.059226751327514,2.4177281856536865,-0.8229882121086121
1761132218522883600,-0.4513677358627319,6.481235504150391,5.418574333190918,-1.954768776893616,2.307161569595337,-1.1100949048995972
1761132218532883700,-2.665744543075561,5.127691268920898,4.61528205871582,-1.5632041692733765,2.2692880630493164,-1.0441213846206665
1761132218542883600,-3.527238368988037,4.494863033294678,2.863229751586914,-0.9590584635734558,2.15139102935791,-0.7185302376747131
1761132218552883700,-3.315008640289306,4.5789055824279785,2.8315677642822266,-0.2345722615718841,1.7195093631744385,-0.3306308090686798
1761132218562883600,-3.0744032859802246,4.188468456268311,-2.316298007965088,0.5357288122177124,0.9632581472396852,0.0554360225796699
1761132218572883700,-2.135545492172241,3.624389171600342,-5.555642604827881,1.2571606636047363,0.0658970847725868,0.3736968040466308
1761132218582883600,-1.419914484024048,2.91857385635376,-8.059006690979004,1.882075786590576,-0.720897376537323,0.6113234162330627
1761132218592883700,-0.6657416820526123,2.099318265914917,-10.235459327697754,2.3878722190856934,-1.300608515739441,0.7835873961448669
1761132218602883600,0.1900465488433838,1.4397578239440918,-12.21270751953125,2.7452285289764404,-1.6292539834976196,0.879493236541748
1761132218612882700,1.1712257862091064,0.668475866317749,-13.88149070739746,2.950479030609131,-1.6671276092529297,0.8746063113212585
1761132218622882800,1.8992042541503904,0.0303280353546142,-15.377527236938477,2.986520290374756,-1.4551573991775513,0.7518224120140076
1761132218632882700,2.238762855529785,-0.4421480894088745,-16.874717712402344,2.867401361465454,-1.0348820686340332,0.5581781268119812
1761132218642882800,2.3215789794921875,-0.7429913282394409,-17.83489990234375,2.604729413986206,-0.5266422033309937,0.3144428730010986
1761132218652882700,2.059355497360229,-1.128644347190857,-18.416019439697266,2.2351558208465576,-0.045280385762453,0.0297796800732612
1761132218662882800,0.8812576532363892,-1.550154447555542,-18.527179718017575,1.7861700057983398,0.3652210533618927,-0.2701551616191864
1761132218672882700,0.768949031829834,-1.881413459777832,-17.829200744628906,1.29075825214386,0.6596581339836121,-0.5053382515907288
1761132218682882800,0.4919078350067138,-2.4213614463806152,-16.627239227294922,0.8087855577468872,0.8221482634544373,-0.7386888265609741
1761132218692882700,-0.6608982086181641,-2.824035406112671,-15.054080963134766,0.394618958234787,0.8410850763320923,-0.9909761548042296
1761132218702882800,-1.282235860824585,-3.184211492538452,-13.402929306030272,0.058643065392971,0.7653377652168274,-1.1711814403533936
1761132218712883500,-1.7540528774261477,-3.7613601684570312,-11.676055908203123,-0.1765400618314743,0.6144540905952454,-1.2805262804031372
1761132218722883600,-2.420773983001709,-4.168554306030273,-9.910284042358398,-0.2932153046131134,0.3969860374927521,-1.352608323097229
1761132218732883500,-3.014544725418091,-4.514360904693604,-8.190290451049805,-0.2907718420028686,0.1312596648931503,-1.3483322858810425
1761132218742883600,-3.147221565246582,-4.892997741699219,-6.926582336425781,-0.0739146918058395,-0.2554180324077606,-1.1888965368270874
1761132218752883500,-3.0212597846984863,-5.126747131347656,-5.891620635986328,0.1325577646493911,-0.4551709592342376,-1.04289972782135
1761132218762883600,-2.5588138103485107,-5.299077987670898,-5.53551197052002,0.3390302062034607,-0.5535202622413635,-0.8999572396278381
1761132218772883700,-2.1811819076538086,-5.302373886108398,-5.5574951171875,0.5057964324951172,-0.4875468313694,-0.8052731156349182
1761132218782883600,-2.3552043437957764,-5.097487449645996,-5.81193733215332,0.588874101638794,-0.3195588886737823,-0.7423539757728577
1761132218792883700,-2.919689655303955,-4.731966495513916,-5.828373908996582,0.5607742667198181,-0.1760055422782898,-0.6611089110374451
1761132218802883600,-4.05476188659668,-4.101817607879639,-4.93242073059082,0.4166100919246673,-0.15462526679039,-0.5071708559989929
1761132218812883000,-4.663300037384033,-3.3319907188415527,-3.001657009124756,0.209526777267456,-0.2627484202384949,-0.2579378485679626
1761132218822882800,-4.590525627136231,-2.164340019226074,-0.6311378479003906,-0.0024434609804302,-0.4179081916809082,0.0096211275085806
1761132218832883000,-4.47597074508667,-0.4162383079528808,1.334634780883789,-0.2486221492290496,-0.5376377701759338,0.1996002197265625
1761132218842882800,-4.54849910736084,1.5459675788879397,3.5000457763671875,-0.6798930168151855,-0.6836345791816711,0.2997821271419525
1761132218852883000,-3.655956745147705,3.4082963466644287,7.165144920349121,-1.3347405195236206,-0.9218720197677612,0.3578143119812011
1761132218862882800,-1.8699958324432373,4.951089859008789,13.292309761047363,-2.1117610931396484,-1.3048845529556274,0.3174972236156463
1761132218872883000,-1.051508903503418,5.5175886154174805,19.795391082763672,-2.8270843029022217,-1.705612063407898,0.1214094683527946
1761132218882882800,-0.0208195447921752,5.142841815948486,26.56645965576172,-3.362813234329224,-2.013488292694092,-0.0752891451120376
1761132218892883000,0.4969898462295532,4.337184906005859,32.5127067565918,-3.644422054290772,-1.9731711149215696,-0.2231185287237167
1761132218902882800,0.6255462169647217,3.3909709453582764,35.651634216308594,-3.619376659393311,-1.3042736053466797,-0.2469422817230224
1761132218912883700,0.5191295146942139,3.6734561920166016,33.679588317871094,-3.271183490753174,0.0567341111600399,-0.1632537394762039
1761132218922883800,0.5220088958740234,5.168834209442139,27.646469116210938,-2.9046642780303955,1.4226287603378296,-0.0923933684825897
1761132218932883700,0.0980091094970703,5.778098106384277,21.50177383422852,-2.674368143081665,2.3786330223083496,-0.1852448880672454
1761132218942883800,-1.0518131256103516,6.198016166687012,16.727624893188477,-2.569910049438477,2.938796281814575,-0.3776674270629883
1761132218952883700,-2.660062074661255,5.627650260925293,14.526030540466309,-2.498438835144043,3.032869577407837,-0.5737552046775818
1761132218962883800,-4.2145161628723145,4.578279972076416,13.604877471923828,-2.252260208129883,2.759812831878662,-0.661719799041748
1761132218972883700,-5.110649585723877,3.949837923049927,11.880119323730469,-1.274264931678772,2.075032949447632,-0.3526219725608825
1761132218982883800,-5.736736297607422,3.771897554397583,8.651273727416992,-0.4013384580612182,1.5747342109680176,0.0652098655700683
1761132218992883700,-5.4865899085998535,3.756544351577759,5.257514953613281,0.4923573732376098,1.0530552864074707,0.5960517525672913
1761132219002883800,-3.977579355239868,3.718968629837036,1.5444831848144531,1.3310753107070925,0.5368741750717163,1.147663116455078
1761132219012883000,-2.1077780723571777,3.6110763549804688,-2.1117868423461914,2.074498414993286,0.0255799815058708,1.5575536489486694
1761132219022882800,-0.1564458608627319,3.379381895065308,-5.848691463470459,2.688417911529541,-0.4796055853366852,1.7799086570739746
1761132219032883000,1.477738380432129,3.139564752578736,-9.33155918121338,3.11785626411438,-0.9548587203025818,1.808619260787964
1761132219042882800,2.442816972732544,2.7856736183166504,-12.860960006713867,3.3267722129821777,-1.2890020608901978,1.665065884590149
1761132219052883000,2.155362129211426,2.499904155731201,-15.360546112060549,3.3035593032836914,-1.3335951566696167,1.4384349584579468
1761132219062882800,1.4002645015716553,2.1460862159729004,-16.565454483032227,3.05493712425232,-1.0923033952713013,1.2466232776641846
1761132219072883000,2.067950963973999,0.2743986845016479,-17.423641204833984,2.6841418743133545,-0.6927975416183472,1.1146763563156128
1761132219082882800,1.6268194913864136,-0.3989425897598266,-17.03879165649414,2.244929790496826,-0.283517837524414,0.9094256162643432
1761132219092883000,0.6018588542938232,0.027531623840332,-15.62694263458252,1.8771889209747317,0.0530689172446727,0.7469354867935181
1761132219102882800,0.7026246786117554,-0.5221201181411743,-14.812052726745604,1.6646077632904053,0.2796999216079712,0.6766859889030457
1761132219112883700,1.167628288269043,-1.2481575012207031,-14.485595703125,1.5558737516403198,0.4006512463092804,0.5752823352813721
1761132219122883600,1.0182164907455444,-1.5289157629013062,-14.529581069946287,1.4721852540969849,0.4250858426094055,0.3962988257408142
1761132219132883700,0.5828984975814819,-1.6406842470169067,-14.602599143981934,1.3555099964141846,0.3701079785823822,0.1971567571163177
1761132219142883600,0.1880892515182495,-1.9277317523956297,-14.673879623413086,1.1832460165023804,0.2558761835098266,0.0059559359215199
1761132219152883700,-0.3485428094863891,-2.3512778282165527,-14.56772804260254,0.9529497623443604,0.1349248588085174,-0.1791362315416336
1761132219162883600,-0.9626795053482056,-2.743147611618042,-14.006048202514648,0.6701191663742065,0.0610101670026779,-0.3440698385238647
1761132219182883600,-1.483351469039917,-3.3544952869415283,-11.592281341552734,0.0995710343122482,-0.0086284717544913,-0.5474879741668701
1761132219192883700,-1.4666661024093628,-3.3692309856414795,-11.589016914367676,-0.0781907513737678,0.0164170041680336,-0.6262896060943604
1761132219202883600,-2.017354965209961,-3.933263301849365,-8.670757293701172,-0.1655444800853729,0.0200821943581104,-0.6757696866989136
1761132219212883000,-2.16871190071106,-4.343568325042725,-6.780021667480469,-0.0842994004487991,-0.092927873134613,-0.6696610450744629
1761132219222882800,-2.2541093826293945,-4.52892017364502,-5.503318786621094,0.1472185254096985,-0.1692860275506973,-0.613461434841156
1761132219232883000,-2.3123738765716557,-4.5865912437438965,-5.046907424926758,0.4819726645946502,-0.183335930109024,-0.5248859524726868
1761132219242882800,-2.386523723602295,-4.439609050750732,-5.376773834228516,0.8032878041267395,-0.1521818041801452,-0.4210388660430908
1761132219252883000,-2.8798341751098637,-4.050531387329102,-5.473379135131836,1.0140362977981567,-0.1308015137910843,-0.3135266005992889
1761132219262882800,-3.886773109436035,-3.380192756652832,-4.722005844116211,1.1136072874069214,-0.2364812046289444,-0.1711949855089187
1761132219272883000,-5.848868370056152,-1.9391077756881716,-3.804428577423096,1.1129964590072632,-0.3885866403579712,0.0468839071691036
1761132219282882800,-7.317842483520508,-0.2512006759643554,-2.044121742248535,0.8717046976089478,-0.6023895144462585,0.3443752825260162
1761132219292883000,-7.320277214050293,1.8813345432281492,1.7745180130004885,0.37079519033432,-0.9432523250579834,0.6944010853767395
1761132219302882800,-4.823448657989502,4.127817153930664,7.787065505981445,-0.1857030391693115,-1.3671927452087402,1.0126618146896362
1761132219312883700,-0.8611463308334351,6.060608863830566,14.896124839782717,-0.6395758986473083,-1.857106685638428,1.087798237800598
1761132219322883600,2.3727235794067383,7.057505130767822,20.11514663696289,-0.8723155856132507,-1.9731711149215696,0.782976508140564
1761132219332883700,3.2547430992126465,7.912385940551758,22.500755310058597,-1.0610729455947876,-1.7373771667480469,0.244804248213768
1761132219342883600,2.5846762657165527,8.148611068725586,22.94306182861328,-1.4703526496887207,-1.281060814857483,-0.2579378485679626
1761132219352883700,1.573117971420288,7.4474592208862305,23.93122100830078,-2.149634838104248,-0.7276168465614319,-0.6415612101554871
1761132219362883600,0.1537754535675048,5.904860973358154,25.04750061035156,-2.8368582725524902,0.1673007160425186,-0.8822421431541443
1761132219372883700,-1.3510751724243164,4.1557159423828125,25.504865646362305,-3.308446168899536,1.3212251663208008,-0.9482156038284302
1761132219382883800,-1.2033331394195557,4.442070960998535,25.38835906982422,-3.4403929710388184,2.3670265674591064,-0.8962920308113098
1761132219392883700,-4.290809154510498,3.6030683517456055,21.285694122314453,-3.288898468017578,3.0145435333251958,-0.7783950567245483
1761132219402883600,-4.819925308227539,3.868965148925781,18.235389709472656,-2.986520290374756,3.1544318199157715,-0.6079636216163635
1761132219412883000,-4.9644880294799805,3.967717409133911,15.344311714172363,-2.56563401222229,2.8917596340179443,-0.4051563739776611
1761132219422882800,-4.751203536987305,3.979180097579956,12.354662895202637,-2.025018215179444,2.3865742683410645,-0.1656972020864486
1761132219432883000,-3.959840297698975,4.145636081695557,9.039408683776855,-1.3946053981781006,1.768378496170044,0.1440114825963974
1761132219442882800,-2.693112850189209,4.34644889831543,5.117584228515625,-0.4471533596515655,0.8557458519935608,0.6302602291107178
1761132219452883000,-2.616872787475586,4.391768455505371,5.110164642333984,0.1123992055654525,0.4580725729465484,0.9027060866355896
1761132219462882800,-0.7793793678283691,4.076374053955078,-1.8785943984985352,0.5613851547241211,0.2485457956790924,1.1232284307479858
1761132219472883000,-0.2124821990728378,3.8803184032440186,-4.882528781890869,0.9138544201850892,0.1495856195688247,1.296714186668396
1761132219482882800,0.5118930339813232,3.810701370239258,-7.388113498687744,1.1704177856445312,0.0781143903732299,1.4353805780410769
1761132219492883000,1.1615668535232544,3.6471991539001465,-9.362590789794922,1.350012183189392,-0.0061850105412304,1.4952454566955566
1761132219502882800,1.6400710344314575,3.2822093963623047,-10.916357040405272,1.4636331796646118,-0.1008691266179084,1.4885258674621582
1761132219512883700,1.892051100730896,2.902395248413086,-11.760034561157228,1.5338826179504397,-0.1986075639724731,1.4555391073226929
1761132219522883600,2.066498041152954,2.520097017288208,-12.3659086227417,1.576032280921936,-0.3110067546367645,1.404226541519165
1761132219532883700,2.082366466522217,2.057075023651123,-12.922239303588867,1.5839735269546509,-0.4246276915073395,1.3180944919586182
1761132219542883600,1.9123214483261108,1.8696496486663816,-12.917604446411133,1.5601497888565063,-0.4093560576438904,1.1983648538589478
1761132219552883700,2.237753868103028,1.8002943992614746,-12.810419082641602,1.519832730293274,-0.397138774394989,1.1024590730667114
1761132219562883600,2.5482215881347656,0.8688912391662598,-13.211715698242188,1.4654656648635864,-0.3916409909725189,0.9790642857551576
1761132219572883700,2.5807454586029053,0.4052691459655761,-13.281654357910156,1.3365731239318848,-0.3323870599269867,0.7878634333610535
1761132219582883600,2.4933407306671143,0.4492697715759277,-12.716315269470217,1.141707181930542,-0.2389246672391891,0.5826127529144287
1761132219592883700,2.567858457565308,0.4798917770385742,-11.944467544555664,0.9511171579360962,-0.1509600728750229,0.3761402666568756
1761132219602883600,2.658249616622925,0.3047690391540527,-11.414374351501465,0.8246681094169617,-0.0587194226682186,0.1482875347137451
1761132219612882700,2.6485393047332764,0.2286834716796875,-11.390530586242676,0.7446447610855103,-0.0104610677808523,-0.1198823079466819
1761132219622882800,2.6750144958496094,-0.3971662521362304,-9.939435005187988,0.6572909951210022,-0.0678824037313461,-0.4442517459392547
1761132219632882700,1.5853779315948486,-0.7776944637298584,-8.427763938903809,0.6304129362106323,-0.1821141988039016,-0.7820602059364319
1761132219642882800,0.632185697555542,-1.4716671705245972,-7.626737594604492,0.7018841505050659,-0.4899902939796448,-1.0545061826705933
1761132219652882700,-0.5631558895111084,-1.917940616607666,-6.097753524780273,0.7874053120613098,-0.5443572998046875,-1.3232868909835815
1761132219662882800,-1.3828896284103394,-2.24236273765564,-5.798050880432129,1.0531316995620728,-0.8113054037094116,-1.40269935131073
1761132219672882700,-2.764242172241211,-2.067487955093384,-5.93924617767334,1.3555099964141846,-1.2737303972244265,-1.5065463781356812
1761132219682882800,-1.9652810096740725,-2.859827041625977,-5.509285926818848,1.55892813205719,-1.4832571744918823,-1.621999979019165
1761132219692883000,-0.1056848168373107,-4.3901686668396,-3.982494354248047,1.7079792022705078,-2.136883020401001,-1.811979055404663
1761132219702882800,-0.2478525042533874,-3.910779237747192,-2.4040846824646,1.7733417749404907,-3.4636824131011963,-2.080148935317993
1761132219712883700,-2.549337148666382,-2.1490159034729004,-0.2957992553710937,1.8460347652435305,-4.77826452255249,-2.275014877319336
1761132219722883600,-2.1034984588623047,-2.1956233978271484,1.1314125061035156,2.0323486328125,-5.288947582244873,-2.419790029525757
1761132219732883700,-1.1084773540496826,-2.548125743865967,1.922972679138184,2.2742512226104736,-5.199761390686035,-2.618932008743286
1761132219742883600,-2.503816604614258,-2.4074862003326416,0.0095710754394531,2.41413950920105,-4.299956798553467,-2.6946792602539062
1761132219752883700,-5.532284259796143,-0.2257590293884277,0.4788026809692383,1.9083430767059328,-2.762408971786499,-2.0636556148529053
1761132219762883600,-4.939632892608643,0.5333995819091797,-2.931891441345215,1.003040790557861,-2.000049114227295,-1.0404561758041382
1761132219772883700,-3.123603582382202,1.415252685546875,-2.47476577758789,-0.3463605940341949,-1.2676217555999756,-0.2157881408929824
1761132219782883600,-1.073655366897583,0.880974292755127,-0.6573486328125,-1.7519614696502686,-1.270065188407898,0.1146899461746215
1761132219792883700,1.1143715381622314,-1.1739521026611328,2.693648338317871,-2.9975156784057617,-1.6561319828033447,0.0560468845069408
1761132219802883600,2.405153751373291,-2.356757164001465,7.005323886871338,-4.027434349060059,-2.0580813884735107,-0.155312493443489
1761132219812883000,2.976829290390014,-2.295757532119751,11.15921401977539,-4.687169075012207,-2.1991913318634038,-0.3324634134769439
1761132219822882800,3.233773946762085,-1.4995019435882568,12.982260704040527,-4.867985248565674,-1.9200258255004885,-0.493731826543808
1761132219832883000,3.1202645301818848,-1.2562601566314695,13.067386627197266,-4.696331977844238,-1.2676217555999756,-0.6855435371398926
1761132219842882800,1.5726511478424072,-1.385558843612671,12.26063346862793,-4.233907222747803,-0.3262783885002136,-0.9695958495140076
1761132219852883000,1.575864553451538,-1.0586426258087158,12.136564254760742,-3.5949418544769287,0.4904484450817108,-1.1913399696350098
1761132219862882800,-4.459667205810547,-0.0447843074798584,9.75446891784668,-2.9162707328796387,0.8239808678627014,-1.1015427112579346
1761132219872883000,-5.64603328704834,0.6831405162811279,8.716898918151855,-2.3133466243743896,0.5674174427986145,-0.6800457239151001
1761132219882882800,-5.215019702911377,1.222154140472412,8.070911407470703,-1.8154915571212769,-0.1155298873782157,-0.085062988102436
1761132219892883000,-2.7621302604675293,1.6375913619995115,7.791300773620605,-1.368949055671692,-0.7612144351005554,0.4934264123439789
1761132219902882800,-0.4514222145080566,1.9348304271698,7.787727355957031,-0.6475171446800232,-0.9505826830863952,0.8776606321334839
1761132219912883700,0.0107867717742919,1.9633948802948,6.88348388671875,-0.1331686228513717,-0.539470374584198,0.8629998564720154
1761132219922883800,-0.6696105003356934,2.6261327266693115,4.75457763671875,0.3213151097297668,0.2363284975290298,0.7958046793937683
1761132219932883700,-2.1939120292663574,2.3674979209899902,2.293490409851074,0.513126790523529,0.867352306842804,0.8904888033866882
1761132219942883800,-2.5552542209625244,2.0421481132507324,-0.0401649475097656,0.6224716901779175,1.3517683744430542,0.956462264060974
1761132219952883700,-2.323748588562012,2.939348697662353,-2.133943557739258,0.646906316280365,1.5820646286010742,0.982729434967041
1761132219962883800,-1.971232295036316,3.886291980743408,-2.516670227050781,0.5583308339118958,1.586951494216919,0.9130908250808716
1761132219972883700,-1.5374447107315063,3.774496078491211,-2.0181751251220703,0.4691445231437683,1.3383294343948364,0.7603744864463806
1761132219982883800,-1.4674752950668335,2.565502882003784,-1.3848795890808103,0.4221078753471374,0.9938014149665833,0.5655084848403931
1761132219992883700,-1.8507930040359497,1.9696686267852783,-0.7479524612426758,0.452040284872055,0.9540951251983644,0.3761402666568756
1761132220002883800,-2.252880811691284,1.537344217300415,-0.6159067153930664,0.5571091175079346,1.2161563634872437,0.275958389043808
1761132220012883000,-2.829944610595703,1.1878864765167236,-0.9094762802124025,0.6536257863044739,1.6700291633605957,0.2435825169086456
1761132220022882800,-3.777113437652588,1.202286958694458,-1.7598752975463867,0.6530149579048157,2.195984125137329,0.2918408811092376
1761132220032883000,-4.593917846679688,1.5824410915374756,-2.1824121475219727,0.5283984541893005,2.6626851558685303,0.4335615932941437
1761132220042882800,-4.8422040939331055,1.6933839321136477,-2.4817519187927246,0.3378084897994995,2.9198594093322754,0.6113234162330627
1761132220052883000,-4.68432092666626,1.7578041553497314,-2.352782249450684,0.1295034289360046,2.836781740188598,0.7402159571647644
1761132220062882800,-4.097123146057129,1.769951343536377,-1.8603739738464355,-0.0720821022987365,2.360306978225708,0.7939720749855042
1761132220072883000,-2.8755311965942383,1.6261470317840576,-1.028090476989746,-0.2492330223321914,1.6559792757034302,0.7634288668632507
1761132220082882800,-1.2348268032073977,1.2432453632354736,0.0011053085327148,-0.3597996234893799,0.8917868733406067,0.6498079299926758
1761132220092883000,-0.3133610486984253,0.7764413356781006,1.0710086822509766,-0.3958406746387481,0.2564870417118072,0.4445571899414062
1761132220102882800,0.2027648687362671,0.2698657512664795,2.445840835571289,-0.3451388776302337,-0.0746019184589386,0.2209804952144622
1761132220112883700,0.2080103158950805,-0.1043813228607177,3.385661125183105,-0.1875356286764145,-0.1497383415699005,0.032223142683506
1761132220122883600,-0.0591554641723632,-0.4894108772277832,3.249669075012207,0.0647517144680023,0.0170278679579496,-0.0905607715249061
1761132220132883700,-0.828219473361969,-0.5162960290908813,2.5972461700439453,0.4386012554168701,0.5301546454429626,-0.1547016203403473
1761132220142883600,-1.9046399593353271,-0.2844564914703369,1.087132453918457,0.5937610268592834,0.7683921456336975,-0.1125519201159477
1761132220152883700,-2.540396213531494,0.0027387142181396,-0.4313259124755859,0.6249151229858398,0.9253844618797302,-0.0025961773935705
1761132220162883600,-2.613729476928711,0.3695206642150879,-1.478309154510498,0.5613851547241211,1.010905623435974,0.1201877370476722
1761132220172849400,-2.5171356201171875,0.6448554992675781,-1.923387050628662,0.5064072608947754,1.0139600038528442,0.1678352206945419
1761132220182816300,-2.359959363937378,0.785677433013916,-2.114748954772949,0.3274237811565399,0.9663124680519104,0.2374738603830337
1761132220192782800,-2.27679181098938,0.797091007232666,-1.913507461547852,0.2223549485206604,0.9082802534103394,0.2509129047393799
1761132220202749400,-2.3195667266845703,0.7276279926300049,-1.4882006645202637,0.1569923609495163,0.8001571297645569,0.2588541507720947
1761132220212715300,-2.3766181468963623,0.595034122467041,-1.204240798950195,0.1350012123584747,0.6572146415710449,0.2735149264335632
1761132220222681900,-2.3165950775146484,0.5820074081420898,-1.204362869262695,0.1502728462219238,0.5503132343292236,0.3101668357849121
1761132220232648700,-1.8534787893295288,0.6034739017486572,-0.7410659790039062,0.1930334120988845,0.4721224904060364,0.346818745136261
1761132220242615300,-1.681084156036377,0.6974589824676514,-0.6782369613647461,0.2266310006380081,0.4195880591869354,0.3718642294406891
1761132220252582000,-1.4878110885620115,0.7521564960479736,-0.5757417678833008,0.2449569702148437,0.3768275082111358,0.3999640047550201
1761132220262548500,-1.330133080482483,0.7330543994903564,-0.6327533721923828,0.2761110961437225,0.3377321362495422,0.4280638098716736
1761132220272515300,-1.1385269165039062,0.8329253196716309,-0.8274374008178711,0.3213151097297668,0.3084105849266052,0.4506658315658569
1761132220282482000,-0.7782520055770874,0.9858322143554688,-1.1738243103027344,0.3591887652873993,0.2803107798099518,0.4543310403823852
1761132220292448500,-0.4360457360744476,1.1303107738494873,-1.6074752807617188,0.3640756905078888,0.2619848251342773,0.4292855560779571
1761132220302415400,-0.2161164134740829,1.2816367149353027,-1.8133234977722168,0.3237585723400116,0.2644282877445221,0.3645338416099548
1761132220312382700,-0.3883386552333832,1.2191641330718994,-1.766420841217041,0.2412917762994766,0.2540435791015625,0.275958389043808
1761132220322349300,-0.8090682625770569,0.9923491477966307,-1.456005573272705,0.1380555480718612,0.2326633036136627,0.1824959963560104
1761132220332316200,-1.2223505973815918,0.677056074142456,-1.134016990661621,0.0592539273202419,0.2027309089899063,0.1067487001419067
1761132220342282800,-1.605147361755371,0.5293395519256592,-0.9266185760498048,0.0323758572340011,0.2228894531726837,0.0731511116027832
1761132220352249300,-1.8387329578399656,0.575423002243042,-0.8109064102172852,0.0268780700862407,0.2711478173732757,0.0890336111187934
1761132220362216200,-1.919223070144653,0.6767816543579102,-0.8509273529052734,0.0299323964864015,0.31635183095932,0.140957161784172
1761132220372182800,-1.8910243511199951,0.6723222732543945,-0.8500900268554688,0.0360410511493682,0.3450624942779541,0.2136501222848892
1761132220382149600,-1.4403562545776367,0.8562707901000977,-0.6622123718261719,0.0488692186772823,0.3132975101470947,0.2729040384292602
1761132220392116200,-1.127796292304993,0.8661520481109619,-0.3372259140014648,0.0800233483314514,0.1807397603988647,0.2814561724662781
1761132220402082800,-0.853359580039978,0.8652052879333496,-0.1929311752319336,0.1417207419872284,0.0255799815058708,0.2539672255516052
1761132220412048600,-0.6277638077735901,0.8935625553131104,-0.1829681396484375,0.2272418737411499,-0.0562759600579738,0.2099849283695221
1761132220422015200,-0.4558479189872741,1.0161247253417969,-0.3402338027954101,0.323147714138031,-0.061162881553173,0.1232420653104782
1761132220431981800,-0.5115300416946411,1.1122500896453855,-0.6069679260253906,0.3304781019687652,-0.0355065427720546,0.0645989999175071
1761132220441948700,-0.6686464548110962,1.1473987102508545,-0.8373241424560547,0.3023782968521118,-0.0269544292241334,0.015118914656341
1761132220451915300,-0.8598370552062988,1.125230312347412,-0.8504772186279297,0.2486221492290496,-0.0501673072576522,-0.019089538604021
1761132220461881900,-0.9733947515487672,1.0817770957946775,-0.7166690826416016,0.1850921660661697,-0.0935387387871742,-0.0325285755097866
1761132220471882800,-1.0163164138793943,0.969968318939209,-0.3332433700561523,0.1276708394289016,-0.12286027520895,-0.0233655963093042
1761132220481882600,-0.8222157955169678,0.8919005393981934,0.0342626571655273,0.107512280344963,-0.1185842156410217,-0.0123700210824608
1761132220491882800,-0.6918057203292847,0.8892693519592285,0.1859235763549804,0.119118720293045,-0.1191950812935829,-0.026419922709465
1761132220501882600,-0.6774479746818542,0.8919694423675537,0.2232990264892578,0.1496619880199432,-0.1185842156410217,-0.0478002056479454
1761132220511883500,-0.6453503370285034,0.8821256160736084,0.0534019470214843,0.1936442852020263,-0.1326341181993484,-0.0697913542389869
1761132220521883600,-0.6456731557846069,0.8329718112945557,-0.2086553573608398,0.2278527319431305,-0.143018826842308,-0.0905607715249061
1761132220531883500,-0.65129154920578,0.8789970874786377,-0.3235683441162109,0.2388483136892318,-0.1460731476545334,-0.1119410544633865
1761132220541883600,-0.6637106537818909,0.8569595813751221,-0.2536811828613281,0.2247984111309051,-0.1503492146730423,-0.1412625908851623
1761132220551883500,-0.7522931694984436,0.6998486518859863,-0.2057294845581054,0.2144137024879455,-0.1173624843358993,-0.1730275750160217
1761132220561883600,-0.9205156564712524,0.5511548519134521,-0.4287118911743164,0.2247984111309051,-0.0318413525819778,-0.1889100819826126
1761132220571883800,-1.2401676177978516,0.6218435764312744,-0.7351913452148438,0.2302961945533752,0.0536797828972339,-0.1779145002365112
1761132220581883600,-1.3291486501693726,0.728173017501831,-0.9697141647338868,0.2174680233001709,0.0805578529834747,-0.1412625908851623
1761132220591883800,-1.1799020767211914,0.7594947814941406,-1.1041383743286133,0.1893682330846786,0.0329103656113147,-0.1119410544633865
1761132220601883600,-1.0486146211624146,0.7531812191009521,-1.040802001953125,0.1661553531885147,-0.0391717329621315,-0.105221539735794
1761132220611882800,-0.987119197845459,0.7327044010162354,-0.889714241027832,0.1606575548648834,-0.0972039327025413,-0.1143845170736312
1761132220621883000,-1.0985773801803589,0.6555025577545166,-0.8393802642822266,0.1728748679161071,-0.1411862224340438,-0.1314887404441833
1761132220631882800,-1.1394145488739014,0.6493322849273682,-0.901214599609375,0.1942551434040069,-0.1643991023302078,-0.1388191282749176
1761132220641883000,-1.1392167806625366,0.6606340408325195,-1.0150299072265625,0.2015855312347412,-0.15462526679039,-0.1369865238666534
1761132220651882800,-1.138485312461853,0.6979680061340332,-1.059239387512207,0.1844813078641891,-0.1472948789596557,-0.1430951803922653
1761132220661883000,-1.125221848487854,0.6820790767669678,-1.1519689559936523,0.1563815027475357,-0.1582904607057571,-0.1510364264249801
1761132220671882800,-1.0436811447143557,0.6977882385253906,-1.305585861206055,0.1130100712180137,-0.1509600728750229,-0.1638645976781845
1761132220681882600,-1.1076616048812866,0.68670654296875,-1.230980396270752,0.0525344125926494,-0.1485166102647781,-0.1901318132877349
1761132220691882800,-1.2570785284042358,0.5760583877563477,-1.0747785568237305,-0.0085521135479211,-0.1521818041801452,-0.2047925740480423
1761132220701882600,-1.37766695022583,0.4591608047485351,-0.7819023132324219,-0.0525344125926494,-0.1534035354852676,-0.2066251635551452
1761132220711883500,-1.4614211320877075,0.3643739223480224,-0.4410963058471679,-0.0708603709936142,-0.1387427747249603,-0.197462186217308
1761132220721883600,-1.5714164972305298,0.2845947742462158,-0.2489767074584961,-0.0678060427308082,-0.1369101703166961,-0.1882992088794708
1761132220731883500,-1.6717766523361206,0.2372581958770752,-0.2216129302978515,-0.0635299831628799,-0.1295797973871231,-0.1693623960018158
1761132220741883600,-1.687935471534729,0.2160451412200927,-0.3615322113037109,-0.0549778714776039,-0.0984256640076637,-0.1388191282749176
1761132220751883500,-1.613153100013733,0.2396562099456787,-0.4365549087524414,-0.051312681287527,-0.0831540301442146,-0.1143845170736312
1761132220761883600,-1.4800606966018677,0.272618293762207,-0.3869924545288086,-0.0561996027827262,-0.0984256640076637,-0.1107193231582641
1761132220771883500,-1.4774399995803833,0.2749459743499756,-0.3878936767578125,-0.0629191175103187,-0.1149190217256546,-0.1302670091390609
1761132220781883600,-1.5256649255752563,0.0601234436035156,-0.3435821533203125,-0.0604756586253643,-0.1002582609653472,-0.1540907621383667
1761132220791883500,-1.7989124059677124,-0.1164097785949707,-0.4333381652832031,-0.0580321997404098,-0.0837648957967758,-0.1644754707813263
1761132220801883600,-2.0103955268859863,-0.1874041557312011,-0.54949951171875,-0.0592539273202419,-0.0794888436794281,-0.1424843221902847
1761132220811882800,-2.0045626163482666,-0.1836380958557129,-0.5509433746337891,-0.070249505341053,-0.0782671123743057,-0.1046106740832328
1761132220821883000,-2.0172836780548096,-0.3699774742126465,-1.0557146072387695,-0.0946841165423393,-0.0770453810691833,-0.0649044290184974
1761132220831882800,-2.061084032058716,-0.4125096797943115,-1.209516525268555,-0.1337794959545135,-0.064217209815979,-0.0276416521519422
1761132220841882600,-2.1014184951782227,-0.5062592029571533,-1.1469078063964844,-0.1887573599815368,-0.0660498067736625,0.0145080499351024
1761132220851882800,-2.089254856109619,-0.6569952964782715,-1.0503721237182615,-0.2388483136892318,-0.0965930670499801,0.0615446716547012
1761132220861882600,-2.065495729446411,-0.8460760116577148,-0.8885593414306641,-0.2626720666885376,-0.1222494095563888,0.1043052375316619
1761132220871882800,-1.9143251180648804,-1.0088322162628174,-0.9669914245605468,-0.2486221492290496,-0.1283580660820007,0.152563601732254
1761132220881882600,-1.8594157695770264,-1.1320009231567385,-1.4160213470458984,-0.2302961945533752,-0.084375761449337,0.1757764816284179
1761132220891882800,-1.8673521280288696,-1.1633920669555664,-1.9362072944641116,-0.2382374405860901,-0.0275652948766946,0.2008219510316848
1761132220901882600,-1.8622963428497317,-1.1102643013000488,-2.3751978874206543,-0.3017674386501312,0.00664315931499,0.2362521290779113
1761132220911883500,-1.869598746299744,-1.0631906986236572,-2.4786906242370605,-0.4092797040939331,-0.0110719325020909,0.2710714638233185
1761132220921883600,-1.9466540813446045,-1.152186632156372,-2.5305705070495605,-0.5216789245605469,-0.0715475901961326,0.3071125149726867
1761132220931883500,-2.078242301940918,-1.225865125656128,-2.569159507751465,-0.6120869517326355,-0.1222494095563888,0.3541491329669952
1761132220941883600,-2.04590368270874,-0.9677526950836182,-2.8282041549682617,-0.6896668672561646,-0.273743987083435,0.4091269969940185
1761132220951883500,-2.4338154792785645,-0.8338453769683838,-3.0029187202453613,-0.7446447610855103,-0.2688570618629455,0.4641048610210418
1761132220961883600,-2.365454912185669,-0.8572068214416504,-3.233846664428711,-0.7922922372817993,-0.2651918828487396,0.5148066878318787
1761132220971883500,-2.4296810626983643,-0.571605920791626,-3.257279396057129,-0.8796459436416626,-0.3708715736865997,0.5648976564407349
1761132220981883600,-2.3229691982269287,-0.4568696022033691,-3.3253698348999023,-0.9468411207199096,-0.4667774140834808,0.6351471543312073
1761132220991883500,-2.2340452671051025,-0.4236643314361572,-3.592837333679199,-0.9822713136672974,-0.4942663311958313,0.6956228017807007
1761132221001883600,-2.3500030040740967,-0.242607831954956,-3.843250274658203,-1.0109820365905762,-0.4496731758117676,0.7567093372344971
1761132221031882800,-2.28263521194458,0.5305066108703613,-4.211455345153809,-1.0971139669418335,-0.4820490479469299,1.0016663074493408
1761132221041883000,-1.7175458669662476,0.7653491497039795,-4.011684417724609,-1.1301007270812988,-0.6201046109199524,1.0651962757110596
1761132221051882800,-0.8811012506484985,0.801255464553833,-3.400691509246826,-1.1325441598892212,-0.7599927186965942,1.0823005437850952
1761132221061883000,-0.2272365093231201,0.6256246566772461,-2.7389235496521,-1.0965031385421753,-0.7966446280479431,1.0468703508377075
1761132221071882800,0.2262312769889831,0.5049229860305786,-2.495452404022217,-1.0042624473571775,-0.720897376537323,0.983951210975647
1761132221081883000,0.5503315925598145,0.5291417837142944,-1.842005729675293,-0.8674286603927612,-0.5712353587150574,0.8959866166114807
1761132221091882800,0.6566219329833984,0.4731812477111816,-1.5428237915039062,-0.7031059265136719,-0.3580434024333954,0.802524209022522
1761132221101883000,0.5318830013275146,0.4656761884689331,-1.313924789428711,-0.5326744914054871,-0.0996473953127861,0.7121161818504333
1761132221111883500,-0.0903794765472412,0.4602735042572021,-1.048640251159668,-0.2993239760398865,0.3982077836990356,0.6149885654449463
1761132221121883600,-0.7131936550140381,0.4744576215744018,-0.6868534088134766,-0.1930334120988845,0.6999751925468445,0.6052147150039673
1761132221131883500,-0.65538489818573,0.4996205568313598,-0.6975250244140625,-0.107512280344963,0.9595929384231568,0.6443101167678833
1761132221141883600,-2.236947059631348,0.3992447853088379,1.196791648864746,-0.0226020142436027,1.1190288066864014,0.7218900322914124
1761132221151883500,-3.1840500831604004,0.4943428039550781,2.7805566787719727,0.0561996027827262,1.1324677467346191,0.8532260060310364
1761132221161883600,-4.398447036743164,1.0392208099365234,5.561625480651856,0.1032362282276153,0.9504299759864808,1.0590876340866089
1761132221171883500,-4.67083215713501,1.412677764892578,9.83932113647461,0.1282816976308822,0.5203808546066284,1.329700946807861
1761132221181883600,-4.641052722930908,1.4094127416610718,9.837726593017578,0.1087340116500854,-0.1686751693487167,1.6003142595291138
1761132221191883500,-3.1018643379211426,0.8353754281997681,18.443235397338867,0.0757472887635231,-0.8852201104164124,1.82877779006958
1761132221201883600,-1.130100965499878,0.5620229244232178,22.296295166015625,0.1508837193250656,-1.3592514991760254,1.9741637706756592
1761132221211882800,0.3916690349578857,0.574935793876648,24.463321685791016,0.4184426963329315,-1.377577543258667,1.9937114715576167
1761132221221882600,1.830069184303284,1.0276280641555786,24.61618423461914,0.8436049222946167,-1.0550405979156494,1.9142990112304688
1761132221231882800,3.0991244316101074,2.499820709228516,21.98956680297852,1.3347405195236206,-0.5461899042129517,1.733482837677002
1761132221241882600,3.8874495029449454,4.025719165802002,18.13796043395996,1.6780468225479126,-0.084375761449337,1.4622586965560913
1761132221251882800,4.03287410736084,5.161871433258057,14.105793952941896,1.7037031650543213,0.1288162022829055,1.1330022811889648
1761132221261882600,3.441218614578247,5.604654312133789,9.937381744384766,1.4850133657455444,0.2790890634059906,0.8391761183738708
1761132221271882800,2.2915682792663574,5.353487968444824,6.226772308349609,1.091616153717041,0.591241180896759,0.6382014751434326
1761132221281882600,2.333634376525879,5.258997917175293,6.242380142211914,0.5931501388549805,0.9333257079124452,0.5239696502685547
1761132221291882800,-1.0543159246444702,3.962446451187134,1.622304916381836,0.130725160241127,1.1483503580093384,0.5337435007095337
1761132221301882600,-1.384011149406433,3.2695119380950928,0.2823619842529297,-0.1704314053058624,1.255862593650818,0.669355571269989
1761132221311883500,-0.7199432849884033,2.7688896656036377,-1.3853092193603516,-0.2687807083129883,1.3939181566238403,0.8813258409500122
1761132221321883600,0.431741714477539,2.714840888977051,-3.13179874420166,-0.2058615833520889,1.648648977279663,1.0572550296783447
1761132221331883500,1.5756103992462158,3.203612804412842,-4.784314632415772,-0.0354301854968071,1.884442925453186,1.106735110282898
1761132221341883600,2.9568517208099365,3.742075920104981,-5.311681747436523,0.3524692356586456,1.998674750328064,0.8819366693496704
1761132221351883500,3.2622432708740234,4.101542472839356,-5.835324287414551,0.7409795522689819,1.6449837684631348,0.650418758392334
1761132221361883600,4.323913097381592,4.3856401443481445,-5.603209018707275,1.2376129627227783,1.0909289121627808,0.4127921760082245
1761132221371883500,4.7201104164123535,2.914017915725708,-5.1947126388549805,1.884519338607788,0.2625956833362579,0.1104138940572738
1761132221391883500,2.944409132003784,0.114835500717163,-7.139039993286133,3.1190779209136963,-1.5968780517578125,-0.3782783150672912
1761132221401883600,-2.456554412841797,-1.298580288887024,-14.341796875,3.428786516189575,-1.5516741275787354,-0.5187773108482361
1761132221411882800,-4.244316577911377,-1.8523718118667605,-15.186135292053224,3.40190863609314,-0.061162881553173,-0.5322163701057434
1761132221421883000,-2.157405376434326,-2.047970056533813,-16.236835479736328,2.7036895751953125,0.5264894962310791,-0.1736384481191635
1761132221431882800,-0.1329013407230377,-2.536299467086792,-15.175130844116213,1.878410577774048,0.6773731708526611,0.0560468845069408
1761132221441883000,1.0671652555465698,-2.9379446506500244,-13.404230117797852,1.3671164512634275,0.924162745475769,0.0578794814646244
1761132221451882800,1.400246262550354,-2.859865188598633,-11.715341567993164,1.1093312501907349,0.9510408043861388,-0.128434419631958
1761132221461883000,1.4295752048492432,-2.9698386192321777,-10.353848457336426,1.0134254693984983,0.6810383796691895,-0.3721696436405182
1761132221471882800,2.104161262512207,-3.339615821838379,-9.568665504455566,1.0299187898635864,0.3114649057388305,-0.622624397277832
1761132221481883000,1.2663236856460571,-4.527060031890869,-9.194833755493164,1.1093312501907349,-0.0868192240595817,-0.9243918061256408
1761132221491882800,0.0348551422357559,-5.0674543380737305,-9.574575424194336,1.1557570695877075,-0.3549890518188476,-1.1644618511199951
1761132221501883000,-1.0063414573669434,-5.477201461791992,-9.931570053100586,1.1068878173828125,-0.4234059751033783,-1.2695306539535522
1761132221511883500,-1.6711044311523438,-6.023238182067871,-9.911502838134766,0.9676105380058287,-0.2853504419326782,-1.2188289165496826
1761132221521883600,-1.9613364934921265,-6.305063724517822,-9.22471523284912,0.7452555894851685,-0.092927873134613,-1.097266674041748
1761132221531883800,-1.850072145462036,-6.332496643066406,-8.364083290100098,0.5198463201522827,0.0689514130353927,-0.9518807530403136
1761132221541883600,-1.5953935384750366,-6.409617424011231,-7.476072788238525,0.3506366610527038,0.1807397603988647,-0.813825249671936
1761132221551883800,-1.5079421997070312,-6.223004817962647,-6.486161708831787,0.2419026345014572,0.2283872365951538,-0.7081455588340759
1761132221561883600,-1.4360618591308594,-6.153770923614502,-5.4967474937438965,0.1679879426956176,0.1758528351783752,-0.5865833759307861
1761132221571883800,-1.6284581422805786,-5.8651227951049805,-3.622783660888672,0.1295034289360046,0.0597884356975555,-0.4149302244186401
1761132221581883600,-2.234339952468872,-5.168776988983154,-1.93980073928833,0.1679879426956176,-0.0355065427720546,-0.2719877362251282
1761132221591883800,-2.6974360942840576,-4.6171488761901855,-0.2242212295532226,0.252287358045578,-0.0361174084246158,-0.0978911519050598
1761132221601883600,-2.475154161453247,-4.269276142120361,1.6728830337524414,0.3640756905078888,0.0927751585841178,0.0652098655700683
1761132221611882800,-2.1020758152008057,-4.081911087036133,3.70063591003418,0.5186246037483215,0.4043164253234863,0.1470658034086227
1761132221621883000,-3.771204233169556,-2.494940996170044,4.396622657775879,0.7092145681381226,0.924773633480072,0.1965458989143371
1761132221631883000,-6.5854997634887695,0.5657033920288086,4.649755477905273,0.750142514705658,1.2613604068756104,0.4653266072273254
1761132221641883000,-7.061814308166504,3.506887912750244,5.65922737121582,0.485027015209198,0.8545241355895996,0.8856018781661987
1761132221651883000,-6.709019184112549,6.992338180541992,9.06947422027588,-0.0311541277915239,-0.2230421751737594,1.2563971281051636
1761132221661883000,-5.047146797180176,9.436985969543455,14.130630493164062,-0.484416127204895,-1.442329168319702,1.5202908515930176
1761132221671882800,-2.7902586460113525,10.516609191894531,18.434669494628903,-0.7128797173500061,-2.4814109802246094,1.640020489692688
1761132221681883000,-0.4746171236038208,11.33165168762207,20.867168426513672,-0.7757988572120667,-3.111212968826294,1.6528486013412476
1761132221691882800,2.3630459308624268,11.652202606201172,20.10796165466309,-0.8802568316459656,-2.985374927520752,1.6180293560028076
1761132221701883000,4.873655319213867,11.558462142944336,18.338499069213867,-1.2040153741836548,-2.215684652328491,1.553277611732483
1761132221711883800,6.762469291687012,11.089198112487791,17.002845764160156,-1.6853772401809692,-1.0599275827407837,1.3608551025390625
1761132221721883600,7.460984230041504,10.228675842285156,14.391152381896973,-2.034792184829712,0.2503784000873565,0.973566472530365
1761132221731883800,6.293725490570068,9.1846923828125,9.665332794189451,-2.1954495906829834,1.324279546737671,0.5343543887138367
1761132221741883600,5.951955795288086,7.200880527496338,4.082485198974609,-2.247373342514038,2.062204599380493,0.0823140889406204
1761132221751883800,3.596867084503174,6.147599697113037,-0.3119106292724609,-2.381152629852295,2.229581832885742,-0.422871470451355
1761132221761883600,2.453784465789795,4.670844554901123,-2.6338253021240234,-2.532036542892456,1.8349628448486328,-0.7405213713645935
1761132221771883800,1.2849254608154297,3.73102593421936,-2.749173641204834,-2.6334400177001958,1.1116983890533447,-0.90728759765625
1761132221781883600,0.313367635011673,2.6957311630249023,-2.166316032409668,-2.5277602672576904,0.2577087879180908,-0.9298896193504332
1761132221791883800,-0.9567830562591552,2.2622554302215576,-1.7989234924316406,-2.1795670986175537,-0.568791925907135,-0.8474228382110596
1761132221801883600,-1.153644561767578,1.523491382598877,-2.2157678604125977,-1.415374755859375,-1.6445256471633911,-0.5035057067871094
1761132221811882800,0.306510329246521,1.108920335769653,-3.116603374481201,-0.8576548099517822,-2.0373120307922363,-0.3208569586277008
1761132221821883000,-0.8979939818382263,1.505076885223389,-4.497017860412598,-0.2797762751579284,-2.195526123046875,-0.2017382532358169
1761132221831882800,-0.9286630153656006,2.0780179500579834,-6.112870216369629,0.2620611786842346,-2.0373120307922363,-0.050854530185461
1761132221841883000,-0.982243537902832,2.0795085430145264,-7.374744415283203,0.6927211880683899,-1.6995034217834473,0.0841466858983039
1761132221851882800,-0.1599229574203491,1.2954201698303225,-8.355856895446777,1.0195341110229492,-1.377577543258667,0.152563601732254
1761132221861883000,0.6041926145553589,0.5128884315490723,-9.482406616210938,1.2424999475479126,-1.130787968635559,0.0737619772553443
1761132221871882800,0.5462580919265747,0.0267987251281738,-10.304605484008787,1.3616186380386353,-0.9041569232940674,-0.1113301888108253
1761132221881883000,0.2092223167419433,-0.4721782207489013,-10.927501678466797,1.389107584953308,-0.6653085947036743,-0.3251330256462097
1761132221891882800,-0.2035144567489624,-1.1367807388305664,-11.294792175292969,1.3396275043487549,-0.4472297132015228,-0.5309945940971375
1761132221901883000,-0.6986101865768433,-1.7733243703842163,-11.361355781555176,1.240056395530701,-0.2719113826751709,-0.7252497673034668
1761132221911883500,-1.3734230995178225,-2.2862021923065186,-11.202970504760742,1.103833556175232,-0.1063669100403785,-0.8987354636192322
1761132221921883600,-2.009152412414551,-2.7915682792663574,-10.785350799560549,0.9615018963813782,0.0524580515921115,-1.0343475341796875
1761132221931883500,-2.2677736282348637,-3.1828155517578125,-10.391518592834473,0.8326093554496765,0.1776854246854782,-1.1412489414215088
1761132221941883600,-2.414304494857788,-3.534792423248291,-10.01345920562744,0.7122688889503479,0.2546544373035431,-1.2359330654144287
1761132221951883500,-2.625862598419189,-3.8789894580841056,-9.341411590576172,0.5931501388549805,0.2650391459465027,-1.3202325105667114
1761132221961883600,-3.126556396484375,-4.117103099822998,-8.427176475524902,0.4886921942234039,0.143476977944374,-1.392925500869751
1761132221971883500,-3.583685874938965,-4.379462242126465,-7.232673168182373,0.4196644127368927,-0.0770453810691833,-1.4155274629592896
1761132221981883600,-3.945718765258789,-4.544146060943604,-5.654906749725342,0.4111123085021972,-0.293291687965393,-1.3666582107543943
1761132221991883500,-3.655136585235596,-5.077869415283203,-4.792932510375977,0.5149593949317932,-0.3220023512840271,-1.2457069158554075
1761132222001883600,-3.871976852416992,-5.316967487335205,-3.906703472137451,0.6261368989944458,-0.3030655086040497,-1.1284208297729492
1761132222011882800,-3.945506811141968,-5.511119365692139,-2.3807015419006348,0.7086036801338196,-0.2920699417591095,-0.9873109459877014
1761132222021883000,-3.932681083679199,-5.569036960601807,-0.1518707275390625,0.7935139536857605,-0.2199878394603729,-0.8217664957046509
1761132222031882800,-3.887013912200928,-5.09320068359375,2.0590171813964844,1.0604621171951294,0.0384081527590751,-0.5145012736320496
1761132222041883000,-3.476311206817627,-4.698405742645264,3.540499687194824,1.3536773920059204,0.4953353703022003,-0.2567161321640014
1761132222051882800,-3.2160682678222656,-3.812526226043701,4.120265960693359,1.5723671913146973,0.9278279542922974,-0.0569631829857826
1761132222061883000,-3.8679451942443848,-2.065701961517334,3.715007781982422,1.6090190410614014,1.2418127059936523,0.0462730415165424
1761132222071882800,-4.013484001159668,-0.3102593421936035,3.1943893432617188,1.3720033168792725,1.3389402627944946,0.04505131021142
1761132222081883000,-3.90519905090332,-0.4232659339904785,3.255276679992676,0.788016140460968,1.166065335273743,-0.0899499058723449
1761132222091882800,-5.513911247253418,4.267745018005371,5.048389434814453,-0.1014036312699318,0.763505220413208,-0.2701551616191864
1761132222101883000,-6.681159973144531,5.62888240814209,8.887200355529785,-1.1105530261993408,0.2302198410034179,-0.3966042697429657
1761132222111883800,-6.849528789520264,6.309643745422363,14.57095432281494,-1.974927306175232,-0.2981785833835602,-0.3843869566917419
1761132222121883600,-5.875276565551758,6.589311599731445,19.991958618164062,-2.436741352081299,-0.6744716167449951,-0.2799290120601654
1761132222131883800,-4.445486068725586,6.240170478820801,22.57745933532715,-2.451402187347412,-0.7832056283950806,-0.1803579628467559
1761132222141883600,-3.0002689361572266,5.828504085540772,21.746959686279297,-2.2742512226104736,-0.51992267370224,-0.1070541366934776
1761132222151883800,-1.974936842918396,6.161089897155762,19.01042938232422,-2.1539108753204346,-0.0428369268774986,-0.0649044290184974
1761132222161883600,-0.6231134533882141,6.3084211349487305,14.50365924835205,-2.121535062789917,0.5228242874145508,-0.0288633834570646
1761132222171883800,0.90155690908432,6.342631340026856,8.820979118347168,-2.1679606437683105,1.1013137102127075,-0.0661261603236198
1761132222181883600,1.5963619947433472,6.188822746276856,3.752584457397461,-2.3658812046051025,1.519756317138672,-0.2444988191127777
1761132222191883800,1.8003559112548828,5.515528678894043,0.6441173553466797,-2.6975808143615723,1.5857298374176023,-0.5224425196647644
1761132222201883600,1.1066348552703855,4.239957809448242,0.5840044021606445,-3.0616567134857178,1.2802971601486206,-0.8663596510887146
1761132222211882800,1.2534339427947998,4.521410942077637,0.4811363220214844,-3.227200984954834,0.7928267121315002,-1.1510227918624878
1761132222221883000,-0.876507043838501,2.1983957290649414,2.481203079223633,-3.051882743835449,0.5350415706634521,-1.193783402442932
1761132222231882800,-1.5574157238006592,2.2232935428619385,2.063572883605957,-2.6316075325012207,0.4599051773548126,-1.0319041013717651
1761132222241883000,-1.826075315475464,2.460458278656006,0.9153623580932616,-2.048841953277588,0.4709007441997528,-0.7399105429649353
1761132222251882800,-1.676088809967041,2.655367136001587,-0.740386962890625,-1.392161846160889,0.4293619096279144,-0.3972151279449463
1761132222261883000,-1.351444959640503,2.914717674255371,-2.577814102172852,-0.455705463886261,0.1734093725681305,0.090866208076477
1761132222271882800,-0.9750657081604004,3.0922625064849854,-4.669187545776367,0.0690277740359306,-0.0391717329621315,0.375529408454895
1761132222281883000,-0.6772991418838501,3.16107177734375,-6.140703201293945,0.4685336351394653,-0.2383138090372085,0.6015495657920837
1761132222291882800,-0.4175674617290497,3.018544435501098,-7.202349185943604,0.7684684991836548,-0.3733150362968445,0.7622070908546448
1761132222301882600,-0.0753025561571121,2.6847946643829346,-7.933714389801025,1.0067058801651,-0.4020256996154785,0.8739954233169556
1761132222311883500,0.1325138807296753,2.242052793502808,-8.4716796875,1.2247848510742188,-0.2865721583366394,0.947299301624298
1761132222321883600,0.3927416205406189,1.5730950832366943,-9.107810974121094,1.4141530990600586,-0.0788779780268669,1.0169379711151123
1761132222331883500,1.0315101146697998,1.0567750930786133,-9.316179275512695,1.5497651100158691,0.0854447782039642,1.0658071041107178
1761132222341883400,1.33366596698761,0.9161999225616456,-9.38490867614746,1.6658295392990112,0.1770745664834976,1.0670288801193235
1761132222351883500,1.3458672761917114,0.7989883422851562,-9.59656810760498,1.8099937438964844,0.2662608921527862,1.0291552543640137
1761132222361883600,1.5045620203018188,0.7409868240356445,-10.103047370910645,1.955379605293274,0.3291800022125244,0.9558513760566713
1761132222371883500,1.547250509262085,0.639340877532959,-10.226033210754396,2.0231857299804688,0.3713297247886657,0.8239045143127441
1761132222381883600,2.003098964691162,0.3841919898986816,-10.067842483520508,2.0732767581939697,0.4153120219707489,0.660192608833313
1761132222391883500,1.9304025173187256,0.0635902881622314,-10.162622451782228,2.091602563858032,0.3084105849266052,0.4909829497337341
1761132222401883600,1.3496530055999756,-0.048821210861206,-10.291125297546388,2.034792184829712,0.0585667043924331,0.3071125149726867
1761132222411882800,0.617980420589447,-0.2979984283447265,-10.602405548095703,1.9040669202804563,-0.283517837524414,0.1360702365636825
1761132222421883000,0.9271366000175476,-0.6534357070922852,-10.620980262756348,1.7189748287200928,-0.5724570751190186,-0.0050396383740007
1761132222431882800,2.176399946212769,-0.7395124435424805,-10.342363357543944,1.538158655166626,-0.7685448527336121,-0.1345430761575698
1761132222441883000,1.209175705909729,0.5274820327758789,-10.422901153564451,1.235169529914856,-1.1124619245529177,-0.2878702580928802
1761132222451882800,0.6500176787376404,0.378054141998291,-9.53704833984375,0.7782423496246338,-1.3586406707763672,-0.4247040748596191
1761132222461883000,-0.1559893190860748,0.282938003540039,-8.484612464904785,0.2431243658065796,-1.270065188407898,-0.5542075037956238
1761132222471882800,-0.634255588054657,0.6196179389953613,-7.30646276473999,-0.3445279896259308,-0.948139190673828,-0.6171266436576843
1761132222481883000,-0.5860782861709595,0.575592041015625,-6.427955627441406,-0.9443976879119872,-0.235259473323822,-0.5529857873916626
1761132222491882800,1.4937368631362915,-1.987537860870361,6.737966537475586,-1.6988162994384766,0.3737731575965881,-0.5163338780403137
1761132222501883000,-1.7646152973175049,-0.9996440410614014,12.717999458312988,-1.7171422243118286,-0.7184538841247559,-0.8547531962394714
1761132222511883800,-4.835559368133545,2.058917999267578,14.34607219696045,-0.4465425014495849,0.7745007872581482,-0.898124635219574
1761132222521883600,-3.3489248752593994,1.9854602813720703,12.27243995666504,0.8222246170043945,1.3499358892440796,-0.775340735912323
1761132222531883800,-2.804240465164185,2.3826465606689453,10.070229530334473,1.1349875926971436,-0.3287218511104584,-0.8156577944755554
1761132222541883600,-4.877289772033691,3.856753349304199,10.97769832611084,0.8472700715065002,-2.5034022331237797,-0.9115636348724364
1761132222551883800,-5.137914657592773,2.679126262664795,13.546686172485352,0.4471533596515655,-3.813708066940308,-0.8284859657287598
1761132222561883600,-3.1717920303344727,1.0442838668823242,16.589378356933594,0.1319468915462494,-4.06233024597168,-0.6543893814086914
1761132222571883800,-0.8479527235031128,0.7789850234985352,15.932794570922852,-0.0067195175215601,-3.499723434448242,-0.4363104999065399
1761132222581883600,0.7363100051879883,1.4358673095703125,13.107308387756348,-0.1429424732923507,-2.421546220779419,-0.3355177342891693
1761132222591883800,1.5105376243591309,2.0114293098449707,9.775224685668944,-0.3933972120285034,-1.2676217555999756,-0.3434589803218841
1761132222601883600,1.8514422178268437,1.8419132232666016,6.620484352111816,-0.7141014933586121,-0.2939025461673736,-0.4283692538738251
1761132222611882800,1.7487030029296875,1.6366252899169922,4.790786743164063,-1.0836749076843262,0.4079816341400146,-0.5615378618240356
1761132222621883000,0.6158305406570435,1.3183460235595703,4.396439552307129,-1.4422528743743896,0.7066947221755981,-0.6983717083930969
1761132222631883000,-0.4686921834945678,0.8392367362976074,4.597431182861328,-1.6578882932662964,0.6737080216407776,-0.7478517889976501
1761132222641883000,-1.2983379364013672,0.391918420791626,4.737573623657227,-1.6713273525238037,0.439746618270874,-0.6684392690658569
1761132222651883000,-1.2331266403198242,0.5330290794372559,4.667352676391602,-1.5167783498764038,0.1813506186008453,-0.4686863720417022
1761132222661883000,-1.3859871625900269,0.2042737007141113,3.33707046508789,-1.2345587015151978,0.0970512181520462,-0.2212859392166137
1761132222671883000,-0.9262577891349792,0.4354968070983886,1.880986213684082,-0.8998045325279236,0.1563051491975784,-0.0001527163112768
1761132222681883000,-0.6247512102127075,0.7063291072845459,0.7293615341186523,-0.5375614166259766,0.3010801970958709,0.1727221459150314
1761132222691882800,-0.3088440299034118,0.840979814529419,-0.4561519622802734,-0.1441642045974731,0.4232532680034637,0.2784018218517303
1761132222701883000,-0.0188194513320922,0.9313290119171144,-1.9955201148986816,0.2590068578720093,0.4831180572509765,0.3223841190338135
1761132222711883500,0.1530604362487793,0.9541261196136476,-3.432936668395996,0.618195652961731,0.5075526833534241,0.3003929853439331
1761132222721883600,0.1434159278869629,0.9127597808837892,-4.604377746582031,0.8723155856132507,0.4476878643035888,0.2423607856035232
1761132222731883500,-0.2506141662597656,0.6609809398651123,-5.346381187438965,1.0042624473571775,0.1642463952302932,0.1434006094932556
1761132222741883600,-0.7679039239883423,0.2775013446807861,-5.416887283325195,0.9615018963813782,-0.0794888436794281,0.1104138940572738
1761132222751883500,-1.1540225744247437,-0.1086385250091552,-4.972034931182861,0.8839219808578491,-0.2658027410507202,0.1189660057425499
1761132222761883600,-1.4458011388778689,-0.5604407787322998,-4.277461051940918,0.817337691783905,-0.3232240676879883,0.1660026311874389
1761132222771883500,-1.4811676740646362,-0.6319503784179688,-4.242562294006348,0.807563841342926,-0.193109780550003,0.252134621143341
1761132222781883600,-1.5945334434509275,-0.9647502899169922,-3.384796619415283,0.8423831462860107,0.1416443735361099,0.3620903789997101
1761132222791883500,-1.5174720287322998,-0.4683911800384521,-3.3859572410583496,0.8875871896743774,0.6150649189949036,0.4292855560779571
1761132222801883600,-1.69366717338562,0.2882132530212402,-3.4062414169311523,0.932791233062744,1.1489611864089966,0.4702135324478149
1761132222811882800,-1.6477680206298828,0.6749043464660645,-3.6873292922973633,0.9724974632263184,1.5661821365356443,0.4812090992927551
1761132222821882600,-1.1784532070159912,0.914642333984375,-3.9567928314208975,0.9804387092590332,1.645594596862793,0.4170682430267334
1761132222831882800,-0.4751977920532226,1.210066318511963,-4.079843521118164,0.8894197940826416,1.2063825130462646,0.2417499274015426
1761132222841882600,0.0289641022682189,1.33738374710083,-3.885485649108887,0.6420193910598755,0.27847820520401,-0.0514653958380222
1761132222851882800,0.1488806009292602,0.8167080879211426,-3.0368528366088867,0.2596177160739898,-0.8504008054733276,-0.3788891732692718
1761132222861882600,0.0921158790588378,0.7919254302978516,-3.020132064819336,-0.152105450630188,-1.7190511226654053,-0.633009135723114
1761132222871882800,-0.0858479142189025,-0.892157793045044,0.3796005249023437,-0.5106833577156067,-2.09962010383606,-0.7985535860061646
1761132222881882600,-0.7612106204032898,-1.68749737739563,1.7862157821655271,-0.7312057018280029,-1.9383517503738403,-0.8419250249862671
1761132222891882800,-1.4906562566757202,-2.5896573066711426,2.217382431030273,-0.7819074988365173,-1.2578479051589966,-0.7338019013404846
1761132222901882600,-2.020413875579834,-2.5843896865844727,2.2297897338867188,-0.7061602473258972,-0.2939025461673736,-0.5108360648155212
1761132222911883500,-2.2823219299316406,-1.6208889484405518,2.197556495666504,-0.5467243790626526,0.5643631219863892,-0.267100840806961
1761132222921883600,-2.229506731033325,-0.7503800392150879,1.628056526184082,-0.3512475192546844,0.9754754304885864,-0.0832303911447525
1761132222931883500,-1.8054275512695312,-0.0441927909851074,0.9068622589111328,-0.1374446749687194,0.9828058481216432,0.0291688162833452
1761132222941883600,-1.263526201248169,0.4126677513122558,0.2910079956054687,0.067195177078247,0.6871470212936401,0.0438295826315879
1761132222951883500,-1.05103862285614,0.4634509086608886,-0.3105306625366211,0.2730567753314972,0.2650391459465027,-0.0478002056479454
1761132222961883600,-1.252400517463684,0.2071337699890136,-0.992722988128662,0.5540547966957092,-0.2077705413103103,-0.2591595947742462
1761132222971883500,-1.2505918741226196,0.1581325531005859,-0.9691691398620604,0.6536257863044739,-0.3665955066680908,-0.3141374588012695
1761132222981883600,-1.8799118995666504,0.0129270553588867,-2.0429158210754395,0.6670648455619812,-0.3702606856822967,-0.2713768780231476
1761132222991883500,-1.697398662567139,0.0459613800048828,-2.5907516479492188,0.6096435189247131,-0.1998292952775955,-0.1907426714897155
1761132223001883600,-1.3246028423309326,0.2474679946899414,-2.971678733825684,0.4740314185619354,0.0475711300969123,-0.1290452778339386
1761132223011882800,-1.036960482597351,0.4976682662963867,-3.21417236328125,0.2620611786842346,0.2833651304244995,-0.1003346145153045
1761132223021882600,-0.9049134850502014,0.6752896308898926,-3.0919299125671387,0.0140499006956815,0.4476878643035888,-0.0813977941870689
1761132223031882800,-0.7809982299804688,0.7572975158691406,-2.6778783798217773,-0.2113593816757202,0.481896311044693,-0.0691804885864257
1761132223041882600,-0.719285249710083,0.885319709777832,-2.0944738388061523,-0.3781255781650543,0.3707188367843628,-0.0801760628819465
1761132223051882800,-0.7097830772399902,1.035010814666748,-1.4601507186889648,-0.4734205603599548,0.1556942760944366,-0.1198823079466819
1761132223061882600,-0.7914153933525085,1.0228986740112305,-0.780672550201416,-0.5119050741195679,-0.0672715380787849,-0.1766927689313888
1761132223071882800,-0.9140002727508544,0.9540557861328124,-0.1252985000610351,-0.4996877610683441,-0.2022727578878402,-0.2335032373666763
1761132223081882600,-1.1585447788238523,0.8504037857055664,0.0599660873413085,-0.4349360466003418,-0.1876119822263717,-0.2713768780231476
1761132223091882800,-1.487339735031128,0.7941017150878906,-0.0862131118774414,-0.3512475192546844,-0.0122936628758907,-0.2762638032436371
1761132223101882600,-1.6818699836730957,0.8297257423400879,-0.1836700439453125,-0.2822197377681732,0.2271655201911926,-0.2328923791646957
1761132223111883500,-1.8344051837921145,0.9520511627197266,-0.1928834915161132,-0.2290744632482528,0.3908773958683014,-0.1644754707813263
1761132223121883600,-1.9263055324554443,1.0023484230041504,-0.1044692993164062,-0.1887573599815368,0.4861723780632019,-0.0978911519050598
1761132223131883500,-1.8724310398101809,1.0128560066223145,-0.1124258041381836,-0.1282816976308822,0.5118287205696106,-0.0233655963093042
1761132223141883600,-1.567095398902893,0.8695211410522461,-0.7303619384765625,-0.067195177078247,0.5026657581329346,0.0316122770309448
1761132223151883500,-1.6743786334991455,0.9987835884094238,-1.0676555633544922,-0.0482583530247211,0.4837289154529571,0.0615446716547012
1761132223161883600,-1.7083882093429563,1.1290440559387207,-1.2985296249389648,-0.070249505341053,0.41103595495224,0.0951422601938247
1761132223171883500,-1.769965410232544,1.0580716133117676,-1.094257354736328,-0.1221730485558509,0.2839759886264801,0.1232420653104782
1761132223181883600,-1.5543922185897827,0.941579818725586,-0.5757389068603516,-0.0696386396884918,0.1770745664834976,0.1256855279207229
1761132223191883500,-2.130828619003296,1.2631382942199707,-0.4209012985229492,0.0280998013913631,-0.3470478057861328,0.0572686158120632
1761132223201883600,-1.9379138946533203,1.1733083724975586,0.0099411010742187,-0.0568104684352874,-0.7050148248672485,0.1372919678688049
1761132223211882800,-1.144099473953247,0.9519619941711426,0.8286504745483398,-0.0781907513737678,-0.8571202754974365,0.2038762718439102
1761132223221882600,-0.3321050405502319,0.7750067710876465,1.1798419952392578,-0.0012217304902151,-0.8552877306938171,0.1647808998823166
1761132223231882800,0.1497553288936615,0.647214412689209,1.1345348358154297,0.1618792861700058,-0.6683629155158997,0.0377209298312664
1761132223241882600,0.0944883227348327,0.630131721496582,1.1457452774047852,0.3408628106117248,-0.4368450045585632,-0.1021672114729881
1761132224607596800,-0.9608429670333862,0.3516750335693359,-0.3508720397949219,-0.1270599663257599,0.1300379335880279,-0.0630718395113945
1761132224617623000,-0.9732255339622498,0.3329710960388183,-0.3297357559204101,-0.1270599663257599,0.1300379335880279,-0.0630718395113945
1761132226070598100,0.0308200567960739,2.964207649230957,-3.212854385375977,0.9486737251281738,-0.325667530298233,0.3321579694747925
1761132226080598000,-0.1954283267259597,2.4817168712615967,-6.5326433181762695,1.3145819902420044,0.145309567451477,0.3352122902870178
1761132226090598100,-0.2641825973987579,1.712798237800598,-8.660741806030273,1.529606580734253,0.3920991420745849,0.3291036486625671
1761132226100598000,-0.517903208732605,1.6585736274719238,-10.020919799804688,1.6114624738693235,0.3652210533618927,0.3284927904605865
1761132226110599000,0.206825777888298,0.8547077178955078,-10.886183738708496,1.6371188163757324,0.3145192563533783,0.3352122902870178
1761132226120599000,1.5683560371398926,-0.4102821350097656,-11.346890449523926,1.5974125862121582,0.1459204405546188,0.2741257846355438
1761132226130599000,0.6370118260383606,-0.8763529062271118,-11.666756629943848,1.5192219018936155,-0.0623846128582954,0.0835358202457428
1761132226140599000,0.7582529783248901,-1.456010818481445,-11.582221031188965,1.4471397399902344,-0.1918880492448806,-0.0911716371774673
1761132226150599000,0.8288676738739014,-2.3055131435394287,-11.519411087036133,1.329853653907776,-0.3409391641616821,-0.2640464901924133
1761132226160599000,0.3686813116073608,-2.8892862796783447,-11.365013122558594,1.1911872625350952,-0.3537673354148865,-0.4827362596988678
1761132226170598700,-0.3539375364780426,-3.248507261276245,-11.047926902770996,1.0054842233657837,-0.3134502172470093,-0.6831000447273254
1761132226180598800,-0.9678923487663268,-3.735757827758789,-10.220446586608888,0.79840087890625,-0.2480876445770263,-0.8413141369819641
1761132226190598700,-1.1703050136566162,-4.239099979400635,-9.233325004577637,0.6346889734268188,-0.2071596831083297,-0.946382999420166
1761132226200598800,-1.2260921001434326,-4.590331077575684,-8.516645431518555,0.5424483418464661,-0.1479057520627975,-1.00197172164917
1761132226210598000,-1.1064502000808716,-4.92308521270752,-7.737895965576172,0.5222898125648499,-0.1002582609653472,-1.0380127429962158
1761132226220598000,-1.0812931060791016,-4.968656063079834,-7.720832824707031,0.5736024379730225,-0.1424079537391662,-1.0746647119522097
1761132226230598000,-1.264161467552185,-5.480594635009766,-6.586235046386719,0.66584312915802,-0.2370920777320861,-1.114981770515442
1761132226240598000,-1.5542947053909302,-5.727598190307617,-6.329556941986084,0.7874053120613098,-0.3097850382328033,-1.1381946802139282
1761132226250598000,-1.3802562952041626,-5.937498092651367,-6.391693115234375,1.016479730606079,-0.2596940994262695,-1.1088731288909912
1761132226260598000,-1.1729633808135986,-5.844785213470459,-6.717876434326172,1.094059705734253,-0.3580434024333954,-1.0673342943191528
1761132226270598100,-1.0444504022598269,-5.552872180938721,-7.074161529541016,1.0629055500030518,-0.5431355834007263,-1.0099129676818848
1761132226280598300,-0.7493578195571899,-5.097507476806641,-7.208528518676758,0.940732479095459,-0.6903541088104248,-0.935998260974884
1761132226290598100,-1.448503494262695,-4.997486114501953,-6.339043617248535,0.769079327583313,-0.6738607287406921,-0.868803083896637
1761132226300598300,-1.1686705350875854,-4.561364650726318,-5.618988513946533,0.6304129362106323,-0.4710534512996673,-0.765566885471344
1761132226310599200,-1.0368692874908447,-4.07952880859375,-4.08927583694458,0.4563163518905639,-0.1735620945692062,-0.6892086863517761
1761132226320599000,-1.091744303703308,-3.4074110984802246,-2.155758857727051,0.2315179258584976,0.0579558387398719,-0.6598871946334839
1761132226330599200,-2.359940528869629,-1.6520676612854004,-0.537327766418457,-0.0207694191485643,0.2839759886264801,-0.6696610450744629
1761132226340599000,-2.163811445236206,-2.05741548538208,1.8809185028076167,-0.2590068578720093,0.8887325525283813,-0.5639813542366028
1761132226350599200,-1.6762280464172363,-2.3312675952911377,4.586725234985352,-0.4508185386657715,1.524032473564148,-0.4247040748596191
1761132226360599000,-2.827880859375,-1.4746766090393066,7.050358772277832,-0.3769038617610931,2.340148448944092,-0.2817615866661072
1761132226370599200,-5.653242588043213,1.8078932762146,8.689966201782227,-0.0207694191485643,3.312035083770752,-0.1711949855089187
1761132226380599000,-8.283306121826172,4.838111400604248,9.272127151489258,0.1637118905782699,3.4177145957946777,0.0108428578823804
1761132226390599200,-9.854731559753418,7.212839126586914,11.03699016571045,0.0232128798961639,2.6070964336395264,0.2820670306682586
1761132226400599000,-10.851694107055664,9.24865436553955,14.799002647399902,-0.3023782968521118,1.2833515405654907,0.5398521423339844
1761132226410598100,-10.015304565429688,9.431285858154297,19.477989196777344,-0.6053674817085266,-0.1540143936872482,0.717613935470581
1761132226420598300,-8.989201545715332,8.974252700805664,23.85692596435547,-0.7397578358650208,-1.1918745040893557,0.831234872341156
1761132226430598100,-7.544388771057129,8.271940231323242,25.633377075195312,-0.6200281977653503,-1.4918092489242554,1.048092007637024
1761132226440598300,-5.557773590087891,8.093684196472168,23.52094268798828,-0.3677408695220947,-1.2040917873382568,1.3840678930282593
1761132226450598100,-3.3402774333953857,9.087491989135742,17.347537994384766,-0.0549778714776039,-0.4301255047321319,1.704161286354065
1761132226460598300,-0.9871231317520142,10.92314910888672,9.235654830932615,-0.0109955742955207,0.4226423799991607,1.8825340270996092
1761132226470598400,0.2262940406799316,12.80160903930664,2.787306785583496,-0.4801400899887085,0.9076694250106812,1.8403842449188232
1761132226480598500,1.2669706344604492,12.81704807281494,-1.1043314933776855,-1.762346267700195,0.7128033638000488,1.5642731189727783
1761132226490598400,2.5990867614746094,11.136141777038574,-0.762324333190918,-2.676811456680298,0.1092685237526893,1.329700946807861
1761132226500598500,3.107692241668701,8.625096321105957,4.595484733581543,-3.3426547050476074,-0.8962156772613525,1.040150761604309
1761132226510599200,3.771751880645752,5.89264726638794,10.299419403076172,-3.3011157512664795,-1.65429949760437,0.803135097026825
1761132226520599300,4.089535713195801,3.5492870807647705,12.37451457977295,-2.613281488418579,-1.8864282369613647,0.6516404747962952
1761132226530599200,3.229011058807373,2.0853233337402344,10.317591667175291,-1.6212363243103027,-1.497307062149048,0.5936083197593689
1761132226540599300,2.933497190475464,0.7129521369934082,5.834887504577637,-0.6805039048194885,-0.730060338973999,0.6436992287635803
1761132226550599200,1.7065885066986084,1.016820192337036,1.2638778686523438,0.0580321997404098,0.0213039256632328,0.660803496837616
1761132226560599300,1.106253147125244,1.0377416610717771,-2.661151885986328,0.5015203952789307,0.3982077836990356,0.7591527700424194
1761132226570599400,1.415403962135315,0.6762242317199707,-5.204942226409912,0.7611380815505981,0.4623486399650574,0.8452847599983215
1761132226580599300,1.1772897243499756,0.4620587825775146,-6.6136794090271,0.9761626720428468,0.3200170397758484,0.831234872341156
1761132226590599400,0.731324315071106,0.0504908561706543,-7.614499092102051,1.2101240158081057,0.0164170041680336,0.8037459254264832
1761132226600599300,0.7592846155166626,-0.4880373477935791,-8.511041641235352,1.454470157623291,-0.3305544555187225,0.8196284174919128
1761132226610598700,1.0206466913223269,-0.9857834577560424,-9.43850326538086,1.6811012029647827,-0.6078872680664062,0.8452847599983215
1761132226620598500,1.621167778968811,-1.398991942405701,-10.29781436920166,1.853976011276245,-0.7325037717819214,0.8232936263084412
1761132226640598500,1.888099312782288,-2.1446681022644043,-10.93462085723877,1.9168951511383057,-0.6860780119895935,0.55695641040802
1761132226650598700,2.1697311401367188,-2.789686918258667,-12.163200378417969,1.7910568714141846,-0.4759403765201568,0.323605865240097
1761132226660598500,1.6573270559310913,-2.9285638332366943,-12.834939002990724,1.5790866613388062,-0.0837648957967758,0.079259768128395
1761132226670598700,1.0936830043792725,-3.1526095867156982,-13.03818702697754,1.2675453424453735,0.3572798073291778,-0.1485929638147354
1761132226680598500,0.5258808732032776,-3.5802536010742188,-13.03655242919922,0.8936958312988281,0.6394995450973511,-0.3770565688610077
1761132226690598700,0.5982514023780823,-3.660273551940918,-13.000747680664062,0.5070181488990784,0.7170794606208801,-0.6097962260246277
1761132226700598500,-0.8092693090438843,-4.363559722900391,-11.42580795288086,0.1435533314943313,0.5710826516151428,-0.7893906235694885
1761132226710599400,-1.2382991313934326,-5.036044120788574,-10.109485626220703,-0.1887573599815368,0.1825723499059677,-0.9250026941299438
1761132226720599600,-1.6939529180526731,-5.625455379486084,-8.876681327819824,-0.2394591718912124,0.0017562375869601,-0.917061448097229
1761132226730599400,-1.8861087560653689,-6.078259468078613,-7.998230934143066,-0.2003637999296188,-0.1253037303686142,-0.8303185701370239
1761132226740599600,-1.8491090536117556,-6.354940414428711,-7.056239604949951,-0.1001818999648094,-0.1906663179397583,-0.7008151412010193
1761132226750599400,-1.6270129680633545,-6.542613983154297,-6.412047863006592,0.0812450796365737,-0.1466840207576751,-0.57436603307724
1761132226760599600,-1.427664279937744,-6.624692916870117,-6.315837860107422,0.313373863697052,-0.0208457764238119,-0.4754058718681335
1761132226770599400,-1.374280571937561,-6.641522407531738,-6.978317737579346,0.5167919993400574,0.1104902476072311,-0.3880521357059479
1761132226780599600,-1.3628790378570557,-6.566464424133301,-7.916799545288086,0.645684540271759,0.2613739669322967,-0.2811507284641266
1761132226790599400,-1.1101422309875488,-6.428777694702148,-8.908920288085938,0.6878342628479004,0.4183663427829742,-0.157145082950592
1761132226800599600,-0.7121602296829224,-6.084344863891602,-9.615618705749512,0.646295428276062,0.5179373621940613,-0.0404698215425014
1761132226810598700,-0.2984707653522491,-5.659902095794678,-9.801102638244627,0.5424483418464661,0.5197699666023254,0.0419969856739044
1761132226820598500,0.3104223310947418,-5.197819709777832,-9.514043807983398,0.4031710624694824,0.4238641262054443,0.0743728429079055
1761132226830598700,0.3850405216217041,-4.579941272735596,-8.486173629760742,0.2302961945533752,0.2937498390674591,0.0181732401251792
1761132226840598500,-0.2436792850494384,-4.197958469390869,-7.389797210693359,0.0616973899304866,0.2839759886264801,-0.0893390402197837
1761132226850598700,-1.333011269569397,-3.917913913726807,-6.190659046173096,-0.1490511149168014,0.4030947089195251,-0.1626428663730621
1761132226860598800,-2.523645162582397,-3.599773645401001,-4.298450946807861,-0.4269948005676269,0.6724863052368164,-0.1882992088794708
1761132226870598700,-3.3950839042663574,-3.3911375999450684,-1.4439215660095217,-0.7336491346359253,1.0457249879837036,-0.1351539343595504
1761132226880598500,-3.8218917846679688,-2.7367897033691406,2.4541549682617188,-0.9944885969161988,1.5099825859069824,0.024892758578062
1761132226890598700,-4.2004241943359375,-1.2154178619384766,7.144604682922363,-1.0836749076843262,2.0066158771514893,0.2478585690259933
1761132226900598500,-5.15181303024292,0.5966343879699707,10.544096946716309,-0.9419541954994202,2.453158378601074,0.4775438904762268
1761132226910599200,-4.93052864074707,1.8331375122070312,13.387166023254396,-0.656680166721344,2.655965805053711,0.6632469296455383
1761132226920599300,-5.8141937255859375,4.031703948974609,15.263717651367188,-0.1918116807937622,2.738432645797729,0.5294674634933472
1761132226930599200,-6.838971138000488,6.1276960372924805,16.074527740478516,0.2364048510789871,2.2772293090820312,0.3242167234420776
1761132226940599300,-6.544515609741211,7.190359115600586,16.666961669921875,0.4563163518905639,0.8710174560546875,0.2985603809356689
1761132226950599200,-5.656959533691406,8.06167221069336,16.994537353515625,0.3463605940341949,0.1837940812110901,0.2991712391376495
1761132226960599300,-4.551807403564453,8.494823455810547,17.531845092773438,0.0152716310694813,-0.1088103726506233,0.2771801054477691
1761132226990599200,-0.0813841819763183,9.155385971069336,12.96193027496338,-0.7947356700897217,1.7427221536636353,0.1934915632009506
1761132227000599300,0.7353572845458984,11.658036231994627,8.411188125610352,-1.1062769889831543,2.031050682067871,0.0358883328735828
1761132227010598400,1.1285042762756348,13.558674812316896,5.153260231018066,-1.692096710205078,1.4714980125427246,-0.2109012305736541
1761132227020598500,0.7978098392486572,13.68490219116211,7.074426651000977,-2.4630086421966557,0.2509892582893371,-0.5016731023788452
1761132227030598400,-0.3951976299285888,12.146605491638184,11.735257148742676,-2.926044464111328,-1.119792342185974,-0.6831000447273254
1761132227040598500,-1.58502459526062,10.256277084350586,16.819530487060547,-2.883283853530884,-2.290210247039795,-0.5322163701057434
1761132227050598400,-0.9824709892272948,8.012280464172363,19.674224853515625,-2.2675318717956543,-3.1906254291534424,-0.0697913542389869
1761132227060598500,1.4117084741592407,6.379946708679199,18.14848899841309,-1.215621829032898,-3.572416305541992,0.4286746978759765
1761132227070598400,4.835646152496338,4.621958255767822,12.675610542297363,-0.1093448773026466,-3.3885459899902344,0.7695375084877014
1761132227080598500,6.956027030944824,2.705374240875244,6.943365097045898,0.7275404930114746,-2.622520923614502,0.6711881756782532
1761132227090598400,5.322835445404053,2.2414309978485107,0.9840726852416992,1.303586483001709,-1.641471266746521,0.1892155110836029
1761132227100598500,2.956516027450561,1.2170357704162598,-4.819035530090332,1.4618005752563477,-0.8424595594406128,-0.1950187236070633
1761132227110599200,0.635356068611145,-0.1387794017791748,-8.150382041931152,1.2107349634170532,-0.335441380739212,-0.3849978148937225
1761132227120599300,-1.302037000656128,-1.4668916463851929,-8.712889671325684,0.8613200187683105,-0.1002582609653472,-0.3947716653347015
1761132227130599200,-2.33817720413208,-2.254629135131836,-7.612024307250977,0.6548475623130798,-0.2651918828487396,-0.257326990365982
1761132227140599300,-2.658613681793213,-2.674661874771118,-6.372369289398193,0.7134906053543091,-0.7062366008758545,-0.011148290708661
1761132227150599200,-1.820750713348389,-2.987447023391724,-5.892453670501709,1.0286970138549805,-1.21264386177063,0.2704605758190155
1761132227160599300,0.09886234998703,-3.2226762771606445,-6.682376384735107,1.46424400806427,-1.645136475563049,0.4903720617294311
1761132227170599200,1.6071020364761353,-3.337993860244751,-8.398094177246094,2.026240110397339,-1.657353758811951,0.4445571899414062
1761132227180599300,1.440054416656494,-3.5242981910705566,-8.33120059967041,2.1514673233032227,-1.3897948265075684,0.211817517876625
1761132227190599200,2.5848560333251958,-3.3841261863708496,-12.978808403015137,2.0360138416290283,-1.0202213525772097,-0.1247692257165908
1761132227200599300,1.9596705436706543,-3.5689001083374023,-14.56796646118164,1.6878206729888916,-0.6133850812911987,-0.5053382515907288
1761132227210598400,1.0952751636505127,-3.900714635848999,-15.350663185119627,1.1789699792861938,-0.2413681298494339,-0.8431467413902283
1761132227220598300,0.1091541349887847,-4.502584934234619,-15.032278060913086,0.6261368989944458,0.0683405473828315,-1.1033753156661987
1761132227230598400,-0.9501954317092896,-5.098027229309082,-13.819899559020996,0.152105450630188,0.2674826085567474,-1.2738068103790283
1761132227240598300,-1.960310935974121,-5.648431777954102,-12.062435150146484,-0.1539380401372909,0.3365103900432586,-1.3403910398483276
1761132227250598400,-2.4730687141418457,-6.053469657897949,-10.488279342651367,-0.2785545587539673,0.2754238545894623,-1.2957979440689087
1761132227260598300,-2.756389141082764,-6.063458442687988,-9.187575340270996,-0.2339613884687423,0.1086576581001281,-1.1748465299606323
1761132227270598400,-2.4015045166015625,-6.007452011108398,-8.469460487365723,-0.0439822971820831,-0.0287870243191719,-1.0099129676818848
1761132227280598500,-2.0564560890197754,-5.94669771194458,-8.744413375854492,0.2034181207418441,-0.0342848114669323,-0.8651378750801086
1761132227290598400,-1.9383505582809448,-5.790661811828613,-9.595312118530272,0.3952298164367676,0.0145844081416726,-0.7906123399734497
1761132227300598500,-2.060809135437012,-5.799929618835449,-10.31791877746582,0.4337143301963806,-0.0281761586666107,-0.7509061098098755
1761132227310599200,-2.1908836364746094,-5.963315486907959,-10.653453826904297,0.3457497358322143,-0.0587194226682186,-0.6983717083930969
1761132227320599300,-2.2706310749053955,-6.042372226715088,-10.521257400512695,0.1838704347610473,-0.0385608673095703,-0.6116288304328918
1761132227330599200,-2.208672523498535,-6.064489841461182,-9.890863418579102,0.0079412478953599,-0.0177914500236511,-0.4882340431213379
1761132227340599300,-1.9755427837371824,-6.00719690322876,-9.098137855529783,-0.1368338167667389,-0.0263435635715723,-0.337961196899414
1761132227350599200,-1.443380355834961,-5.813600063323975,-8.074836730957031,-0.252287358045578,-0.0519999042153358,-0.1730275750160217
1761132227360599300,-0.5712306499481201,-5.689914226531982,-6.97055196762085,-0.351858377456665,-0.0874300897121429,-0.0288633834570646
1761132227370599200,0.1621865332126617,-5.709205150604248,-5.549944877624512,-0.4117231667041778,-0.1081995069980621,0.052381694316864
1761132227380599300,0.1504194438457489,-5.673382759094238,-5.568467140197754,-0.4092797040939331,-0.1631773859262466,0.0542142912745475
1761132227390599200,0.6652546525001526,-5.364776611328125,-2.380906581878662,-0.3286454975605011,-0.212046593427658,0.0163406450301408
1761132227400599300,0.8877093195915222,-5.201857566833496,-1.1751112937927246,-0.171042263507843,-0.1918880492448806,-0.011148290708661
1761132227410598400,0.7156323790550232,-5.0119218826293945,-0.3861837387084961,0.0519235469400882,0.0432950742542743,-0.0374154970049858
1761132227420598300,-0.3946682810783386,-4.494353294372559,0.1357946395874023,0.0335975885391235,0.3273474276065826,-0.0025961773935705
1761132227430598400,-1.4191255569458008,-3.8293185234069824,1.520551681518555,-0.1740965992212295,0.514272153377533,0.1360702365636825
1761132227440598300,-2.2079074382781982,-2.974428415298462,4.595241546630859,-0.4581489264965057,0.6126214861869812,0.3181080818176269
1761132227450598400,-2.8902528285980225,-1.12839937210083,8.47796630859375,-0.6017022728919983,0.7207446098327637,0.536797821521759
1761132227460598300,-2.415480136871338,1.3300213813781738,11.977324485778809,-0.59803706407547,0.7384597063064575,0.8355109095573425
1761132227470598400,-0.4967696666717529,4.274385452270508,15.294353485107422,-0.484416127204895,0.5093852281570435,0.963792622089386
1761132227480598300,0.8068832159042358,6.716441631317139,17.656143188476562,-0.3976732790470123,0.0121409464627504,0.7518224120140076
1761132227490598400,-0.239948034286499,9.049570083618164,19.629737854003903,-0.4758640229701996,-0.6445391774177551,0.2832887470722198
1761132227500598300,-1.53226637840271,9.875396728515623,21.969337463378903,-0.789237916469574,-1.25051748752594,-0.0612392425537109
1761132227510599200,-1.7112513780593872,10.173880577087402,25.016849517822266,-1.197295904159546,-1.6011542081832886,-0.1730275750160217
1761132227520599300,-0.6420313119888306,10.392611503601074,27.168432235717773,-1.4892895221710205,-1.500361442565918,-0.1345430761575698
1761132227530599200,0.8431937098503113,10.499238014221191,27.002342224121094,-1.642616629600525,-0.8882744312286377,-0.0820086598396301
1761132227540599300,1.2176599502563477,10.821621894836426,24.37191200256348,-1.7018705606460571,0.0726166069507598,-0.1241583600640297
1761132227550599200,0.979589581489563,11.09539794921875,20.68143844604492,-1.803274154663086,0.8624653816223145,-0.2579378485679626
1761132227560599300,0.5003129243850708,10.434224128723145,16.427350997924805,-1.957212209701538,1.3016774654388428,-0.4259257912635803
1761132227570599200,-0.1603821218013763,9.43252182006836,11.793201446533203,-2.105041742324829,1.4886022806167605,-0.5792529582977295
1761132227580599300,-1.112828254699707,7.917988300323486,9.33556079864502,-2.345111608505249,1.2894601821899414,-0.7124215960502625
1761132227590599200,-1.985076665878296,5.741762161254883,8.895123481750488,-2.4978280067443848,0.7445683479309082,-0.8022187948226929
1761132227600599300,-2.155813694000244,4.011364936828613,7.646851539611816,-2.3035728931427,0.3151301145553589,-0.7142542004585266
1761132227610598400,-1.6046923398971558,3.044121503829956,5.744877815246582,-1.9101755619049072,0.0219147913157939,-0.4723515510559082
1761132227620598500,-0.5563091039657593,2.4139950275421143,4.240751266479492,-1.4758504629135132,-0.2896264791488647,-0.2163990139961242
1761132227630598400,0.4039649367332458,2.1623358726501465,2.3336896896362305,-0.9755517840385436,-0.4600578844547272,-0.0490219369530677
1761132227640598300,1.0525203943252563,1.7154494524002075,-0.5841217041015625,-0.1270599663257599,-0.0629954785108566,0.0627664029598236
1761132227650598400,0.9256740808486938,1.4614129066467283,-3.110264301300049,0.4318817257881164,0.3633884489536285,0.1177442744374275
1761132227660598300,0.7814694046974182,1.275253415107727,-5.669210910797119,0.9517280459403992,0.6853144764900208,0.2167044430971145
