time,seconds_elapsed,z,y,x
1761131542061434400,0.123434326171875,-3.2227845191955566,0.619941234588623,0.7481502294540405
1761131542090459400,0.15245947265625,-3.214247226715088,0.5882043838500977,0.6221306324005127
1761131542100459500,0.16245947265625,-3.209475040435791,0.5753946304321289,0.5804916620254517
1761131542110459400,0.17245947265625,-3.2223544120788574,0.598701000213623,0.6061036586761475
1761131542120459500,0.18245947265625,-3.2301297187805176,0.6135010719299316,0.6260427832603455
1761131542130459400,0.19245947265625,-3.2332444190979004,0.6192011833190918,0.6321102380752563
1761131542140459500,0.20245947265625,-3.23176908493042,0.6154899597167969,0.6217605471611023
1761131542150459400,0.21245947265625,-3.225615978240967,0.6026592254638672,0.5974212288856506
1761131542160459500,0.22245947265625,-3.2148633003234863,0.5818700790405273,0.5653536915779114
1761131542170459400,0.23245947265625,-3.1975855827331543,0.5519242286682129,0.5384759902954102
1761131542180459500,0.24245947265625,-3.173287868499756,0.5132555961608887,0.5261556506156921
1761131542190459400,0.25245947265625,-3.143624782562256,0.468289852142334,0.5261196494102478
1761131542200459500,0.26245947265625,-3.109923839569092,0.41854143142700195,0.5322582721710205
1761131542210459400,0.27245947265625,-3.073047161102295,0.36521482467651367,0.5420980453491211
1761131542220459500,0.28245947265625,-3.0364813804626465,0.3127145767211914,0.5484280586242676
1761131542230459400,0.29245947265625,-3.006345272064209,0.26824951171875,0.5381494760513306
1761131542240459500,0.30245947265625,-2.9879050254821777,0.23829412460327148,0.503757119178772
1761131542250459400,0.31245947265625,-2.9825878143310547,0.2251272201538086,0.44697871804237366
1761131542260458200,0.322458251953125,-2.9881997108459473,0.22687339782714844,0.3766954839229584
1761131542270458000,0.3324580078125,-3.001248836517334,0.24005508422851562,0.30655521154403687
1761131542280458200,0.342458251953125,-3.0181612968444824,0.26054954528808594,0.2509867548942566
1761131542290458000,0.3524580078125,1.1423511505126953,-2.338386297225952,1.9873926639556885
1761131542300458200,0.362458251953125,0.5769767761230469,-2.24318790435791,1.8275924921035767
1761131542310458000,0.3724580078125,0.1434469223022461,-2.150467872619629,1.4581918716430664
1761131542320458200,0.382458251953125,-0.11705350875854492,-2.0231223106384277,0.9578133821487427
1761131542330458000,0.3924580078125,-0.49381589889526367,-2.0273685455322266,0.5842790603637695
1761131542340458200,0.402458251953125,-0.9725203514099121,-2.166386604309082,0.5603879690170288
1761131542350458000,0.4124580078125,-1.4483609199523926,-2.314746141433716,0.7215418219566345
1761131542360458200,0.422458251953125,-1.939690113067627,-2.3702991008758545,0.8583987951278687
1761131542370458000,0.4324580078125,-2.3760647773742676,-2.3330633640289307,0.9228023290634155
1761131542380458200,0.442458251953125,-2.7541747093200684,-2.2053637504577637,0.8677515983581543
1761131542390458000,0.4524580078125,-3.1671457290649414,-2.0275633335113525,0.8065584897994995
1761131542400458200,0.462458251953125,-3.4651875495910645,-1.8954505920410156,0.8527634739875793
1761131542410458000,0.4724580078125,-3.6652536392211914,-1.789085865020752,0.8902627825737
1761131542420458200,0.482458251953125,-3.6382079124450684,-1.666771411895752,0.8653515577316284
1761131542430458400,0.492458251953125,-3.6091418266296387,-1.707374095916748,0.8316346406936646
1761131542440458200,0.502458251953125,-3.179684638977051,-1.5140776634216309,0.7465590834617615
1761131542450458400,0.512458251953125,-2.5466485023498535,-1.5646567344665527,0.7590500116348267
1761131542460457500,0.52245751953125,-1.880305290222168,-1.5840516090393066,0.8915001153945923
1761131542470457300,0.532457275390625,-1.2771763801574707,-1.5929384231567383,1.1281774044036865
1761131542480457500,0.54245751953125,-0.6611018180847168,-1.5840058326721191,1.3191864490509033
1761131542490457300,0.552457275390625,-0.1135244369506836,-1.5076794624328613,1.315694808959961
1761131542500457500,0.56245751953125,0.35771989822387695,-1.3881011009216309,1.2705885171890259
1761131542510457300,0.572457275390625,0.5860052108764648,-1.3417768478393555,1.234604001045227
1761131542520457500,0.58245751953125,0.701080322265625,-1.2857446670532227,1.2205840349197388
1761131542540457500,0.60245751953125,0.7760539054870605,-1.2640509605407715,1.063572645187378
1761131542550457300,0.612457275390625,0.9370841979980469,-1.2498369216918945,0.9842770099639893
1761131542560458200,0.622458251953125,1.173476219177246,-1.1901626586914062,0.8844194412231445
1761131542570458000,0.6324580078125,1.305084228515625,-1.1900877952575684,0.878084659576416
1761131542580458200,0.642458251953125,1.5295395851135254,-1.208085536956787,0.842146635055542
1761131542590458000,0.6524580078125,2.4856724739074707,-0.9850144386291504,0.6733633279800415
1761131542620458200,0.682458251953125,2.8897838592529297,-0.8009014129638672,0.6215651035308838
1761131542630458400,0.692458251953125,3.1938881874084473,-0.691866397857666,0.7266303896903992
1761131542640458200,0.702458251953125,3.440268039703369,-0.6276469230651855,0.9131914377212524
1761131542650458400,0.712458251953125,3.559760093688965,-0.620610237121582,1.070404052734375
1761131542660457500,0.72245751953125,3.5791006088256836,-0.779869556427002,1.161902666091919
1761131542670457300,0.732457275390625,3.608710289001465,-0.9383177757263184,1.0634489059448242
1761131542680457500,0.74245751953125,3.608159065246582,-1.061208724975586,0.7563061118125916
1761131542690457300,0.752457275390625,3.580477714538574,-1.0205397605895996,0.7659323215484619
1761131542700457500,0.76245751953125,3.579669952392578,-1.0075316429138184,0.44723019003868103
1761131542710457300,0.772457275390625,3.4513769149780273,-0.7533226013183594,0.368161141872406
1761131542720457500,0.78245751953125,3.0049943923950195,-0.6683034896850586,0.6509866714477539
1761131542730457300,0.792457275390625,2.468294143676758,-0.6380672454833984,1.0452815294265747
1761131542740457500,0.80245751953125,1.8974227905273438,-0.5460367202758789,1.3113287687301636
1761131542750457300,0.812457275390625,1.4333696365356445,-0.46921205520629883,1.3612381219863892
1761131542760458200,0.822458251953125,0.9149494171142578,-0.583010196685791,1.4369938373565674
1761131542770458000,0.8324580078125,0.4424018859863281,-0.9326848983764648,1.4595141410827637
1761131542780458200,0.842458251953125,0.11541748046875,-1.3006653785705566,1.3271946907043457
1761131542790458000,0.8524580078125,-0.028284072875976562,-1.5317044258117676,1.0630223751068115
1761131542800458200,0.862458251953125,-0.031226158142089844,-1.6636383533477783,0.5973376631736755
1761131542810458000,0.8724580078125,0.005991935729980469,-1.6694729328155518,0.23196205496788025
1761131542820457500,0.88245751953125,-0.024048805236816406,-1.6415250301361084,-0.03930163383483887
1761131542830457300,0.892457275390625,-0.08475971221923828,-1.6009690761566162,-0.10853862762451172
1761131542840457500,0.90245751953125,-0.26408863067626953,-1.4805939197540283,-0.1262035369873047
1761131542850457300,0.912457275390625,-0.49287891387939453,-1.2972009181976318,-0.1317141205072403
1761131542860456400,0.92245654296875,-0.9024057388305664,-1.1773529052734375,-0.19066226482391357
1761131542870456600,0.93245654296875,-1.2869362831115723,-1.1028413772583008,-0.3384300768375397
1761131542880456400,0.94245654296875,-1.6477923393249512,-1.0554957389831543,-0.6402447819709778
1761131542890456600,0.95245654296875,-1.6544108390808105,-1.0371456146240234,-0.507013201713562
1761131542900456400,0.96245654296875,-2.2823076248168945,-0.8039970397949219,-1.1869282722473145
1761131542910456300,0.972456298828125,-2.4464054107666016,-0.5906672477722168,-1.3761000633239746
1761131542920456400,0.98245654296875,-2.40524959564209,-0.3564610481262207,-1.4903366565704346
1761131542930456300,0.992456298828125,-2.176445960998535,-0.10770225524902344,-1.492163896560669
1761131542940456400,1.00245654296875,-2.0340099334716797,0.027470111846923828,-1.353416919708252
1761131542950456300,1.012456298828125,-1.812469482421875,-0.06239891052246094,-1.0545384883880615
1761131542960457200,1.022457275390625,-1.5284686088562012,-0.24432945251464844,-0.7081845998764038
1761131542970457300,1.032457275390625,-1.1959795951843262,-0.42212438583374023,-0.5045512914657593
1761131542980457200,1.042457275390625,-0.8642096519470215,-0.5266251564025879,-0.47147136926651
1761131542990457300,1.052457275390625,-0.4533987045288086,-0.6143827438354492,-0.668256938457489
1761131543000457200,1.062457275390625,-0.006640434265136719,-0.7811727523803711,-0.972797155380249
1761131543010457300,1.072457275390625,0.5287284851074219,-0.9240355491638184,-1.3659815788269043
1761131543020457200,1.082457275390625,1.0258417129516602,-1.0237226486206055,-1.8302935361862183
1761131543030457300,1.092457275390625,1.3293533325195312,-1.1633899211883545,-2.132115602493286
1761131543050457300,1.112457275390625,1.4616613388061523,-1.3293380737304688,-2.2427523136138916
1761131543060456400,1.12245654296875,1.4655752182006836,-1.3307929039001465,-2.214865207672119
1761131543070456600,1.13245654296875,1.0833616256713867,-1.1294429302215576,-2.46506667137146
1761131543080456400,1.14245654296875,0.7977619171142578,-0.9471373558044434,-2.4256043434143066
1761131543090456600,1.15245654296875,0.5632705688476562,-0.7883968353271484,-2.16170072555542
1761131543100456400,1.16245654296875,0.37011051177978516,-0.762688159942627,-1.7635746002197266
1761131543110456600,1.17245654296875,0.1634664535522461,-0.7878704071044922,-1.2885187864303589
1761131543120457500,1.18245751953125,0.15698814392089844,-0.717198371887207,-1.0406320095062256
1761131543130457300,1.192457275390625,0.38172435760498047,-0.5846176147460938,-1.1366102695465088
1761131543140457500,1.20245751953125,0.5226840972900391,-0.5547685623168945,-1.2338058948516846
1761131543150457300,1.212457275390625,0.7490081787109375,-0.6496481895446777,-1.1087803840637207
1761131543160458200,1.222458251953125,0.9708786010742188,-0.6922335624694824,-1.0239957571029663
1761131543170458000,1.2324580078125,1.1902179718017578,-0.5690865516662598,-1.015937328338623
1761131543180458200,1.242458251953125,1.5339441299438477,-0.3976020812988281,-0.9526066184043884
1761131543190458400,1.252458251953125,2.1704139709472656,-0.24163341522216797,-0.9370224475860596
1761131543200458200,1.262458251953125,2.144083023071289,-0.20055627822875977,-0.9622310996055603
1761131543210458400,1.272458251953125,3.848958969116211,-0.6760044097900391,-1.2399518489837646
1761131543220458200,1.282458251953125,4.338788032531738,-1.1597487926483154,-1.2578766345977783
1761131543230458000,1.2924580078125,4.248663902282715,-1.6068570613861084,-1.1113895177841187
1761131543240458200,1.302458251953125,3.7152843475341797,-2.001213788986206,-0.6683838367462158
1761131543250458000,1.3124580078125,2.9119338989257812,-2.0687248706817627,-0.2237464189529419
1761131543260457500,1.32245751953125,2.1978349685668945,-1.449514389038086,-0.342318594455719
1761131543270457300,1.332457275390625,1.568338394165039,-0.6510696411132812,-0.8770655393600464
1761131543280457200,1.342457275390625,0.8518457412719727,0.03699684143066406,-1.0620193481445312
1761131543290457300,1.352457275390625,0.8941764831542969,-0.03025341033935547,-0.9949020147323608
1761131543300457200,1.362457275390625,0.4437875747680664,0.49768924713134766,-0.7755657434463501
1761131543310457300,1.372457275390625,0.7895984649658203,0.5354676246643066,-0.8601906895637512
1761131543320457200,1.382457275390625,1.152348518371582,-0.012511730194091797,-0.7551815509796143
1761131543330457300,1.392457275390625,1.3955535888671875,-0.900871753692627,-0.2467896044254303
1761131543340457200,1.402457275390625,1.6913251876831055,-1.811445951461792,0.3171437382698059
1761131543350457300,1.412457275390625,1.8231887817382812,-2.540006637573242,0.6145912408828735
1761131543360458200,1.422458251953125,1.7822675704956055,-2.909438371658325,0.7270849943161011
1761131543370458000,1.4324580078125,1.6321525573730469,-2.991673469543457,0.7807984352111816
1761131543380458200,1.442458251953125,1.3284692764282227,-2.719996690750122,0.7595452666282654
1761131543390458000,1.4524580078125,0.9216728210449219,-2.2527153491973877,0.6184069514274597
1761131543400458200,1.462458251953125,0.41782474517822266,-1.812006950378418,0.2731516659259796
1761131543410458000,1.4724580078125,0.4052925109863281,-1.789017677307129,0.34096813201904297
1761131543420458500,1.48245849609375,-0.9865803718566895,-1.5645368099212646,0.24368783831596375
1761131543430458400,1.492458251953125,-1.6303248405456543,-1.6132586002349854,0.3162434697151184
1761131543440458500,1.50245849609375,-2.004383087158203,-1.6510765552520752,0.16831044852733612
1761131543450458400,1.512458251953125,-2.2045631408691406,-1.614022970199585,-0.11406576633453369
1761131543460457500,1.52245751953125,-2.1852598190307617,-1.5606024265289307,-0.43767768144607544
1761131543470457600,1.53245751953125,-1.9702935218811035,-1.50663161277771,-0.6566457152366638
1761131543480457500,1.54245751953125,-1.6530537605285645,-1.414644718170166,-0.708710789680481
1761131543490457600,1.55245751953125,-1.3864145278930664,-1.3867998123168945,-0.4744316339492798
1761131543500457500,1.56245751953125,-1.198042869567871,-1.4597504138946533,-0.15818184614181519
1761131543510457600,1.57245751953125,-0.9820108413696289,-1.3853323459625244,0.03818553686141968
1761131543520457500,1.58245751953125,-0.6414527893066406,-1.1745338439941406,0.026237905025482178
1761131543530457600,1.59245751953125,-0.5062055587768555,-0.9552156925201416,-0.11696887016296387
1761131543540457500,1.60245751953125,-0.45993518829345703,-0.8425254821777344,-0.28207606077194214
1761131543550457600,1.61245751953125,-0.22883129119873047,-0.7900223731994629,-0.5093985199928284
1761131543560458500,1.62245849609375,-0.11984443664550781,-0.7058472633361816,-0.7396957874298096
1761131543570458400,1.632458251953125,-0.011759757995605469,-0.7128100395202637,-0.8719075918197632
1761131543580458500,1.64245849609375,0.09761714935302734,-0.747520923614502,-0.9601302146911621
1761131543590458400,1.652458251953125,0.1791982650756836,-0.7511715888977051,-0.9470572471618652
1761131543600458500,1.66245849609375,0.3495149612426758,-0.7866511344909668,-0.9410902261734009
1761131543610458400,1.672458251953125,0.5768976211547852,-0.788114070892334,-0.9758185744285583
1761131543620458500,1.68245849609375,0.6047048568725586,-0.8360991477966309,-1.0467687845230103
1761131543630458400,1.692458251953125,0.5289888381958008,-1.0459504127502441,-0.939911425113678
1761131543640458500,1.70245849609375,0.4953794479370117,-1.0889968872070312,-0.9807900190353394
1761131543650458400,1.712458251953125,0.4262409210205078,-1.1025333404541016,-1.1019209623336792
1761131543660457700,1.722457763671875,0.4783353805541992,-0.9863905906677246,-1.2840288877487183
1761131543670457600,1.73245751953125,0.6499910354614258,-0.7355589866638184,-1.509092926979065
1761131543680457700,1.742457763671875,0.7927379608154297,-0.7151069641113281,-1.508675456047058
1761131543690457600,1.75245751953125,0.9782438278198242,-0.7417044639587402,-1.5008111000061035
1761131543700457700,1.762457763671875,1.4078350067138672,-0.8358635902404785,-1.6119539737701416
1761131543710457600,1.77245751953125,1.9650697708129883,-1.0308480262756348,-1.779846429824829
1761131543720457500,1.78245751953125,2.51584529876709,-1.3837566375732422,-1.9681049585342407
1761131543730457300,1.792457275390625,3.185525894165039,-1.8205127716064453,-2.144439220428467
1761131543740457500,1.80245751953125,3.9355030059814453,-2.1377010345458984,-2.526362419128418
1761131543750457300,1.812457275390625,4.521204948425293,-2.351072072982788,-3.023880958557129
1761131543760458200,1.822458251953125,4.688828468322754,-2.6699774265289307,-3.3193583488464355
1761131543770458000,1.8324580078125,4.392977714538574,-3.138343334197998,-3.2773470878601074
1761131543780458200,1.842458251953125,3.682400703430176,-3.633319616317749,-2.955894947052002
1761131543790458000,1.8524580078125,3.077334403991699,-3.7156460285186768,-2.7300052642822266
1761131543800458200,1.862458251953125,2.287735939025879,-3.5227890014648438,-2.6507327556610107
1761131543810458000,1.8724580078125,1.4083261489868164,-3.320451498031616,-2.632107734680176
1761131543820458200,1.882458251953125,0.7330226898193359,-3.2501988410949707,-2.3494720458984375
1761131543830424800,1.8924248046875,0.24129581451416016,-3.181788444519043,-2.0732295513153076
1761131543840391700,1.9023916015625,-0.04595375061035156,-2.9837965965270996,-1.8466389179229736
1761131543850358300,1.912358154296875,-0.03798389434814453,-2.7075307369232178,-1.5471866130828857
1761131543860324000,1.922323974609375,0.003975868225097656,-2.488330841064453,-1.3952558040618896
1761131543870291000,1.932291015625,0.24694347381591797,-2.377703905105591,-1.2786933183670044
1761131543880257500,1.942257568359375,0.70391845703125,-2.3476836681365967,-1.2736958265304565
1761131543890224000,1.95222412109375,1.350301742553711,-2.3844878673553467,-1.4677512645721436
1761131543900190700,1.962190673828125,1.8531723022460938,-2.5569629669189453,-1.949763298034668
1761131543910157600,1.972157470703125,2.357198715209961,-2.7708704471588135,-2.509416103363037
1761131543920124200,1.982124267578125,2.578701972961426,-2.991086721420288,-3.117687702178955
1761131543930090800,1.9920908203125,2.6290884017944336,-3.1287784576416016,-3.739471912384033
1761131543940057300,2.002057373046875,2.4824581146240234,-3.234483242034912,-4.306310653686523
1761131543950024000,2.01202392578125,2.204422950744629,-3.2267394065856934,-4.547813415527344
1761131543959991600,2.021991455078125,1.8416824340820312,-3.1660637855529785,-4.586580276489258
1761131543972679400,2.034679443359375,1.5091466903686523,-3.0961523056030273,-4.4401936531066895
1761131543982646000,2.04464599609375,1.1649436950683594,-3.095317840576172,-4.230833530426025
1761131543992612600,2.054612548828125,0.8620748519897461,-3.169773817062378,-3.9546608924865723
1761131544002579200,2.0645791015625,0.45153331756591797,-3.246788501739502,-3.510444164276123
1761131544012546000,2.074546142578125,0.09296703338623047,-3.311281681060791,-3.157207727432251
1761131544022512600,2.0845126953125,-0.21984291076660156,-3.3473916053771973,-2.8631556034088135
1761131544032479200,2.094479248046875,-0.5410690307617188,-3.3468847274780273,-2.6918063163757324
1761131544042446000,2.104446044921875,-0.8133831024169922,-3.312622547149658,-2.609557628631592
1761131544052412700,2.11441259765625,-1.021803855895996,-3.2953109741210938,-2.5957558155059814
1761131544062378500,2.12437841796875,-0.9712233543395996,-3.2432570457458496,-2.554758310317993
1761131544072345000,2.134344970703125,-0.9787936210632324,-3.229006767272949,-2.557443141937256
1761131544082312000,2.14431201171875,-0.714604377746582,-3.4476544857025146,-2.660024404525757
1761131544092278500,2.154278564453125,-0.5774526596069336,-3.6922965049743652,-2.7943248748779297
1761131544102245000,2.1642451171875,-0.35309314727783203,-3.9090940952301025,-2.958190441131592
1761131544112211700,2.174211669921875,-0.007342338562011719,-4.061647891998291,-3.264965057373047
1761131544122178600,2.184178466796875,0.6185998916625977,-4.273934841156006,-3.66390061378479
1761131544132178400,2.194178466796875,1.188302993774414,-4.458868026733398,-3.929640769958496
1761131544142178600,2.204178466796875,1.4849214553833008,-4.65328311920166,-4.10850715637207
1761131544152178400,2.214178466796875,1.5388736724853516,-4.977385997772217,-4.2299699783325195
1761131544162179300,2.224179443359375,1.5053834915161133,-5.303734302520752,-4.296972274780273
1761131544172179200,2.23417919921875,1.4144372940063477,-5.2247419357299805,-4.6157732009887695
1761131544182179300,2.244179443359375,1.5666389465332031,-4.669349193572998,-5.1707258224487305
1761131544192179200,2.25417919921875,1.9036684036254883,-4.068142414093018,-5.712958335876465
1761131544202179300,2.264179443359375,2.4180421829223633,-3.670240640640259,-6.299775123596191
1761131544212179200,2.27417919921875,3.04874324798584,-3.4488582611083984,-6.783372402191162
1761131544222179300,2.284179443359375,3.5635557174682617,-3.5076498985290527,-6.831852912902832
1761131544232179200,2.29417919921875,4.205788612365723,-3.8121180534362793,-6.2875518798828125
1761131544242179300,2.304179443359375,5.027132034301758,-3.933596611022949,-5.73391056060791
1761131544252179200,2.31417919921875,5.7494659423828125,-3.917362689971924,-5.040315628051758
1761131544262178300,2.32417822265625,6.316978454589844,-3.840423583984375,-4.121054172515869
1761131544272178400,2.334178466796875,6.569862365722656,-3.9460649490356445,-2.8958590030670166
1761131544282178300,2.34417822265625,6.419742584228516,-4.230233669281006,-1.718751311302185
1761131544292178400,2.354178466796875,5.962934494018555,-4.593536853790283,-0.8537108898162842
1761131544302178300,2.36417822265625,5.448464393615723,-4.724213123321533,-0.6147363185882568
1761131544312178400,2.374178466796875,5.44798469543457,-4.656280517578125,-0.7133510112762451
1761131544322178300,2.38417822265625,3.7680740356445312,-4.298933506011963,-1.2985948324203491
1761131544332178400,2.394178466796875,2.906010627746582,-3.8859527111053467,-1.7928035259246826
1761131544342178300,2.40417822265625,2.1485042572021484,-3.5465214252471924,-2.0899105072021484
1761131544352178400,2.414178466796875,1.6620473861694336,-3.0776002407073975,-2.292900800704956
1761131544362179000,2.424178955078125,1.4150609970092773,-2.845122814178467,-2.3397600650787354
1761131544372179200,2.43417919921875,1.0799579620361328,-2.859628200531006,-2.15130352973938
1761131544382179000,2.444178955078125,1.0241060256958008,-2.7980713844299316,-2.0311825275421143
1761131544392179200,2.45417919921875,0.2924985885620117,-2.940305709838867,-1.1526551246643066
1761131544402179000,2.464178955078125,-0.036640167236328125,-2.8297157287597656,-0.8044335842132568
1761131544412179200,2.47417919921875,-0.2850980758666992,-2.514220952987671,-0.6069076061248779
1761131544422179000,2.484178955078125,-0.46928977966308594,-2.1227660179138184,-0.4104670286178589
1761131544432179200,2.49417919921875,-0.4557991027832031,-1.7394787073135376,-0.29770636558532715
1761131544442179000,2.504178955078125,-0.27348899841308594,-1.371629238128662,-0.08622753620147705
1761131544452179200,2.51417919921875,-0.1272592544555664,-1.077324390411377,0.1878948211669922
1761131544462178300,2.52417822265625,-0.05279254913330078,-0.8797769546508789,0.5352869033813477
1761131544472178400,2.534178466796875,0.07605934143066406,-0.7956712245941162,1.0623104572296143
1761131544482178300,2.54417822265625,0.13449382781982422,-0.6280086040496826,1.4294096231460571
1761131544492178400,2.554178466796875,0.43533992767333984,-0.2885160446166992,1.3908793926239014
1761131544502178300,2.56417822265625,1.1820812225341797,0.017199277877807617,1.29649817943573
1761131544512178400,2.574178466796875,1.8789958953857422,0.2120521068572998,1.3111170530319214
1761131544522178300,2.58417822265625,2.2450714111328125,0.18320560455322266,1.572516918182373
1761131544532178400,2.594178466796875,2.158052444458008,0.04657745361328125,2.0854525566101074
1761131544542178300,2.60417822265625,1.800471305847168,-0.11772847175598145,2.6251299381256104
1761131544552178400,2.614178466796875,1.2492866516113281,-0.026160717010498047,2.8684253692626953
1761131544562179300,2.624179443359375,0.5822582244873047,0.2979884147644043,2.772435188293457
1761131544572179200,2.63417919921875,0.026740074157714844,0.800269365310669,2.3654537200927734
1761131544582179300,2.644179443359375,-0.4307584762573242,1.2680799961090088,1.7311038970947266
1761131544592179200,2.65417919921875,-0.8317165374755859,1.4161286354064941,1.3942290544509888
1761131544602179300,2.664179443359375,-1.2683696746826172,1.3823175430297852,1.1391853094100952
1761131544612179200,2.67417919921875,-1.5704998970031738,1.267904281616211,0.8939526081085205
1761131544622179300,2.684179443359375,-1.8255515098571777,1.1642191410064697,0.7296806573867798
1761131544632179200,2.69417919921875,-2.097080707550049,1.0775809288024902,0.6678056716918945
1761131544642179300,2.704179443359375,-2.36289644241333,1.0431225299835205,0.5249210596084595
1761131544652179200,2.71417919921875,-2.446300983428955,1.088674783706665,0.3804209232330322
1761131544662178300,2.72417822265625,-2.338257312774658,1.164720058441162,0.17649531364440918
1761131544672178400,2.734178466796875,-2.0908780097961426,1.2216806411743164,-0.08413124084472656
1761131544682178300,2.74417822265625,-1.7743377685546875,1.3336830139160156,-0.3174095153808594
1761131544692178400,2.754178466796875,-1.389185905456543,1.4104630947113037,-0.47364524006843567
1761131544702178300,2.76417822265625,-0.7595767974853516,1.4913129806518555,-0.5530455708503723
1761131544712178400,2.774178466796875,-0.7773561477661133,1.5337989330291748,-0.48319172859191895
1761131544722178300,2.78417822265625,0.5859317779541016,1.293198585510254,-0.3918386399745941
1761131544732178400,2.794178466796875,1.3676328659057617,1.1328725814819336,-0.24671676754951477
1761131544742178300,2.80417822265625,2.023312568664551,0.9803206920623779,0.02229517698287964
1761131544752178400,2.814178466796875,2.442354202270508,0.807201623916626,0.3627117872238159
1761131544762179300,2.824179443359375,2.413787841796875,0.7093851566314697,0.8477239608764648
1761131544772179200,2.83417919921875,2.1509933471679688,0.6835665702819824,1.297576904296875
1761131544782179300,2.844179443359375,1.9528722763061523,0.7724752426147461,1.3573846817016602
1761131544792179200,2.85417919921875,1.853856086730957,0.892827033996582,1.104583740234375
1761131544802179300,2.864179443359375,1.7930688858032227,0.9660882949829102,0.8162291646003723
1761131544812179200,2.87417919921875,1.8202943801879883,0.9169111251831055,0.7019839882850647
1761131544822179300,2.884179443359375,1.906590461730957,0.7427358627319336,0.8465871810913086
1761131544832179200,2.89417919921875,1.8102235794067383,0.589698076248169,1.1464121341705322
1761131544842179300,2.904179443359375,1.7399187088012695,0.47679734230041504,1.4352929592132568
1761131544852179200,2.91417919921875,1.662522315979004,0.4563710689544678,1.5419387817382812
1761131544862178300,2.92417822265625,1.6622390747070312,0.45062899589538574,1.5906767845153809
1761131544872178400,2.934178466796875,0.9443387985229492,0.37352514266967773,1.3154807090759277
1761131544882178300,2.94417822265625,0.504669189453125,0.34551477432250977,1.1240410804748535
1761131544892178400,2.954178466796875,0.5055322647094727,0.337749719619751,1.1859893798828125
1761131544902178300,2.96417822265625,-0.408966064453125,0.2888805866241455,0.8297227025032043
1761131544912178400,2.974178466796875,-0.6546392440795898,0.3098132610321045,0.5879387855529785
1761131544922178300,2.98417822265625,-0.765894889831543,0.2756528854370117,0.2659250795841217
1761131544932178400,2.994178466796875,-0.8333253860473633,0.24396920204162598,-0.039388738572597504
1761131544942178300,3.00417822265625,-0.8216438293457031,0.1790001392364502,-0.26058870553970337
1761131544952178400,3.014178466796875,-0.8141956329345703,0.05007672309875488,-0.3864978551864624
1761131544962179300,3.024179443359375,-0.8293704986572266,-0.09055972099304199,-0.4332256317138672
1761131544972179200,3.03417919921875,-0.9097557067871094,-0.2227311134338379,-0.4965004026889801
1761131544982179300,3.044179443359375,-1.0806541442871094,-0.3405553102493286,-0.4773460030555725
1761131544992179200,3.05417919921875,-1.393519401550293,-0.3411067724227905,-0.4499167203903198
1761131545002179300,3.064179443359375,-1.8018927574157715,-0.1976919174194336,-0.32295045256614685
1761131545012179200,3.07417919921875,-2.2235360145568848,-0.010172128677368164,-0.1760319471359253
1761131545022179300,3.084179443359375,-2.6338887214660645,0.13455557823181152,-0.09597328305244446
1761131545032179200,3.09417919921875,-2.836297035217285,0.30376577377319336,-0.041480958461761475
1761131545042179300,3.104179443359375,-2.9866256713867188,0.36585140228271484,0.02430140972137451
1761131545052179200,3.11417919921875,-3.389237403869629,0.32109546661376953,0.18624165654182434
1761131545062178600,3.124178466796875,-4.01550817489624,0.18622565269470215,0.341881662607193
1761131545072178400,3.134178466796875,-4.527998924255371,0.11916279792785645,0.3646209239959717
1761131545082178600,3.144178466796875,-4.894079685211182,0.17737436294555664,0.2538752853870392
1761131545092178400,3.154178466796875,-4.959112167358398,0.5093753337860107,0.057273268699645996
1761131545102178300,3.16417822265625,-4.804602146148682,0.8690779209136963,-0.15481966733932495
1761131545112178400,3.174178466796875,-4.626344680786133,1.0536060333251953,-0.18585264682769775
1761131545122178300,3.18417822265625,-4.281732082366943,1.117037057876587,-0.10976570844650269
1761131545132178400,3.194178466796875,-3.8369994163513184,1.1630020141601562,0.0682460367679596
1761131545142178300,3.20417822265625,-3.3646044731140137,1.2569522857666016,0.33774614334106445
1761131545152178400,3.214178466796875,-2.5916318893432617,1.376291036605835,0.49189114570617676
1761131545162179300,3.224179443359375,-1.5563149452209473,1.5416452884674072,0.43715664744377136
1761131545172179200,3.23417919921875,-0.6628007888793945,1.6055114269256592,0.4263369143009186
1761131545182179300,3.244179443359375,0.1508769989013672,1.5940840244293213,0.3571925461292267
1761131545192179200,3.25417919921875,0.9387569427490234,1.62221097946167,0.28906264901161194
1761131545202179300,3.264179443359375,1.630143165588379,1.7668499946594238,0.29041701555252075
1761131545212179200,3.27417919921875,2.22451114654541,1.96779203414917,0.29798296093940735
1761131545222179300,3.284179443359375,2.647146224975586,2.0345733165740967,0.41290080547332764
1761131545232179200,3.29417919921875,3.0191564559936523,2.075087785720825,0.5590246915817261
1761131545242179300,3.304179443359375,3.37099552154541,2.1867268085479736,0.6659786701202393
1761131545252179200,3.31417919921875,3.5699291229248047,2.2723424434661865,0.7243872880935669
1761131545262178300,3.32417822265625,3.523466110229492,2.27980637550354,0.7890720367431641
1761131545272178400,3.334178466796875,3.521481513977051,2.2869021892547607,0.8022360801696777
1761131545282178300,3.34417822265625,3.20925235748291,2.3456473350524902,0.7985557913780212
1761131545292178400,3.354178466796875,3.1102733612060547,2.4747347831726074,0.7188460826873779
1761131545302178300,3.36417822265625,2.890615463256836,2.4666481018066406,0.7044587731361389
1761131545312178400,3.374178466796875,2.7024354934692383,2.306670665740967,0.7053653597831726
1761131545322178300,3.38417822265625,2.5494775772094727,2.116140604019165,0.687195897102356
1761131545332178400,3.394178466796875,2.610309600830078,2.0956215858459473,0.5169241428375244
1761131545342178300,3.40417822265625,2.9031448364257812,2.1416330337524414,0.3001570999622345
1761131545352178400,3.414178466796875,3.3388233184814453,2.0291566848754883,0.23341654241085052
1761131545362179000,3.424178955078125,3.6947555541992188,1.6643896102905273,0.2774057686328888
1761131545372179200,3.43417919921875,3.945664405822754,1.1961853504180908,0.3487313985824585
1761131545382179000,3.444178955078125,3.9230709075927734,0.7811884880065918,0.2881923317909241
1761131545392179200,3.45417919921875,3.3651485443115234,0.4440438747406006,0.2531391680240631
1761131545402179000,3.464178955078125,2.560760498046875,0.28778529167175293,0.46510210633277893
1761131545412179200,3.47417919921875,1.661820411682129,0.4823005199432373,0.6117371320724487
1761131545422179300,3.484179443359375,0.7609148025512695,0.819225549697876,0.6304020285606384
1761131545432179200,3.49417919921875,-0.20837688446044922,1.2326679229736328,0.5953416228294373
1761131545442179300,3.504179443359375,-0.9090147018432617,1.6374800205230713,0.6432554721832275
1761131545452179200,3.51417919921875,-1.4483098983764648,2.006068468093872,0.5798793435096741
1761131545462178300,3.52417822265625,-1.7987818717956543,2.267127275466919,0.5213488340377808
1761131545472178400,3.534178466796875,-1.8501434326171875,2.4204866886138916,0.5582404136657715
1761131545482178300,3.54417822265625,-1.620307445526123,2.474419116973877,0.5883960127830505
1761131545492178400,3.554178466796875,-1.1309432983398438,2.302478075027466,0.771672248840332
1761131545502178300,3.56417822265625,-0.5503625869750977,1.9874346256256104,1.0649464130401611
1761131545512178400,3.574178466796875,0.24234294891357422,1.5922024250030518,1.4664204120635986
1761131545522178300,3.58417822265625,1.062652587890625,1.1774678230285645,1.9773318767547607
1761131545532178400,3.594178466796875,1.5536584854125977,0.8442668914794922,2.5645029544830322
1761131545542178300,3.60417822265625,1.799128532409668,0.5927131175994873,3.1348941326141357
1761131545552178400,3.614178466796875,1.825861930847168,0.30243372917175293,3.595069646835327
1761131545562179300,3.624179443359375,1.6221094131469727,0.07629060745239258,3.8004813194274902
1761131545572179200,3.63417919921875,0.937830924987793,0.011668205261230469,3.6534247398376465
1761131545582179300,3.644179443359375,0.07571125030517578,-0.030324935913085938,3.310621738433838
1761131545592179200,3.65417919921875,-0.8938703536987305,-0.13829684257507324,2.954190254211426
1761131545602179300,3.664179443359375,-1.9440903663635254,-0.2730522155761719,2.6067006587982178
1761131545612179200,3.67417919921875,-2.874192237854004,-0.38261938095092773,2.218078374862671
1761131545622179300,3.684179443359375,-3.7690043449401855,-0.4592764377593994,1.8373022079467773
1761131545632179200,3.69417919921875,-4.4188313484191895,-0.5160901546478271,1.606338620185852
1761131545642179300,3.704179443359375,-4.908463954925537,-0.6299788951873779,1.4134414196014404
1761131545652179200,3.71417919921875,-5.216346263885498,-0.7509675025939941,1.3215396404266357
1761131545662178300,3.72417822265625,-5.301150321960449,-0.8684225082397461,1.2928202152252197
1761131545672178400,3.734178466796875,-5.293729782104492,-1.0704941749572754,1.2424988746643066
1761131545682178300,3.74417822265625,-5.233637809753418,-1.2737176418304443,1.2230780124664307
1761131545692178400,3.754178466796875,-5.109508514404297,-1.376765489578247,1.215407371520996
1761131545702178300,3.76417822265625,-5.086503028869629,-1.4303202629089355,1.2054790258407593
1761131545712178400,3.774178466796875,-4.6712164878845215,-1.4135971069335938,1.057573676109314
1761131545722178300,3.78417822265625,-4.2180328369140625,-1.2838695049285889,0.7912312150001526
1761131545732178400,3.794178466796875,-3.626288414001465,-1.1227641105651855,0.49880796670913696
1761131545742178300,3.80417822265625,-3.0663552284240723,-1.0701923370361328,0.2478325366973877
1761131545752178400,3.814178466796875,-2.508310317993164,-1.0971989631652832,0.21764637529850006
1761131545762179300,3.824179443359375,-2.0678257942199707,-1.1137409210205078,0.2350931018590927
1761131545772179200,3.83417919921875,-1.7576870918273926,-1.04884934425354,0.19145458936691284
1761131545782179300,3.844179443359375,-1.4425296783447266,-0.8836801052093506,0.03499290347099304
1761131545792179200,3.85417919921875,-1.2248845100402832,-0.7077178955078125,-0.17434440553188324
1761131545802179300,3.864179443359375,-0.9275274276733398,-0.43491196632385254,-0.39509642124176025
1761131545812179200,3.87417919921875,-0.8861808776855469,-0.30118560791015625,-0.4807981252670288
1761131545822178600,3.884178466796875,-0.8454322814941406,-0.1995546817779541,-0.4552994668483734
1761131545832178400,3.894178466796875,-0.7055387496948242,-0.10178685188293457,-0.36583369970321655
1761131545842178300,3.90417822265625,-0.4369392395019531,0.038791656494140625,-0.45099127292633057
1761131545852178400,3.914178466796875,0.16901111602783203,0.3131380081176758,-0.6853254437446594
1761131545862179300,3.924179443359375,1.3102664947509766,0.6624505519866943,-0.8913657069206238
1761131545872179500,3.934179443359375,2.2039365768432617,0.7520253658294678,-1.1211669445037842
1761131545882179300,3.944179443359375,3.0259904861450195,0.540585994720459,-1.199096441268921
1761131545892179500,3.954179443359375,3.7803335189819336,0.3142116069793701,-1.1962997913360596
1761131545902179300,3.964179443359375,4.420435905456543,0.22944307327270508,-1.240754246711731
1761131545912179500,3.974179443359375,5.046754837036133,0.32478928565979004,-1.1888110637664795
1761131545922179300,3.984179443359375,5.49915885925293,0.4481229782104492,-0.9993351697921753
1761131545932179500,3.994179443359375,5.733931541442871,0.5509889125823975,-0.7525948286056519
1761131545942179300,4.004179443359375,5.691100120544434,0.6924135684967041,-0.7712404727935791
1761131545952179500,4.014179443359375,5.870025634765625,0.9254276752471924,-0.4144548177719116
1761131545962180400,4.024180419921875,5.648968696594238,1.058481216430664,-0.2546972334384918
1761131545972180200,4.03418017578125,5.106606483459473,0.9578633308410645,-0.12157844007015228
1761131545982180400,4.044180419921875,4.487388610839844,0.8045103549957275,-0.0467173308134079
1761131545992180200,4.05418017578125,3.6945667266845703,0.6544926166534424,-0.005024030804634094
1761131546002180400,4.064180419921875,2.8302478790283203,0.6234793663024902,0.05240209400653839
1761131546012180200,4.07418017578125,2.0516176223754883,0.686957836151123,0.12189861387014389
1761131546022180400,4.084180419921875,1.3648452758789062,0.8862061500549316,0.2192433476448059
1761131546032180200,4.09418017578125,1.3697586059570312,0.8694782257080078,0.305929034948349
1761131546042180400,4.104180419921875,0.3510465621948242,1.071164846420288,0.6364977955818176
1761131546052180200,4.11418017578125,0.08176994323730469,1.0171356201171875,0.8726032972335815
1761131546062179600,4.1241796875,-0.09267807006835938,0.9293797016143799,1.0722416639328003
1761131546072179500,4.134179443359375,-0.2951326370239258,0.7159864902496338,1.3145649433135986
1761131546082179300,4.144179443359375,-0.46332740783691406,0.4610629081726074,1.4980803728103638
1761131546092179500,4.154179443359375,-0.7790327072143555,0.26375484466552734,1.634151577949524
1761131546102179300,4.164179443359375,-1.269251823425293,0.028178930282592773,1.7241010665893555
1761131546112179500,4.174179443359375,-1.8682446479797363,-0.12489533424377441,1.74208402633667
1761131546122180400,4.184180419921875,-2.5058412551879883,-0.2789633274078369,1.655059576034546
1761131546132180200,4.19418017578125,-3.155353546142578,-0.3238523006439209,1.4424293041229248
1761131546142180400,4.204180419921875,-3.7447400093078613,-0.29642248153686523,1.1610997915267944
1761131546152180200,4.21418017578125,-4.185189723968506,-0.2537992000579834,0.776381254196167
1761131546162179300,4.224179443359375,-4.596898555755615,-0.20576691627502441,0.43171530961990356
1761131546172179200,4.23417919921875,-4.960752964019775,-0.15649700164794922,0.12456810474395752
1761131546182179300,4.244179443359375,-5.193904876708984,-0.12445950508117676,-0.0659186840057373
1761131546192179200,4.25417919921875,-5.299543857574463,-0.003427743911743164,-0.26068687438964844
1761131546202179300,4.264179443359375,-5.367581844329834,0.1414198875427246,-0.41673970222473145
1761131546212179200,4.27417919921875,-5.356019496917725,0.27329087257385254,-0.5056201219558716
1761131546222179000,4.284178955078125,-5.184366703033447,0.4059603214263916,-0.5540916919708252
1761131546232179200,4.29417919921875,-4.970655918121338,0.5007462501525879,-0.5992931127548218
1761131546242179000,4.304178955078125,-4.629290580749512,0.5644500255584717,-0.6255009174346924
1761131546252179200,4.31417919921875,-4.627385139465332,0.5507338047027588,-0.6470659971237183
1761131546262178300,4.32417822265625,-3.5881834030151367,0.7865443229675293,-0.9714312553405762
1761131546272178400,4.334178466796875,-2.896087646484375,0.9181673526763916,-1.226459264755249
1761131546282178300,4.34417822265625,-2.2080130577087402,0.9477531909942627,-1.485079050064087
1761131546292178400,4.354178466796875,-1.2814512252807617,1.075077772140503,-1.6465535163879395
1761131546302178300,4.36417822265625,-0.45344066619873047,1.284879207611084,-1.6780447959899902
1761131546312178400,4.374178466796875,0.21229171752929688,1.3714919090270996,-1.5837125778198242
1761131546322178300,4.38417822265625,0.7489118576049805,1.4126958847045898,-1.4239503145217896
1761131546332178400,4.394178466796875,1.0684890747070312,1.440788984298706,-1.4710557460784912
1761131546342178300,4.40417822265625,1.3413610458374023,1.529662847518921,-1.6716245412826538
1761131546352178400,4.414178466796875,1.5584659576416016,1.6906986236572266,-2.0386064052581787
1761131546362179000,4.424178955078125,1.6431283950805664,1.879734754562378,-2.4681127071380615
1761131546372179200,4.43417919921875,1.5073270797729492,2.0723752975463867,-2.7558865547180176
1761131546382179000,4.444178955078125,1.268096923828125,2.210937976837158,-2.9487650394439697
1761131546392179200,4.45417919921875,1.0712013244628906,2.341832160949707,-2.982483386993408
1761131546402179000,4.464178955078125,0.9138879776000977,2.5397627353668213,-2.9662325382232666
1761131546412179200,4.47417919921875,0.7496652603149414,2.6361074447631836,-2.905665397644043
1761131546422179000,4.484178955078125,0.7527713775634766,2.6287569999694824,-2.8852267265319824
1761131546432179200,4.49417919921875,0.5204801559448242,2.864952564239502,-2.9494621753692627
1761131546442179000,4.504178955078125,0.7990379333496094,3.177565813064575,-3.1533477306365967
1761131546452179200,4.51417919921875,1.2423229217529297,3.4506947994232178,-3.5913009643554688
1761131546462178300,4.52417822265625,1.9826030731201172,3.4060044288635254,-4.087510108947754
1761131546472178400,4.534178466796875,3.1429357528686523,3.1199357509613037,-4.4982805252075195
1761131546482178300,4.54417822265625,4.576532363891602,2.6749954223632812,-4.414715766906738
1761131546492178400,4.554178466796875,6.005071640014648,1.8597116470336914,-3.716970443725586
1761131546502178300,4.56417822265625,6.9651689529418945,1.151794195175171,-2.512775421142578
1761131546512178400,4.574178466796875,7.408111572265625,0.505666971206665,-1.1567069292068481
1761131546522178300,4.58417822265625,7.319433212280273,-0.01804184913635254,0.09216783940792084
1761131546532178400,4.594178466796875,6.87645149230957,-0.234297513961792,1.0973947048187256
1761131546542178300,4.60417822265625,6.264799118041992,-0.05001997947692871,1.5167371034622192
1761131546552178400,4.614178466796875,5.531402587890625,0.716700553894043,1.0290584564208984
1761131546562179300,4.624179443359375,4.765995025634766,1.240384578704834,0.3552321195602417
1761131546572179200,4.63417919921875,3.981496810913086,1.3012375831604004,-0.24621519446372986
1761131546582179300,4.644179443359375,3.1085872650146484,0.8979997634887695,-0.5930795669555664
1761131546592179200,4.65417919921875,2.283127784729004,0.25171399116516113,-0.6740061044692993
1761131546602179300,4.664179443359375,1.6090974807739258,-0.27563953399658203,-0.6033071875572205
1761131546612179200,4.67417919921875,1.063730239868164,-0.6637818813323975,-0.6859360933303833
1761131546622179300,4.684179443359375,0.7296199798583984,-0.8810422420501709,-0.7898496389389038
1761131546632179200,4.69417919921875,0.38604164123535156,-1.0848816633224487,-0.762121856212616
1761131546642179300,4.704179443359375,-0.10589885711669922,-1.2521088123321533,-0.5228919386863708
1761131546652179200,4.71417919921875,-0.6215143203735352,-1.3216915130615234,-0.1631864607334137
1761131546662178300,4.72417822265625,-1.1581802368164062,-1.3378673791885376,0.153558611869812
1761131546672178400,4.734178466796875,-1.1267127990722656,-1.4283028841018677,0.15270113945007324
1761131546682178300,4.74417822265625,-1.570138931274414,-1.356787919998169,0.3583136200904846
1761131546692178400,4.754178466796875,-1.937549114227295,-1.5231261253356934,0.327663391828537
1761131546702178300,4.76417822265625,-2.4318771362304688,-1.8770657777786255,0.45933929085731506
1761131546712178400,4.774178466796875,-3.014296531677246,-2.2236366271972656,0.6089813709259033
1761131546722178300,4.78417822265625,-3.574181079864502,-2.4252395629882812,0.5688259601593018
1761131546732178400,4.794178466796875,-3.5266623497009277,-2.5432486534118652,0.6092173457145691
1761131546742178300,4.80417822265625,-4.467456340789795,-2.2674317359924316,-0.36261898279190063
1761131546752178400,4.814178466796875,-4.575268745422363,-2.1802139282226562,-0.8552638292312622
1761131546762179300,4.824179443359375,-4.508249282836914,-2.085503339767456,-1.2301548719406128
1761131546772179200,4.83417919921875,-4.371397018432617,-2.012733221054077,-1.498185157775879
1761131546782179300,4.844179443359375,-4.1141767501831055,-2.0445122718811035,-1.4978365898132324
1761131546792179200,4.85417919921875,-4.077363967895508,-2.115095615386963,-1.5354241132736206
1761131546802179300,4.864179443359375,-3.420219898223877,-2.2719266414642334,-0.8881005048751831
1761131546812179200,4.87417919921875,-2.81345796585083,-2.2557032108306885,-0.615915834903717
1761131546822179300,4.884179443359375,-2.286618709564209,-2.1369190216064453,-0.44312751293182373
1761131546832179200,4.89417919921875,-1.8736200332641602,-2.063638687133789,-0.3693382143974304
1761131546842179300,4.904179443359375,-1.5054826736450195,-2.011535406112671,-0.40243634581565857
1761131546852179200,4.91417919921875,-1.2621841430664062,-2.041206121444702,-0.5980920195579529
1761131546862178300,4.92417822265625,-1.1832189559936523,-2.0256283283233643,-0.972223162651062
1761131546872178400,4.934178466796875,-1.1555414199829102,-1.9773199558258057,-1.3514502048492432
1761131546882178300,4.94417822265625,-1.1336092948913574,-1.9247753620147705,-1.6283570528030396
1761131546892178400,4.954178466796875,-1.0512490272521973,-1.9016928672790527,-1.7888267040252686
1761131546902178300,4.96417822265625,-0.9340124130249023,-1.875758171081543,-1.7020628452301025
1761131546912178400,4.974178466796875,-0.8359041213989258,-1.8348426818847656,-1.470078468322754
1761131546922178300,4.98417822265625,-0.659553050994873,-1.6413066387176514,-1.284862756729126
1761131546932178400,4.994178466796875,-0.45557212829589844,-1.2567777633666992,-1.2428910732269287
1761131546942178300,5.00417822265625,-0.2195568084716797,-0.8098645210266113,-1.2866368293762207
1761131546952178400,5.014178466796875,-0.2228527069091797,-0.7990970611572266,-1.3206381797790527
1761131546962179300,5.024179443359375,0.23485469818115234,-0.07980966567993164,-1.083661675453186
1761131546972179200,5.03417919921875,0.5031747817993164,0.007777214050292969,-1.0792921781539917
1761131546982179300,5.044179443359375,1.0254697799682617,0.05107545852661133,-1.1921508312225342
1761131546992179200,5.05417919921875,1.622410774230957,0.02780771255493164,-1.4013919830322266
1761131547002179300,5.064179443359375,2.320399284362793,-0.050669193267822266,-1.535158634185791
1761131547012179200,5.07417919921875,3.021024703979492,-0.17239999771118164,-1.4827220439910889
1761131547022179300,5.084179443359375,3.649106025695801,-0.28516626358032227,-1.2335286140441895
1761131547032179200,5.09417919921875,4.116694450378418,-0.33155369758605957,-1.1370785236358643
1761131547042179300,5.104179443359375,4.46673583984375,-0.269320011138916,-1.222251296043396
1761131547052179200,5.11417919921875,4.598828315734863,-0.17982172966003418,-1.1960301399230957
1761131547062178600,5.124178466796875,4.333342552185059,-0.16967105865478516,-0.9934611320495605
1761131547072178700,5.1341787109375,3.7409934997558594,-0.12696194648742676,-0.6592385172843933
1761131547082178600,5.144178466796875,2.915851593017578,-0.019306421279907227,-0.38829129934310913
1761131547092178400,5.154178466796875,1.963831901550293,0.17018365859985352,-0.3046683073043823
1761131547102178600,5.164178466796875,0.9596319198608398,0.36333250999450684,-0.37581467628479004
1761131547112178400,5.174178466796875,-0.13547039031982422,0.46155309677124023,-0.45461833477020264
1761131547122178600,5.184178466796875,-1.2268595695495605,0.4870791435241699,-0.4680614769458771
1761131547132178400,5.194178466796875,-2.2829580307006836,0.5582852363586426,-0.5235888361930847
1761131547142178600,5.204178466796875,-2.930537223815918,0.8046081066131592,-0.6054770350456238
1761131547152178400,5.214178466796875,-3.219937801361084,1.2564818859100342,-0.8183809518814087
1761131547162179300,5.224179443359375,-3.242361068725586,1.7347571849822998,-1.1209893226623535
1761131547172179500,5.234179443359375,-3.0190162658691406,1.9486424922943115,-1.4056715965270996
1761131547192179500,5.254179443359375,-2.0367164611816406,1.247018814086914,-1.3825249671936035
1761131547212179500,5.274179443359375,-0.45992565155029297,0.4112260341644287,-1.1049166917800903
1761131547222179300,5.284179443359375,0.04023456573486328,0.24610424041748047,-1.1196916103363037
1761131547232179500,5.294179443359375,0.21828842163085938,0.18000435829162598,-1.1326179504394531
1761131547242179300,5.304179443359375,0.2503805160522461,0.2109365463256836,-1.1356770992279053
1761131547252179500,5.314179443359375,0.18347835540771484,0.4352717399597168,-1.275002360343933
1761131547262178600,5.324178466796875,-0.09684944152832031,0.7024667263031006,-1.3942750692367554
1761131547272178400,5.334178466796875,-0.6210231781005859,0.93511962890625,-1.3619821071624756
1761131547282178600,5.344178466796875,-1.0452051162719727,1.1218795776367188,-1.4247161149978638
1761131547292178400,5.354178466796875,-1.495793342590332,1.378396987915039,-1.449148416519165
1761131547302178600,5.364178466796875,-1.8554463386535645,1.6636080741882324,-1.3965662717819214
1761131547312178400,5.374178466796875,-2.0046706199645996,1.891688585281372,-1.249220371246338
1761131547322178600,5.384178466796875,-1.896003246307373,2.079455852508545,-1.126046895980835
1761131547332178400,5.394178466796875,-1.5152459144592285,2.1960504055023193,-1.0904771089553833
1761131547342178600,5.404178466796875,-0.7853317260742188,2.283099889755249,-1.0137722492218018
1761131547352178400,5.414178466796875,0.08970928192138672,2.1608970165252686,-0.8551905155181885
1761131547362179000,5.424178955078125,1.2660722732543945,1.9412353038787842,-0.5658000707626343
1761131547372179200,5.43417919921875,1.2574081420898438,1.974881887435913,-0.6571600437164307
1761131547382179000,5.444178955078125,2.853513717651367,1.3045825958251953,0.2580239474773407
1761131547392179200,5.45417919921875,3.2097511291503906,0.9888250827789307,0.6867820024490356
1761131547402179000,5.464178955078125,3.41573429107666,0.8312335014343262,0.8896993398666382
1761131547412179200,5.47417919921875,3.2625808715820312,0.8084378242492676,0.907749593257904
1761131547422179300,5.484179443359375,2.793168067932129,0.9349558353424072,0.7098988890647888
1761131547432179200,5.49417919921875,2.069869041442871,0.9344432353973389,0.44013017416000366
1761131547442179000,5.504178955078125,1.2143640518188477,0.8212728500366211,0.23101401329040527
1761131547452179200,5.51417919921875,0.2561159133911133,0.7143247127532959,0.014482051134109497
1761131547462178300,5.52417822265625,-0.6088829040527344,0.7447538375854492,-0.15765096247196198
1761131547472178200,5.53417822265625,-1.2861723899841309,0.8058271408081055,-0.2593446969985962
1761131547482178300,5.54417822265625,-1.860447883605957,0.9373135566711426,-0.31051498651504517
1761131547492178200,5.55417822265625,-2.1753950119018555,1.0068085193634033,-0.23637321591377258
1761131547502178300,5.56417822265625,-2.4369258880615234,1.0151162147521973,-0.09808847308158875
1761131547512178200,5.57417822265625,-2.525515556335449,0.9843466281890869,-0.0022290796041488647
1761131547522178300,5.58417822265625,-2.418598175048828,0.8934891223907471,0.057185932993888855
1761131547532178200,5.59417822265625,-2.1804399490356445,0.8246591091156006,0.05497624725103378
1761131547542178300,5.60417822265625,-1.6995277404785156,0.6782879829406738,0.024025313556194305
1761131547552178400,5.614178466796875,-1.0718278884887695,0.5400686264038086,-0.03634868562221527
1761131547562179000,5.624178955078125,-0.4476919174194336,0.38681650161743164,-0.04664120078086853
1761131547572179200,5.63417919921875,0.3278379440307617,0.11163711547851562,-0.04072459042072296
1761131547582179300,5.644179443359375,0.8906383514404297,-0.1584467887878418,-0.022119984030723572
1761131547592179200,5.65417919921875,1.0926170349121094,-0.49153757095336914,0.04767090082168579
1761131547602179000,5.664178955078125,0.9104347229003906,-0.7071413993835449,0.15506653487682343
1761131547612179200,5.67417919921875,0.5841550827026367,-0.7680056095123291,0.04092687368392944
1761131547622179300,5.684179443359375,0.23877811431884766,-0.4681713581085205,-0.4177905321121216
1761131547632179200,5.69417919921875,-0.093597412109375,-0.06891155242919922,-1.014397382736206
1761131547642179300,5.704179443359375,-0.6478910446166992,0.20344924926757812,-1.4437743425369263
1761131547652179200,5.71417919921875,-1.1928434371948242,0.31226015090942383,-1.6700470447540283
1761131547662178300,5.72417822265625,-1.296823501586914,0.3565030097961426,-1.7144818305969238
1761131547672178400,5.734178466796875,-1.2121782302856445,0.5259127616882324,-1.8641467094421387
1761131547682178300,5.74417822265625,-0.9770560264587402,0.6921262741088867,-2.1085739135742188
1761131547692178400,5.754178466796875,-0.5239648818969727,0.7393450736999512,-2.1608073711395264
1761131547702178300,5.76417822265625,0.003997802734375,0.5595273971557617,-2.023960590362549
1761131547712178400,5.774178466796875,0.70916748046875,0.2878999710083008,-1.744093894958496
1761131547722178300,5.78417822265625,1.4300880432128906,0.053725242614746094,-1.4328032732009888
1761131547732178400,5.794178466796875,2.0833168029785156,-0.027559757232666016,-1.1428537368774414
1761131547742178300,5.80417822265625,2.6123476028442383,0.05846261978149414,-0.9411071538925171
1761131547752178400,5.814178466796875,2.959840774536133,0.17285871505737305,-0.7577155828475952
1761131547762179300,5.824179443359375,3.1825666427612305,0.33138132095336914,-0.5879802107810974
1761131547772179200,5.83417919921875,3.3607492446899414,0.5048623085021973,-0.3816002607345581
1761131547782179300,5.844179443359375,3.5503625869750977,0.5622010231018066,-0.3497425317764282
1761131547792179200,5.85417919921875,3.7734270095825195,0.5182232856750488,-0.32592862844467163
1761131547802179300,5.864179443359375,3.7907161712646484,0.2946176528930664,-0.19500350952148438
1761131547812179200,5.87417919921875,3.657975196838379,-0.020447254180908203,0.09358325600624084
1761131547822179300,5.884179443359375,3.3636131286621094,-0.3157467842102051,0.38941752910614014
1761131547832179200,5.89417919921875,3.388188362121582,-0.3686213493347168,0.27037155628204346
1761131547842179300,5.904179443359375,2.976620674133301,-0.6270561218261719,0.5398667454719543
1761131547852179200,5.91417919921875,1.9630460739135742,-0.9775726795196533,1.2146503925323486
1761131547862178300,5.92417822265625,1.2561302185058594,-1.1843113899230957,1.4685769081115723
1761131547872178400,5.934178466796875,0.5173196792602539,-1.3567543029785156,1.6468775272369385
1761131547882178300,5.94417822265625,-0.18953514099121094,-1.4776701927185059,1.6808491945266724
1761131547892178400,5.954178466796875,-0.9224748611450195,-1.5655226707458496,1.5802855491638184
1761131547902178300,5.96417822265625,-1.563009262084961,-1.752091646194458,1.402367115020752
1761131547912178400,5.974178466796875,-2.230700969696045,-2.01885986328125,1.1881039142608643
1761131547922178300,5.98417822265625,-2.8194737434387207,-2.244844436645508,1.0159755945205688
1761131547932178400,5.994178466796875,-3.3277149200439453,-2.4676597118377686,0.8355081677436829
1761131547942178300,6.00417822265625,-3.7623748779296875,-2.5808374881744385,0.6258774995803833
1761131547952178400,6.014178466796875,-3.9448442459106445,-2.592238664627075,0.5071371793746948
1761131547962179300,6.024179443359375,-4.056088924407959,-2.5783636569976807,0.3839722275733948
1761131547972179200,6.03417919921875,-4.003412246704102,-2.4691309928894043,0.198813796043396
1761131547982179300,6.044179443359375,-3.857341766357422,-2.352050304412842,0.07866460084915161
1761131547992179200,6.05417919921875,-3.7287583351135254,-2.2625162601470947,0.039323627948760986
1761131548002179300,6.064179443359375,-3.4642066955566406,-2.1964828968048096,0.215012788772583
1761131548012179200,6.07417919921875,-3.1511592864990234,-2.0930092334747314,0.38370281457901
1761131548022179300,6.084179443359375,-2.813864231109619,-1.8950610160827637,0.4367934465408325
1761131548032179200,6.09417919921875,-2.3653335571289062,-1.7181732654571533,0.3434554934501648
1761131548042179300,6.104179443359375,-1.9818592071533203,-1.620816946029663,0.2621303200721741
1761131548052179200,6.11417919921875,-1.748701572418213,-1.5611155033111572,0.1652909517288208
1761131548062178300,6.12417822265625,-1.7296972274780273,-1.482609748840332,0.11521430313587189
1761131548072178400,6.134178466796875,-1.706315517425537,-1.3022947311401367,-0.03177255392074585
1761131548082178300,6.14417822265625,-1.7029523849487305,-1.0025758743286133,-0.24809765815734863
1761131548092178200,6.15417822265625,-1.5101628303527832,-0.6581649780273438,-0.525770366191864
1761131548102178300,6.16417822265625,-1.2346291542053223,-0.38925600051879883,-0.7185827493667603
1761131548112178200,6.17417822265625,-0.8585085868835449,-0.19381952285766602,-0.6933873891830444
1761131548122178300,6.18417822265625,-0.4577522277832031,-0.10823822021484375,-0.5790472626686096
1761131548132178200,6.19417822265625,0.13167381286621094,-0.06058835983276367,-0.6000029444694519
1761131548142178300,6.20417822265625,0.6960906982421875,0.046807289123535156,-0.5644477605819702
1761131548152178200,6.21417822265625,1.3864507675170898,0.11433172225952148,-0.4901827573776245
1761131548162179000,6.224178955078125,2.0176048278808594,-0.012631893157958984,-0.436976820230484
1761131548172179200,6.23417919921875,2.3981666564941406,-0.2214055061340332,-0.476304829120636
1761131548182179000,6.244178955078125,2.5159873962402344,-0.306276798248291,-0.4290981888771057
1761131548192179200,6.25417919921875,2.4618892669677734,-0.17044734954833984,-0.4973229765892029
1761131548202179000,6.264178955078125,2.3322486877441406,0.17356252670288086,-0.8509389162063599
1761131548212179200,6.27417919921875,2.179856300354004,0.6945714950561523,-1.3399776220321655
1761131548222179000,6.284178955078125,1.9861030578613281,1.083956241607666,-1.7300941944122314
1761131548232179200,6.29417919921875,1.7162456512451172,1.3915162086486816,-2.21897292137146
1761131548242179000,6.304178955078125,1.366170883178711,1.3931820392608643,-2.5471482276916504
1761131548252179200,6.31417919921875,1.1230134963989258,1.3970208168029785,-2.7092268466949463
1761131548262178300,6.32417822265625,1.0703544616699219,1.4235155582427979,-2.735262393951416
1761131548272178200,6.33417822265625,1.1977310180664062,1.6026992797851562,-2.6620328426361084
1761131548282178300,6.34417822265625,1.5095806121826172,1.7193477153778076,-2.309364080429077
1761131548292178200,6.35417822265625,2.076934814453125,1.7427012920379639,-1.3459701538085938
1761131548302178300,6.36417822265625,2.630718231201172,1.6391074657440186,-0.35733890533447266
1761131548312178200,6.37417822265625,3.183380126953125,1.594930648803711,0.3584679365158081
1761131548322178300,6.38417822265625,3.285496711730957,1.275127649307251,0.9365870952606201
1761131548332178200,6.39417822265625,2.9715347290039062,0.7831192016601562,1.3892831802368164
1761131548342178300,6.40417822265625,2.328070640563965,0.38100147247314453,1.682207465171814
1761131548352178200,6.41417822265625,1.286977767944336,0.26340198516845703,1.6653895378112793
1761131548362179000,6.424178955078125,0.2941255569458008,0.5123863220214844,1.2092225551605225
1761131548372179200,6.43417919921875,-0.6715030670166016,0.7883391380310059,0.6435405015945435
1761131548382179000,6.444178955078125,-1.6052460670471191,1.0041449069976807,-0.011405140161514282
1761131548392179200,6.45417919921875,-2.4293570518493652,1.1956515312194824,-0.5398853421211243
1761131548402179000,6.464178955078125,-2.9921875,1.3409373760223389,-0.9274157881736755
1761131548412179200,6.47417919921875,-3.3847193717956543,1.46366548538208,-1.0996328592300415
1761131548422179000,6.484178955078125,-3.4183430671691895,1.6510820388793945,-1.0683128833770752
1761131548432179200,6.49417919921875,-3.1250157356262207,1.8776218891143799,-1.021443486213684
1761131548442179000,6.504178955078125,-2.52211856842041,2.077183961868286,-0.9305328130722046
1761131548452179200,6.51417919921875,-1.5772185325622559,2.1491646766662598,-0.8438495993614197
1761131548462178300,6.52417822265625,-0.3063240051269531,2.103091239929199,-0.7533947229385376
1761131548472178400,6.534178466796875,1.6612491607666016,2.019021987915039,-0.5151023268699646
1761131548482178300,6.54417822265625,3.5097503662109375,1.73354172706604,-0.21235501766204834
1761131548492178400,6.554178466796875,4.625946044921875,1.2016029357910156,0.16749373078346252
1761131548502178300,6.56417822265625,5.243534088134766,0.5587742328643799,1.1093676090240479
1761131548512178400,6.574178466796875,5.4810791015625,-0.09273886680603027,1.9964025020599365
1761131548522178300,6.58417822265625,5.228055000305176,-0.39118051528930664,2.433525562286377
1761131548532178400,6.594178466796875,4.698977470397949,-0.37907886505126953,2.393120765686035
1761131548542178300,6.60417822265625,3.9563379287719727,-0.2247004508972168,2.0543744564056396
1761131548552178400,6.614178466796875,2.879958152770996,-0.12296533584594727,1.5714495182037354
1761131548562179300,6.624179443359375,1.568263053894043,-0.33466553688049316,1.2129896879196167
1761131548572179200,6.63417919921875,0.21638011932373047,-0.6834547519683838,1.0321922302246094
1761131548582179300,6.644179443359375,0.26032161712646484,-0.8019030094146729,1.1331543922424316
1761131548592179200,6.65417919921875,-2.0917134284973145,-1.2024445533752441,0.5950276851654053
1761131548602179300,6.664179443359375,-2.855830192565918,-1.3342342376708984,0.30763328075408936
1761131548612179200,6.67417919921875,-3.4899535179138184,-1.4115023612976074,0.035315126180648804
1761131548622179300,6.684179443359375,-3.9722461700439453,-1.4841976165771484,-0.1296648532152176
1761131548632179200,6.69417919921875,-4.354750633239746,-1.548753261566162,-0.18342316150665283
1761131548642179300,6.704179443359375,-4.434793472290039,-1.5225889682769775,-0.25299036502838135
1761131548652179200,6.71417919921875,-4.285323143005371,-1.436772108078003,-0.23736368119716644
1761131548662178300,6.72417822265625,-3.960087776184082,-1.3627729415893555,-0.15370777249336243
1761131548672178400,6.734178466796875,-3.490166664123535,-1.4377365112304688,-0.06061410903930664
1761131548682178300,6.74417822265625,-2.8848795890808105,-1.5009915828704834,-0.0018978714942932129
1761131548692178400,6.754178466796875,-2.0750951766967773,-1.563040018081665,-0.0035178065299987793
1761131548702178300,6.76417822265625,-1.2862253189086914,-1.6778678894042969,-0.08281776309013367
1761131548712178400,6.774178466796875,-0.8528580665588379,-1.7407145500183105,-0.10347646474838257
1761131548722178300,6.78417822265625,-0.5270662307739258,-1.7458810806274414,-0.04267960786819458
1761131548732178400,6.794178466796875,-0.3561286926269531,-1.7125048637390137,0.03131851553916931
1761131548742178300,6.80417822265625,-0.4129219055175781,-1.5683341026306152,-0.04032242298126221
1761131548752179000,6.814178955078125,-0.4940929412841797,-1.3247196674346924,-0.21908479928970337
1761131548762179800,6.824179931640625,-0.5699567794799805,-1.07700777053833,-0.6392250061035156
1761131548772179700,6.8341796875,-0.6493387222290039,-0.9760420322418213,-0.905890703201294
1761131548782179800,6.844179931640625,-0.6072864532470703,-0.8996994495391846,-1.0413514375686646
1761131548792179700,6.8541796875,-0.3240623474121094,-0.7136597633361816,-1.0326464176177979
1761131548802179800,6.864179931640625,0.2785787582397461,-0.3878507614135742,-1.066180944442749
1761131548812179700,6.8741796875,1.2048311233520508,-0.1099252700805664,-0.9436176419258118
1761131548822179800,6.884179931640625,1.9260778427124023,-0.24750757217407227,-0.4428361654281616
1761131548832179700,6.8941796875,2.4441146850585938,-0.6503255367279053,0.2220284342765808
1761131548842179800,6.904179931640625,2.6057682037353516,-1.0143630504608154,0.6670732498168945
1761131548852179700,6.9141796875,2.2426509857177734,-1.2608041763305664,1.1551398038864136
1761131548862178800,6.9241787109375,1.7321863174438477,-1.302717685699463,1.4663047790527344
1761131548872179000,6.934178955078125,0.9087657928466797,-0.9963719844818115,1.3791974782943726
1761131548882178800,6.9441787109375,0.1378183364868164,-0.3848903179168701,0.9965059757232666
1761131548892179000,6.954178955078125,-0.6188945770263672,0.10976314544677734,0.5231636762619019
1761131548902178800,6.9641787109375,-1.3765387535095215,0.5099267959594727,0.12566888332366943
1761131548912179000,6.974178955078125,-2.0013718605041504,0.827056884765625,-0.1254582405090332
1761131548922178800,6.9841787109375,-2.491485595703125,1.0430350303649902,-0.24530267715454102
1761131548932179000,6.994178955078125,-2.9490885734558105,1.13950777053833,-0.26752209663391113
1761131548942178800,7.0041787109375,-3.238544464111328,1.1711325645446777,-0.2454538345336914
1761131548952179000,7.014178955078125,-3.3972792625427246,1.198732852935791,-0.2048877477645874
1761131548962179600,7.0241796875,-3.3032474517822266,1.3975887298583984,-0.21248817443847656
1761131548972179700,7.0341796875,-3.043179988861084,1.751284122467041,-0.24122977256774902
1761131548982179800,7.044179931640625,-2.5939927101135254,2.0769195556640625,-0.2948251962661743
1761131548992179700,7.0541796875,-2.6096243858337402,2.110940933227539,-0.29303061962127686
1761131549002179800,7.064179931640625,-1.1965570449829102,2.35245418548584,-0.5545245409011841
1761131549012179700,7.0741796875,-0.5162115097045898,2.1996657848358154,-0.6042953729629517
1761131549022179800,7.084179931640625,0.29566192626953125,1.9802658557891846,-0.6081287860870361
1761131549032179700,7.0941796875,1.153299331665039,1.855503797531128,-0.6169646978378296
1761131549042179800,7.104179931640625,2.050302505493164,1.8451735973358154,-0.6615021228790283
1761131549052179200,7.11417919921875,2.7652206420898438,1.9273054599761963,-0.656861424446106
1761131549062178300,7.12417822265625,3.197467803955078,2.0337917804718018,-0.6606574058532715
1761131549072178400,7.134178466796875,3.1684722900390625,2.085533618927002,-0.7507089376449585
1761131549082178300,7.14417822265625,3.3282670974731445,2.1675641536712646,-0.18271088600158691
1761131549092178400,7.154178466796875,3.147770881652832,2.2644577026367188,0.09558022022247314
1761131549102178300,7.16417822265625,2.7725906372070312,2.3021633625030518,0.43531107902526855
1761131549112178400,7.174178466796875,2.276041030883789,2.2188291549682617,0.7669763565063477
1761131549122178300,7.18417822265625,1.704813003540039,1.9852032661437988,0.9769212007522583
1761131549132178400,7.194178466796875,1.1227760314941406,1.661165714263916,0.9734209775924683
1761131549142178300,7.20417822265625,0.4858818054199219,1.3353888988494873,0.7942811250686646
1761131549152178400,7.214178466796875,-0.12740039825439453,1.080756664276123,0.542781412601471
1761131549162179000,7.224178955078125,-0.841761589050293,0.8264892101287842,0.28037112951278687
1761131549172179200,7.23417919921875,-1.4177231788635254,0.7373199462890625,0.03232383728027344
1761131549182179000,7.244178955078125,-2.0013394355773926,0.6909725666046143,-0.19075274467468262
1761131549192179200,7.25417919921875,-2.5700159072875977,0.6223468780517578,-0.32087916135787964
1761131549202179000,7.264178955078125,-3.094405174255371,0.6158463954925537,-0.35123491287231445
1761131549212179200,7.27417919921875,-3.5188307762145996,0.6610403060913086,-0.2849729061126709
1761131549222179000,7.284178955078125,-3.8831892013549805,0.759568452835083,-0.30316269397735596
1761131549232179200,7.29417919921875,-4.016396522521973,0.8393747806549072,-0.41026145219802856
1761131549242179000,7.304178955078125,-3.9971232414245605,0.8702654838562012,-0.5479023456573486
1761131549252179200,7.31417919921875,-3.838367462158203,0.8685736656188965,-0.6767976880073547
1761131549262178300,7.32417822265625,-3.8307619094848633,0.8519201278686523,-0.6765602231025696
1761131549272178400,7.334178466796875,-3.5150632858276367,0.8234739303588867,-0.7965161204338074
1761131549282178300,7.34417822265625,-2.4911961555480957,0.714022159576416,-0.7750449180603027
1761131549292178400,7.354178466796875,-1.8880972862243652,0.6078200340270996,-0.7329050898551941
1761131549302178300,7.36417822265625,-1.2543044090270996,0.4906277656555176,-0.7509387731552124
1761131549312178400,7.374178466796875,-0.6313934326171875,0.45055484771728516,-0.7960764169692993
1761131549322178300,7.38417822265625,-0.1425304412841797,0.42494654655456543,-0.8153572082519531
1761131549332178400,7.394178466796875,0.2521381378173828,0.3936631679534912,-0.7729380130767822
1761131549342178300,7.40417822265625,0.4312610626220703,0.3955552577972412,-0.6242577433586121
1761131549352178400,7.414178466796875,0.4713563919067383,0.43123650550842285,-0.5317951440811157
1761131549362179000,7.424178955078125,0.36191654205322266,0.4621574878692627,-0.5121538639068604
1761131549372179200,7.43417919921875,0.20218658447265625,0.4984307289123535,-0.5899680256843567
1761131549382179000,7.444178955078125,0.09351730346679688,0.4932417869567871,-0.6239051818847656
1761131549392179200,7.45417919921875,0.10135173797607422,0.47132015228271484,-0.7803463935852051
1761131549402179000,7.464178955078125,0.10443115234375,0.4644308090209961,-0.7812438011169434
1761131549412179200,7.47417919921875,0.32430553436279297,0.24253082275390625,-0.9382251501083374
1761131549422179000,7.484178955078125,0.45403099060058594,0.05327606201171875,-0.9332815408706665
1761131549432179200,7.49417919921875,0.5060939788818359,-0.12573575973510742,-0.9336519837379456
1761131549442179000,7.504178955078125,0.5531320571899414,-0.22168874740600586,-0.9833676815032959
1761131549452179200,7.51417919921875,0.7059650421142578,-0.1712038516998291,-1.0546865463256836
1761131549462178300,7.52417822265625,0.8570718765258789,-0.03963804244995117,-1.0755910873413086
1761131549472178400,7.534178466796875,0.9895744323730469,0.005234241485595703,-0.9904334545135498
1761131549482178300,7.54417822265625,1.0869741439819336,-0.05883955955505371,-0.73671555519104
1761131549492178400,7.554178466796875,1.0758838653564453,-0.1664276123046875,-0.5081113576889038
1761131549502178300,7.56417822265625,1.0071773529052734,-0.210679292678833,-0.3596471846103668
1761131549512178400,7.574178466796875,0.9006538391113281,-0.11589360237121582,-0.37607648968696594
1761131549522178300,7.58417822265625,0.8593101501464844,0.0487215518951416,-0.3945416212081909
1761131549532178400,7.594178466796875,0.8490819931030273,0.17201805114746094,-0.48337456583976746
1761131549542178300,7.60417822265625,1.051168441772461,0.29654550552368164,-0.564063549041748
1761131549552178400,7.614178466796875,1.0311059951782227,0.35320472717285156,-0.5275856256484985
1761131549562179300,7.624179443359375,1.8132390975952148,0.13461732864379883,-0.7075657844543457
1761131549572179200,7.63417919921875,2.4111928939819336,-0.04770922660827637,-0.7380877733230591
1761131549582179300,7.644179443359375,2.9883155822753906,-0.12477970123291016,-0.7336320877075195
1761131549592179200,7.65417919921875,3.411836624145508,-0.15828514099121094,-0.5911955833435059
1761131549602179300,7.664179443359375,3.7237815856933594,-0.20998454093933105,-0.2582918405532837
1761131549612179200,7.67417919921875,3.8845596313476562,-0.2811870574951172,0.2421029806137085
1761131549622179300,7.684179443359375,3.8970775604248047,-0.2112741470336914,0.9052602052688599
1761131549632179200,7.69417919921875,3.8662633895874023,-0.05541539192199707,1.5768439769744873
1761131549642179300,7.704179443359375,3.738821029663086,-0.002005338668823242,2.107499122619629
1761131549652179200,7.71417919921875,3.5644493103027344,0.010109186172485352,2.651411294937134
1761131549662178600,7.724178466796875,3.2756786346435547,-0.06278848648071289,3.181231737136841
1761131549672178400,7.734178466796875,2.874439239501953,-0.16058015823364258,3.619891881942749
1761131549682178600,7.744178466796875,2.281632423400879,-0.35757899284362793,3.987527847290039
1761131549692178400,7.754178466796875,1.641077995300293,-0.5513503551483154,4.108034133911133
1761131549702178600,7.764178466796875,1.0797080993652344,-0.663477897644043,3.97062087059021
1761131549712178400,7.774178466796875,0.5446691513061523,-0.649273157119751,3.589721441268921
1761131549722178300,7.78417822265625,0.014193534851074219,-0.6686055660247803,3.1833348274230957
1761131549732178400,7.794178466796875,-0.4997415542602539,-0.7005617618560791,2.9456381797790527
1761131549742178300,7.80417822265625,-1.171860694885254,-0.7439079284667969,2.860017776489258
1761131549752178400,7.814178466796875,-1.731729507446289,-0.7803699970245361,2.86094069480896
1761131549762179300,7.824179443359375,-2.245121479034424,-0.7281577587127686,2.8872809410095215
1761131549772179200,7.83417919921875,-2.705219268798828,-0.6692476272583008,2.8543596267700195
1761131549782179300,7.844179443359375,-3.117971420288086,-0.5670998096466064,2.8080637454986572
1761131549792179200,7.85417919921875,-3.085953712463379,-0.6273024082183838,2.8618550300598145
1761131549802179300,7.864179443359375,-3.700897216796875,-0.22114324569702148,2.7668018341064453
1761131549812179200,7.87417919921875,-3.8103694915771484,-0.07253432273864746,2.754451274871826
1761131549822179300,7.884179443359375,-3.7508440017700195,0.10341405868530273,2.831296682357788
1761131549832179200,7.89417919921875,-3.7362399101257324,0.2534663677215576,2.902235984802246
1761131549842179300,7.904179443359375,-3.7092957496643066,0.36221861839294434,2.95605731010437
1761131549852179200,7.91417919921875,-3.5983734130859375,0.4267396926879883,2.9064784049987793
1761131549862178300,7.92417822265625,-3.442138195037842,0.49886322021484375,2.785057544708252
1761131549872178400,7.934178466796875,-3.2319211959838867,0.5900940895080566,2.6302614212036133
1761131549882178000,7.944177978515625,-2.9180002212524414,0.6276721954345703,2.50767183303833
1761131549892178000,7.954177978515625,-2.495838165283203,0.6653304100036621,2.377983331680298
1761131549902178000,7.964177978515625,-1.8765301704406738,0.6765408515930176,2.280442237854004
1761131549912178000,7.974177978515625,-1.1526098251342773,0.5355038642883301,2.254058361053467
1761131549922178000,7.984177978515625,-0.564518928527832,0.40514659881591797,2.156496524810791
1761131549932178000,7.994177978515625,-0.000164031982421875,0.26776695251464844,2.038625717163086
1761131549942178000,8.004177978515624,0.44917869567871094,0.24877023696899414,1.8440020084381104
1761131549952178000,8.014177978515624,0.9000959396362305,0.3109879493713379,1.6221561431884766
1761131549962178800,8.0241787109375,1.2444171905517578,0.35139894485473633,1.4194059371948242
1761131549972178700,8.0341787109375,1.3683481216430664,0.31116795539855957,1.1592472791671753
1761131549982178800,8.0441787109375,1.2727298736572266,0.22109675407409668,0.9632568955421448
1761131549992179000,8.054178955078125,0.9417276382446289,0.1459035873413086,0.7686550617218018
1761131550002178800,8.0641787109375,0.5051174163818359,0.16663122177124023,0.5274004936218262
1761131550012179000,8.074178955078125,-0.010850906372070312,0.3189537525177002,0.27556341886520386
1761131550022178800,8.0841787109375,-0.5091056823730469,0.489788293838501,-0.0277518630027771
1761131550032179000,8.094178955078124,-0.9575090408325195,0.6074714660644531,-0.20303213596343994
1761131550042178800,8.1041787109375,-1.290116310119629,0.7050225734710693,-0.29509758949279785
1761131550052179000,8.114178955078126,-1.5026459693908691,0.7730844020843506,-0.36321794986724854
1761131550062178000,8.124177978515625,-1.610610008239746,0.9315614700317383,-0.4293355941772461
1761131550072178200,8.13417822265625,-1.569880485534668,1.0631625652313232,-0.4838385581970215
1761131550082178000,8.144177978515625,-1.527998924255371,1.1897625923156738,-0.46266841888427734
1761131550092178000,8.154177978515625,-1.3397212028503418,1.2520854473114014,-0.3265674114227295
1761131550102178000,8.164177978515625,-1.1011199951171875,1.294133186340332,-0.204573392868042
1761131550112178000,8.174177978515624,-0.7451601028442383,1.2995960712432861,-0.1691150665283203
1761131550122178000,8.184177978515624,-0.22319507598876953,1.2704672813415527,-0.24664092063903809
1761131550132178000,8.194177978515626,0.33677005767822266,1.1952509880065918,-0.3904489278793335
1761131550142178000,8.204177978515625,0.3280305862426758,1.2121570110321045,-0.403445839881897
1761131550152178000,8.214177978515625,1.3079299926757812,1.0199689865112305,-0.3827033042907715
1761131550162178800,8.2241787109375,1.5628633499145508,0.9870576858520508,-0.3906431198120117
1761131550172179000,8.234178955078125,1.5567846298217773,1.0037124156951904,-0.38273918628692627
1761131550182179300,8.244179443359375,1.5978031158447266,1.1117022037506104,-0.65025794506073
1761131550192179200,8.25417919921875,1.3444623947143555,1.325535774230957,-0.7589361667633057
1761131550202179300,8.264179443359374,0.8879690170288086,1.5880813598632812,-0.7771096229553223
1761131550212179200,8.27417919921875,0.5739583969116211,1.763859510421753,-0.8580793142318726
1761131550222179300,8.284179443359376,0.5515737533569336,1.9313223361968994,-0.9609595537185669
1761131550232179200,8.29417919921875,0.9018735885620117,2.019392490386963,-1.012277364730835
1761131550242179300,8.304179443359375,1.5616998672485352,2.025398015975952,-1.155752182006836
1761131550252179200,8.31417919921875,2.487569808959961,1.8444814682006836,-1.3202332258224487
1761131550262178300,8.32417822265625,3.3305091857910156,1.3604731559753418,-1.2160800695419312
1761131550272178400,8.334178466796875,4.200862884521484,0.6024541854858398,-0.7065874338150024
1761131550292178400,8.354178466796874,4.639654159545898,-0.614753007888794,-0.0778733491897583
1761131550302178300,8.36417822265625,4.481209754943848,-0.9714376926422119,0.3363787531852722
1761131550312178400,8.374178466796875,4.492877006530762,-1.0017073154449463,0.3248608708381653
1761131550322178300,8.38417822265625,3.4885435104370117,-0.9389338493347168,0.9696500301361084
1761131550332178400,8.394178466796875,2.6740550994873047,-0.7640397548675537,1.083756446838379
1761131550342178300,8.40417822265625,1.926753044128418,-0.7145199775695801,1.1177338361740112
1761131550352178200,8.41417822265625,1.2762212753295898,-0.8069281578063965,1.066012978553772
1761131550362179000,8.424178955078125,0.8189773559570312,-1.0209319591522217,0.9796447157859802
1761131550372179200,8.43417919921875,0.6521120071411133,-1.2767579555511475,0.8949685096740723
1761131550382179000,8.444178955078126,0.6974983215332031,-1.5234012603759766,0.857589066028595
1761131550392179200,8.45417919921875,0.9567642211914062,-1.7719149589538574,0.8792650699615479
1761131550402179000,8.464178955078125,1.2686309814453125,-2.044618844985962,1.060464859008789
1761131550412179200,8.47417919921875,1.497629165649414,-2.3978898525238037,1.3462413549423218
1761131550422179000,8.484178955078125,1.4858636856079102,-2.704160690307617,1.5686384439468384
1761131550432179200,8.49417919921875,1.2432708740234375,-2.970456123352051,1.7905991077423096
1761131550442179000,8.504178955078125,0.6506805419921875,-3.1491007804870605,1.9538705348968506
1761131550452179200,8.51417919921875,-0.011819839477539062,-3.229710102081299,1.9721757173538208
1761131550462178300,8.52417822265625,-0.7843480110168457,-3.1413724422454834,1.900298833847046
1761131550472178200,8.53417822265625,-1.5616111755371094,-3.018115997314453,1.7642619609832764
1761131550482178300,8.54417822265625,-2.2547860145568848,-2.8066372871398926,1.5058622360229492
1761131550492178200,8.55417822265625,-2.7220325469970703,-2.499300479888916,1.1890767812728882
1761131550502178300,8.56417822265625,-2.7184181213378906,-2.115809679031372,0.9575743675231934
1761131550512178200,8.57417822265625,-2.620011329650879,-1.7506859302520752,0.9084483981132507
1761131550522178300,8.58417822265625,-2.3469185829162598,-1.3656938076019287,1.1386152505874634
1761131550532178200,8.59417822265625,-2.032769203186035,-0.9481987953186035,1.4716904163360596
1761131550542178300,8.60417822265625,-1.694767951965332,-0.6376552581787109,1.8549017906188965
1761131550552178200,8.61417822265625,-1.307319164276123,-0.26096534729003906,2.3262627124786377
1761131550562179000,8.624178955078126,-1.0517864227294922,-0.014292716979980469,2.711338520050049
1761131550572179200,8.63417919921875,-0.6924877166748047,0.1349949836730957,2.9700610637664795
1761131550582179600,8.6441796875,-0.21207332611083984,0.29306507110595703,3.0272374153137207
1761131550592179500,8.654179443359375,0.1624469757080078,0.31849002838134766,2.926069498062134
1761131550602179600,8.6641796875,0.4585580825805664,0.3004875183105469,2.772946834564209
1761131550612179500,8.674179443359375,0.7017383575439453,0.18161249160766602,2.7371397018432617
1761131550622179600,8.6841796875,0.9074316024780273,0.15167665481567383,2.750586748123169
1761131550632179700,8.6941796875,1.0613336563110352,0.15792036056518555,2.584287643432617
1761131550642179600,8.7041796875,1.1752185821533203,0.17180919647216797,2.343291997909546
1761131550652179700,8.7141796875,1.2038402557373047,0.14998245239257812,2.156137228012085
1761131550662178800,8.7241787109375,1.1160430908203125,0.11836004257202148,2.079575300216675
1761131550672178700,8.7341787109375,0.9996671676635742,0.08212137222290039,2.094886541366577
1761131550682178800,8.7441787109375,0.9662456512451172,0.13104629516601562,2.093902587890625
1761131550692178700,8.7541787109375,0.8896217346191406,0.12665700912475586,2.126861333847046
1761131550702178800,8.7641787109375,0.9856948852539062,0.08936452865600586,2.0599045753479004
1761131550712178700,8.7741787109375,1.1042537689208984,-0.05850839614868164,1.9771324396133423
1761131550722178800,8.7841787109375,1.2411909103393555,-0.3761916160583496,1.8305692672729492
1761131550732178700,8.7941787109375,1.3196592330932617,-0.7178144454956055,1.6207518577575684
1761131550742178800,8.8041787109375,1.4325246810913086,-0.9087972640991211,1.4700499773025513
1761131550752178700,8.8141787109375,1.8030986785888672,-0.9646267890930176,1.324078917503357
1761131550762179600,8.8241796875,2.1712207794189453,-0.9969272613525391,1.2138563394546509
1761131550772179700,8.8341796875,2.409512519836426,-1.1333816051483154,1.2067697048187256
1761131550782179600,8.8441796875,2.4871606826782227,-1.4239778518676758,1.2092269659042358
1761131550792179700,8.8541796875,2.416661262512207,-1.684748888015747,1.1188535690307617
1761131550802179600,8.8641796875,2.276700973510742,-1.8263187408447266,0.9331296682357788
1761131550812179700,8.8741796875,2.103970527648926,-1.8983688354492188,0.694516122341156
1761131550822179600,8.8841796875,1.7164306640625,-1.9753315448760986,0.452434778213501
1761131550832179700,8.8941796875,1.3173627853393555,-2.0281975269317627,0.1899537593126297
1761131550842179600,8.9041796875,0.8504142761230469,-2.020989179611206,-0.11941094696521759
1761131550852179700,8.9141796875,0.4875755310058594,-1.9700558185577393,-0.44121378660202026
1761131550862178800,8.9241787109375,0.2663860321044922,-1.9248998165130615,-0.6726361513137817
1761131550872178700,8.9341787109375,0.18961715698242188,-1.942009687423706,-0.7153420448303223
1761131550882178300,8.94417822265625,0.055206298828125,-2.103579044342041,-0.5812475681304932
1761131550892178400,8.954178466796876,-0.17517471313476562,-2.2944419384002686,-0.398462176322937
1761131550902178300,8.96417822265625,-0.47156524658203125,-2.504399299621582,-0.2489577978849411
1761131550912178400,8.974178466796875,-0.35263633728027344,-2.512646198272705,-0.22958391904830933
1761131550922178300,8.98417822265625,-0.09200191497802734,-2.3703415393829346,-0.23811282217502594
1761131550932178200,8.99417822265625,0.20378398895263672,-2.2737200260162354,-0.275607705116272
1761131550942178300,9.00417822265625,0.5878963470458984,-2.223522901535034,-0.2740701138973236
1761131550952178400,9.014178466796874,0.9274959564208984,-2.1932594776153564,-0.10833748430013657
1761131550962179000,9.024178955078124,1.2154436111450195,-2.0920355319976807,0.0965307205915451
1761131550972179200,9.03417919921875,1.3049860000610352,-2.0169198513031006,0.31793755292892456
1761131550982179300,9.044179443359376,1.382065773010254,-2.005070924758911,0.5346359014511108
1761131550992179200,9.05417919921875,1.452047348022461,-2.0174293518066406,0.6170493960380554
1761131551002179300,9.064179443359375,1.4320564270019531,-2.0276784896850586,0.6400645971298218
1761131551012179200,9.07417919921875,1.2813529968261719,-2.0648202896118164,0.642440140247345
1761131551022179300,9.084179443359375,1.0142698287963867,-2.1074395179748535,0.7094328999519348
1761131551032179200,9.09417919921875,1.0183210372924805,-2.1164913177490234,0.7019191384315491
1761131551042179300,9.104179443359374,0.5332527160644531,-1.7562534809112549,0.9779476523399353
1761131551052179200,9.11417919921875,0.41216373443603516,-1.518585443496704,1.1232930421829224
1761131551062178300,9.12417822265625,0.17243480682373047,-1.419447660446167,1.2461230754852295
1761131551072178400,9.134178466796875,0.18424510955810547,-1.4448158740997314,1.2246127128601074
1761131551082178300,9.14417822265625,-0.07257080078125,-1.442579984664917,1.2594913244247437
1761131551092178400,9.154178466796875,-0.19586658477783203,-1.4102561473846436,1.0724154710769653
1761131551102178300,9.16417822265625,-0.2197122573852539,-1.248572826385498,0.9089930653572083
1761131551112178400,9.174178466796874,-0.26434803009033203,-1.030677080154419,0.8183768391609192
1761131551122178300,9.18417822265625,-0.4115104675292969,-0.9331088066101074,0.7674432992935181
1761131551132178400,9.194178466796876,-0.5744438171386719,-0.8757286071777344,0.7801511883735657
1761131551142178300,9.20417822265625,-0.6973104476928711,-0.7835469245910645,0.7141387462615967
1761131551152178400,9.214178466796875,-0.8299546241760254,-0.6383116245269775,0.5910939574241638
1761131551162179300,9.224179443359375,-0.8447117805480957,-0.44157886505126953,0.4611923098564148
1761131551172179200,9.23417919921875,-0.9661159515380859,-0.26378488540649414,0.47399815917015076
1761131551182179300,9.244179443359375,-1.3805718421936035,-0.15824508666992188,0.4845739006996155
1761131551192179200,9.25417919921875,-2.0321030616760254,-0.026124954223632812,0.5348857641220093
1761131551202179300,9.264179443359374,-2.6179699897766113,0.07332944869995117,0.47168081998825073
1761131551212179200,9.27417919921875,-2.929577350616455,0.18055963516235352,0.5888977646827698
1761131551222179300,9.284179443359376,-2.7810702323913574,0.18467283248901367,0.8464841842651367
1761131551232179200,9.29417919921875,-2.1363329887390137,0.09609460830688477,0.9097694158554077
1761131551242179000,9.304178955078125,-1.0814061164855957,-0.11546802520751953,0.7449687719345093
1761131551252179200,9.31417919921875,0.2523012161254883,-0.4830315113067627,0.5166941285133362
1761131551262178300,9.32417822265625,1.6211614608764648,-0.8024849891662598,0.643125057220459
1761131551272178200,9.33417822265625,2.422107696533203,-1.1855812072753906,0.7897624373435974
1761131551282178300,9.34417822265625,2.8380470275878906,-1.4397838115692139,0.961402416229248
1761131551292178200,9.35417822265625,2.9411001205444336,-1.5262930393218994,1.1754781007766724
1761131551302178300,9.36417822265625,2.8843021392822266,-1.1421444416046143,1.1657699346542358
1761131551312178200,9.37417822265625,2.678267478942871,-0.39617395401000977,0.6425557136535645
1761131551322178300,9.38417822265625,2.2866525650024414,0.2072920799255371,0.20607918500900269
1761131551332178200,9.39417822265625,1.7450799942016602,0.459613561630249,0.06806144118309021
1761131551342178300,9.40417822265625,1.7496376037597656,0.44866251945495605,0.16611279547214508
1761131551352178200,9.41417822265625,0.5510120391845703,0.539473295211792,0.16501754522323608
1761131551362179000,9.424178955078125,0.0021524429321289062,0.6685481071472168,0.022341609001159668
1761131551372179200,9.43417919921875,-0.35022830963134766,0.730963945388794,-0.18956920504570007
1761131551382179000,9.444178955078126,-0.6312265396118164,0.7388360500335693,-0.26925092935562134
1761131551392179200,9.45417919921875,-0.8377876281738281,0.6511445045471191,-0.18628522753715515
1761131551402179000,9.464178955078125,-0.9977755546569824,0.5362868309020996,-0.0917271077632904
1761131551412179200,9.47417919921875,-1.062242031097412,0.5219113826751709,0.0007509887218475342
1761131551422179000,9.484178955078125,-1.1017069816589355,0.5434107780456543,0.04807707667350769
1761131551432179200,9.49417919921875,-1.0849967002868652,0.5080394744873047,0.06561198830604553
1761131551442179000,9.504178955078125,-1.016946792602539,0.5250382423400879,-0.24152767658233643
1761131551452179200,9.51417919921875,-0.9309320449829102,0.4357790946960449,-0.6051722764968872
1761131551462178300,9.52417822265625,-0.8361883163452148,0.30144309997558594,-0.9973633289337158
1761131551472178200,9.53417822265625,-0.7608842849731445,0.25441980361938477,-1.2737791538238525
1761131551482178300,9.54417822265625,-0.7049541473388672,0.26532649993896484,-1.5434008836746216
1761131551492178200,9.55417822265625,-0.706599235534668,0.2715139389038086,-1.5219351053237915
1761131551502178300,9.56417822265625,-0.2099313735961914,0.3154759407043457,-1.6013689041137695
1761131551512178200,9.57417822265625,-0.01922130584716797,0.19361591339111328,-1.5591752529144287
1761131551522178300,9.58417822265625,0.2520561218261719,0.07899856567382812,-1.4776111841201782
1761131551532178200,9.59417822265625,0.39689159393310547,0.019553184509277344,-1.4809640645980835
1761131551542178300,9.60417822265625,0.24608421325683594,-0.029854774475097656,-1.5408248901367188
1761131551552178200,9.61417822265625,0.08606529235839844,0.07564592361450195,-1.5462169647216797
1761131551562179000,9.624178955078126,0.03023242950439453,0.39157962799072266,-1.6719856262207031
1761131551572179200,9.63417919921875,-0.06615161895751953,0.7398676872253418,-1.7892253398895264
1761131551582179300,9.644179443359375,-0.16644954681396484,0.7976779937744141,-1.7420328855514526
1761131551592179200,9.65417919921875,-0.25250911712646484,0.5456533432006836,-1.5058482885360718
1761131551602179000,9.664178955078125,-0.1650104522705078,0.2564730644226074,-1.306697130203247
1761131551612179200,9.67417919921875,0.10581302642822266,0.0798959732055664,-1.3296477794647217
1761131551622179300,9.684179443359374,0.421875,-0.10584688186645508,-1.5124104022979736
1761131551632179200,9.69417919921875,0.7238082885742188,-0.33944249153137207,-1.5635416507720947
1761131551642179300,9.704179443359376,0.9727516174316406,-0.5898184776306152,-1.6132588386535645
1761131551652179200,9.71417919921875,1.0844879150390625,-0.9076812267303467,-1.7141467332839966
1761131551662178300,9.72417822265625,1.0056800842285156,-1.2430551052093506,-1.8425981998443604
1761131551672178400,9.734178466796875,0.7722568511962891,-1.4695734977722168,-2.023620128631592
1761131551682178300,9.74417822265625,0.4702901840209961,-1.5637257099151611,-2.3271713256835938
1761131551692178400,9.754178466796875,0.10544872283935547,-1.654994010925293,-2.669631004333496
1761131551702178300,9.76417822265625,-0.21473217010498047,-1.7192587852478027,-3.0330331325531006
1761131551712178400,9.774178466796876,-0.30378055572509766,-1.681307315826416,-3.6458029747009277
1761131551722178300,9.78417822265625,-0.36802196502685547,-1.5274193286895752,-4.262930870056152
1761131551732178400,9.794178466796875,-0.5899639129638672,-1.3396201133728027,-4.707380294799805
1761131551742178300,9.80417822265625,-0.9552130699157715,-1.1692869663238525,-4.9773736000061035
1761131551752178400,9.814178466796875,-1.2513055801391602,-1.0182723999023438,-5.144043445587158
1761131551762179300,9.824179443359375,-1.5448784828186035,-0.9055936336517334,-5.350214958190918
1761131551772179200,9.83417919921875,-1.8272132873535156,-0.8393526077270508,-5.520114421844482
1761131551782179300,9.844179443359375,-1.953786849975586,-0.9232864379882812,-5.564443588256836
1761131551792179200,9.85417919921875,-1.768317699432373,-1.053372859954834,-5.3179497718811035
1761131551802179300,9.864179443359374,-1.2519111633300781,-1.0144824981689453,-5.023035049438477
1761131551812179200,9.87417919921875,-0.47159624099731445,-0.7259807586669922,-4.806342124938965
1761131551822179300,9.884179443359375,-0.45903730392456055,-0.749201774597168,-4.924163818359375
1761131551832179200,9.89417919921875,1.099064826965332,-0.6149892807006836,-3.825533390045166
1761131551842179300,9.904179443359375,1.5133209228515625,-1.0135412216186523,-3.3486075401306152
1761131551852179200,9.91417919921875,1.6397027969360352,-1.2385106086730957,-3.109820604324341
1761131551862178300,9.92417822265625,1.543497085571289,-1.2660741806030273,-3.2056007385253906
1761131551872178400,9.934178466796874,1.4168758392333984,-1.0794305801391602,-3.575566291809082
1761131551882178300,9.94417822265625,1.176274299621582,-0.8528714179992676,-4.112150192260742
1761131551892178400,9.954178466796876,0.6717100143432617,-0.7265734672546387,-4.547565937042236
1761131551902178300,9.96417822265625,0.1733694076538086,-0.5963397026062012,-4.801434516906738
1761131551912178400,9.974178466796875,-0.008500099182128906,-0.35773706436157227,-5.005032062530518
1761131551922178300,9.98417822265625,-0.02314472198486328,-0.1993560791015625,-5.017633438110352
1761131551932178400,9.994178466796875,0.004483222961425781,-0.11631488800048828,-4.862545490264893
1761131551942178300,10.00417822265625,-0.1337451934814453,-0.23223257064819336,-4.412912368774414
1761131551952178400,10.014178466796874,-0.2728252410888672,-0.38881683349609375,-3.9294817447662354
1761131551962179000,10.024178955078124,-0.3918485641479492,-0.4518089294433594,-3.4565296173095703
1761131551972179200,10.03417919921875,-0.5253901481628418,-0.5211949348449707,-3.2075271606445312
1761131551982179000,10.044178955078126,0.7783994674682617,-1.0745375156402588,-2.538308620452881
1761131551992179200,10.05417919921875,1.1284046173095703,-0.4355893135070801,-2.472015619277954
1761131552002179000,10.064178955078125,1.073333740234375,-0.04306507110595703,-2.5939831733703613
1761131552012179200,10.07417919921875,0.7517471313476562,0.09505844116210938,-3.1232571601867676
1761131552022179000,10.084178955078125,0.5698556900024414,-0.07722711563110352,-3.0797410011291504
1761131552032179200,10.09417919921875,0.3345155715942383,-0.26900243759155273,-2.7297463417053223
1761131552042179000,10.104178955078124,0.1663370132446289,-0.42786741256713867,-2.3166260719299316
1761131552052179200,10.11417919921875,0.03186798095703125,-0.7292613983154297,-1.9081003665924072
1761131552062178300,10.12417822265625,0.0355224609375,-0.7125153541564941,-1.9855856895446777
1761131552072178400,10.134178466796875,-0.015972137451171875,-0.9192607402801514,-1.4070760011672974
