time,seconds_elapsed,z,y,x
1761132253577456400,0.112456298828125,-2.047793388366699,1.7660990953445435,-1.3004786968231201
1761132253597457400,0.13245751953125,-2.047390937805176,1.8068560361862183,-1.2220311164855957
1761132253607444700,0.14244482421875,-2.0466928482055664,1.8253731727600098,-1.18417489528656
1761132253617444900,0.15244482421875,-2.0480480194091797,1.8396440744400024,-1.172819972038269
1761132253627444700,0.16244482421875,-2.049112319946289,1.8530545234680176,-1.1605814695358276
1761132253637444900,0.17244482421875,-2.0495948791503906,1.8660075664520264,-1.1443121433258057
1761132253647444700,0.18244482421875,-2.049696922302246,1.8800870180130005,-1.1234617233276367
1761132253657444900,0.19244482421875,-2.0493240356445312,1.8982254266738892,-1.0932263135910034
1761132253667444700,0.20244482421875,-2.0484304428100586,1.9227559566497803,-1.0508679151535034
1761132253677444900,0.21244482421875,-2.0470218658447266,1.9543285369873047,-0.9971952438354492
1761132253687444700,0.22244482421875,-2.04522705078125,1.991931438446045,-0.9362603425979614
1761132253697444900,0.23244482421875,-2.0439987182617188,2.035046100616455,-0.876724362373352
1761132253707444700,0.24244482421875,-2.043933868408203,2.080608367919922,-0.8261929750442505
1761132253717444900,0.25244482421875,-2.04447078704834,2.125168561935425,-0.7837239503860474
1761132253727445000,0.262445068359375,-2.0448617935180664,2.1687026023864746,-0.7438112497329712
1761132253737444900,0.27244482421875,-2.0419387817382812,2.209582805633545,-0.6880766153335571
1761132253747445000,0.282445068359375,-2.0304651260375977,2.2434706687927246,-0.5910670757293701
1761132253757444900,0.29244482421875,-2.010716438293457,2.2751691341400146,-0.4571634531021118
1761132253767444700,0.30244482421875,-1.9873924255371094,2.3088674545288086,-0.3142913579940796
1761132253777444900,0.31244482421875,-1.9647350311279297,2.3465471267700195,-0.18273258209228516
1761132253787444700,0.32244482421875,-1.9458818435668945,2.386044502258301,-0.07545757293701172
1761132253797444900,0.33244482421875,-4.427647590637207,-0.5022600293159485,-0.8922288417816162
1761132253807443700,0.342443603515625,-4.97352933883667,-0.7726472616195679,-0.49680423736572266
1761132253817443600,0.352443603515625,-5.323237419128418,-0.8432028293609619,0.23697471618652344
1761132253827443700,0.362443603515625,-5.150099754333496,-0.7468278408050537,0.7640541791915894
1761132253837443600,0.372443603515625,-4.825673580169678,-0.592741847038269,1.4459689855575562
1761132253847443700,0.382443603515625,-5.231761455535889,-1.0408241748809814,2.666417121887207
1761132253857443600,0.392443603515625,-6.025640964508057,-2.2758917808532715,4.38289737701416
1761132253867443700,0.402443603515625,-5.650323390960693,-3.7862319946289062,5.866998672485352
1761132253877443600,0.412443603515625,-4.594014644622803,-3.007920980453491,5.148529052734375
1761132253887443700,0.422443603515625,-3.063033103942871,0.4599623680114746,0.8827173709869385
1761132253897443600,0.432443603515625,-1.8742036819458008,0.8032240867614746,-1.3447625637054443
1761132253907444500,0.442444580078125,-1.0229291915893555,0.6408741474151611,-1.7483806610107422
1761132253917444600,0.452444580078125,2.1838436126708984,2.3180270195007324,-3.2798352241516113
1761132253927444500,0.462444580078125,5.707492828369141,3.3376412391662598,-4.493061065673828
1761132253937444600,0.472444580078125,10.884906768798828,2.867351531982422,-5.348028659820557
1761132253947444500,0.482444580078125,17.077239990234375,2.365499496459961,-5.624438762664795
1761132253957444600,0.492444580078125,17.006423950195312,2.477250337600708,-5.812731742858887
1761132253967444500,0.502444580078125,26.357925415039062,1.273647665977478,-1.4549179077148438
1761132253977444600,0.512444580078125,26.980358123779297,1.771445870399475,3.307854652404785
1761132253987444500,0.522444580078125,24.58654022216797,3.1283769607543945,5.992120742797852
1761132253997444600,0.532444580078125,20.60802459716797,4.727228164672852,7.009832382202148
1761132254007443700,0.542443603515625,16.764636993408203,5.6407389640808105,6.993872165679932
1761132254017443600,0.552443603515625,14.126953125,5.914885997772217,5.845364093780518
1761132254027443700,0.562443603515625,11.942841529846191,5.608676433563232,4.877473831176758
1761132254037443600,0.572443603515625,10.230574607849121,5.430032253265381,3.5539650917053223
1761132254047443700,0.582443603515625,8.750554084777832,4.551436424255371,2.6039509773254395
1761132254057443600,0.592443603515625,9.06110668182373,3.7081665992736816,1.4818058013916016
1761132254067443700,0.602443603515625,10.417736053466797,2.370255470275879,1.4699888229370117
1761132254077443600,0.612443603515625,10.78338623046875,1.1762440204620361,2.3003342151641846
1761132254087443700,0.622443603515625,8.456443786621094,0.5390534400939941,2.848031520843506
1761132254097443600,0.632443603515625,4.129245758056641,0.4562898874282837,2.9281845092773438
1761132254107444500,0.642444580078125,-0.37764644622802734,0.38910233974456787,2.8768277168273926
1761132254117444600,0.652444580078125,-0.3801994323730469,0.27641135454177856,2.7982053756713867
1761132254127444500,0.662444580078125,-7.276930332183838,-0.1155785322189331,2.1265065670013428
1761132254137444600,0.672444580078125,-9.393852233886719,-0.2706162929534912,2.0021839141845703
1761132254147444500,0.682444580078125,-11.001920700073242,-0.48871177434921265,1.8896057605743408
1761132254157444600,0.692444580078125,-11.692878723144531,-0.22649645805358887,0.7389234900474548
1761132254167444500,0.702444580078125,-12.442933082580566,-0.927700400352478,0.9110118746757507
1761132254177444600,0.712444580078125,-13.008077621459961,-1.6646276712417603,0.41082799434661865
1761132254187444500,0.722444580078125,-13.383481979370117,-1.7890506982803345,-0.43691694736480713
1761132254197444600,0.732444580078125,-13.672057151794434,-1.9864484071731567,-0.6744555830955505
1761132254207443700,0.742443603515625,-13.97429370880127,-2.299074649810791,-0.41423219442367554
1761132254217443600,0.752443603515625,-14.283119201660156,-2.3028712272644043,-0.13283610343933105
1761132254227443700,0.762443603515625,-14.397451400756836,-2.447608470916748,0.2327060103416443
1761132254237443600,0.772443603515625,-14.645933151245117,-2.5983099937438965,0.2926376461982727
1761132254247443700,0.782443603515625,-15.069059371948242,-2.80285382270813,0.05399388074874878
1761132254257443600,0.792443603515625,-15.3013916015625,-3.134876012802124,-0.21373236179351807
1761132254267443700,0.802443603515625,-15.222559928894043,-3.386326313018799,-0.5156604647636414
1761132254277443600,0.812443603515625,-15.074455261230469,-3.5769991874694824,-0.7677581310272217
1761132254287443700,0.822443603515625,-14.866884231567383,-3.912365436553955,-0.9744770526885986
1761132254297443600,0.832443603515625,-14.281164169311523,-4.248077392578125,-1.0004475116729736
1761132254307444500,0.842444580078125,-12.86311149597168,-4.31264591217041,-0.5325289964675903
1761132254317444400,0.8524443359375,-11.554781913757324,-4.755520820617676,0.42447710037231445
1761132254327444500,0.862444580078125,-10.502988815307617,-5.244560241699219,0.9765948057174683
1761132254337444400,0.8724443359375,-9.43025016784668,-5.72092866897583,0.7231713533401489
1761132254347444500,0.882444580078125,-9.07282829284668,-6.101461410522461,-0.617935299873352
1761132254357444600,0.892444580078125,-9.581194877624512,-6.426374435424805,-2.2518796920776367
1761132254367444500,0.902444580078125,-9.531002044677734,-6.837904930114746,-3.0500595569610596
1761132254377444600,0.912444580078125,-7.878382682800293,-6.602035999298096,-3.193697929382324
1761132254387444500,0.922444580078125,-5.897462844848633,-6.017425060272217,-3.167309284210205
1761132254397444000,0.932444091796875,-3.8758416175842285,-5.8547043800354,-2.966045379638672
1761132254407443200,0.942443115234375,-2.0867881774902344,-5.7148542404174805,-2.718844413757324
1761132254417443300,0.952443359375,-0.47597312927246094,-5.2334065437316895,-1.475562334060669
1761132254427443200,0.962443115234375,0.021056175231933594,-4.660331726074219,0.5701208114624023
1761132254437443300,0.972443359375,0.020580291748046875,-4.634851932525635,0.5857408046722412
1761132254447443200,0.982443115234375,-0.7498035430908203,-0.22140085697174072,3.9562630653381348
1761132254457443300,0.992443359375,2.52889347076416,1.4453498125076294,3.626546859741211
1761132254467443200,1.002443115234375,11.347237586975098,0.6275830268859863,2.0709660053253174
1761132254477443300,1.012443359375,23.19037628173828,-1.2958157062530518,0.49499547481536865
1761132254487443200,1.022443115234375,33.88525390625,-3.8942363262176514,-0.7529944181442261
1761132254497443300,1.032443359375,43.15842056274414,-5.461297988891602,-3.49977445602417
1761132254507444200,1.0424443359375,46.60575485229492,-5.234652519226074,-5.833261489868164
1761132254517444000,1.052444091796875,44.912574768066406,-1.7989227771759033,-9.278512954711914
1761132254527444200,1.0624443359375,42.094459533691406,3.693075656890869,-9.383688926696777
1761132254537444000,1.072444091796875,40.15010070800781,8.776497840881348,-2.6848599910736084
1761132254547444200,1.0824443359375,37.49620056152344,11.727727890014648,6.252828121185303
1761132254557444000,1.092444091796875,37.451393127441406,11.656088829040527,6.125129699707031
1761132254567444200,1.1024443359375,31.3597354888916,11.448882102966309,12.86729621887207
1761132254577444000,1.112444091796875,14.43700885772705,6.242481231689453,13.583684921264648
1761132254587444200,1.1224443359375,8.201574325561523,3.0981435775756836,8.973989486694336
1761132254597444000,1.132444091796875,3.5555505752563477,0.3158372640609741,2.756836414337158
1761132254607443500,1.142443359375,0.8786554336547852,-1.4950525760650635,-3.1274640560150146
1761132254617443600,1.152443603515625,0.9105987548828125,-1.565241813659668,-2.928927421569824
1761132254627443500,1.162443359375,-0.44240760803222656,-2.853799343109131,-8.32137393951416
1761132254637443600,1.172443603515625,-0.5799140930175781,-2.7727839946746826,-6.881474494934082
1761132254647443500,1.182443359375,-1.7552995681762695,-2.863769054412842,-4.174201965332031
1761132254657443300,1.192443359375,-3.90480899810791,-3.079092025756836,-1.3603954315185547
1761132254667443500,1.202443359375,-7.018560409545898,-3.3395423889160156,1.197066307067871
1761132254677443300,1.212443359375,-10.649518966674805,-3.8795294761657715,2.8184494972229004
1761132254687443500,1.222443359375,-13.929818153381348,-3.9831106662750244,3.297102928161621
1761132254697443800,1.23244384765625,-16.55552101135254,-4.430741786956787,3.2187933921813965
1761132254707444700,1.24244482421875,-18.27688217163086,-4.896401405334473,2.674187421798706
1761132254717444600,1.252444580078125,-18.907508850097656,-5.361964225769043,2.0048491954803467
1761132254727444700,1.26244482421875,-18.72191619873047,-5.858608245849609,2.0576837062835693
1761132254737444600,1.272444580078125,-18.665931701660156,-6.041004180908203,2.131911039352417
1761132254747444700,1.28244482421875,-18.080059051513672,-6.325286388397217,2.1704721450805664
1761132254757444600,1.292444580078125,-16.777223587036133,-6.637434005737305,0.9364250898361206
1761132254767444700,1.30244482421875,-16.206096649169922,-6.977413177490234,-0.0267641544342041
1761132254777444900,1.31244482421875,-15.717718124389648,-7.203185081481934,-0.9520254135131836
1761132254787444700,1.32244482421875,-15.21786880493164,-7.334516525268555,-1.9523861408233643
1761132254797444900,1.33244482421875,-14.777487754821777,-7.245126247406006,-2.3229546546936035
1761132254807444000,1.34244384765625,-14.568887710571289,-7.120949745178223,-2.0007941722869873
1761132254817443800,1.35244384765625,-14.685970306396484,-6.782504558563232,-1.0830833911895752
1761132254827443700,1.362443603515625,-15.0568208694458,-6.364713668823242,0.057430267333984375
1761132254837443800,1.37244384765625,-15.471268653869629,-5.8139448165893555,1.032046914100647
1761132254847443700,1.382443603515625,-15.813604354858398,-5.210445404052734,1.7355257272720337
1761132254857443800,1.39244384765625,-15.891937255859375,-4.789350986480713,1.876899242401123
1761132254867443700,1.402443603515625,-15.465638160705566,-4.559855937957764,1.7852200269699097
1761132254877443800,1.41244384765625,-14.47831916809082,-4.492668628692627,1.4853119850158691
1761132254887443700,1.422443603515625,-13.19972038269043,-4.381753444671631,0.7865931987762451
1761132254897443800,1.43244384765625,-11.668025970458984,-4.14585018157959,0.015388727188110352
1761132254907444500,1.442444580078125,-10.545318603515625,-3.8685994148254395,-0.06602287292480469
1761132254917444600,1.452444580078125,-9.20406723022461,-3.49409818649292,0.3429727554321289
1761132254927444500,1.462444580078125,-7.279467582702637,-3.056631565093994,0.7347900867462158
1761132254940518700,1.4755185546875,-5.530498504638672,-2.519684314727783,1.0589399337768555
1761132254950518800,1.485518798828125,-3.2291741371154785,-1.880070686340332,0.96553635597229
1761132254960518700,1.4955185546875,0.5249261856079102,-1.4435958862304688,0.9062237739562988
1761132254970518800,1.505518798828125,4.292499542236328,-1.8520894050598145,2.369725465774536
1761132254980518700,1.5155185546875,9.107776641845703,-1.9508994817733765,3.839601516723633
1761132254990518800,1.525518798828125,15.4359769821167,-2.2884411811828613,3.6587562561035156
1761132255000518700,1.5355185546875,23.274627685546875,-3.651305675506592,1.9049394130706787
1761132255010518000,1.54551806640625,31.27973175048828,-4.978976249694824,-0.18994593620300293
1761132255020518000,1.555517822265625,39.77130126953125,-6.474574565887451,0.08475351333618164
1761132255030518000,1.56551806640625,46.374393463134766,-6.65848445892334,1.194554328918457
1761132255040518000,1.575517822265625,50.2115478515625,-5.49955940246582,2.879380226135254
1761132255050518000,1.58551806640625,48.35820770263672,-2.681873083114624,4.620624542236328
1761132255060518000,1.595517822265625,41.010284423828125,1.6180309057235718,5.768904685974121
1761132255070517800,1.605517822265625,32.204803466796875,5.861179828643799,6.849638938903809
1761132255080518000,1.615517822265625,23.034486770629883,8.600753784179688,9.050100326538086
1761132255090517800,1.625517822265625,16.689308166503906,9.076854705810547,10.873636245727539
1761132255100518000,1.635517822265625,14.302903175354004,8.23080825805664,10.575716972351074
1761132255110518800,1.645518798828125,15.787917137145996,3.5774288177490234,8.783947944641113
1761132255120518700,1.6555185546875,18.408143997192383,-0.5140261650085449,4.830971717834473
1761132255130518800,1.665518798828125,16.579450607299805,-2.8530113697052,-0.9147148132324219
1761132255140518700,1.6755185546875,10.308928489685059,-2.5498123168945312,-6.603433609008789
1761132255150518800,1.685518798828125,3.8663330078125,-1.3062660694122314,-7.794357776641846
1761132255160518700,1.6955185546875,-1.3167824745178223,-0.028898954391479492,-6.417399883270264
1761132255170518800,1.705518798828125,-5.062813758850098,1.2811150550842285,-4.561004161834717
1761132255180518700,1.7155185546875,-7.576954364776611,1.9633985757827759,-1.7778816223144531
1761132255190518800,1.725518798828125,-8.505463600158691,2.319502592086792,0.35256385803222656
1761132255200518700,1.7355185546875,-9.500442504882812,1.9209098815917969,0.8224496841430664
1761132255210517800,1.745517822265625,-11.679009437561035,1.2487847805023193,0.6509412527084351
1761132255220518000,1.755517822265625,-14.413228034973145,0.583213210105896,0.3139704465866089
1761132255230517800,1.765517822265625,-15.99847412109375,0.27638959884643555,0.10098862648010254
1761132255240518000,1.775517822265625,-16.546062469482422,0.06394505500793457,0.4072537422180176
1761132255250517800,1.785517822265625,-16.21270751953125,-0.5554426908493042,0.6696457862854004
1761132255260518000,1.795517822265625,-15.366085052490234,-0.996337890625,0.9687892198562622
1761132255270517800,1.805517822265625,-15.255131721496582,-1.3702865839004517,1.4946486949920654
1761132255280518000,1.815517822265625,-15.273093223571777,-1.526342749595642,1.5076380968093872
1761132255290517800,1.825517822265625,-14.904962539672852,-1.7672590017318726,0.8106085062026978
1761132255300518000,1.835517822265625,-14.222332954406738,-2.2320759296417236,-0.3045206069946289
1761132255310518800,1.845518798828125,-13.039419174194336,-2.641350269317627,-1.5092191696166992
1761132255320518700,1.8555185546875,-11.973234176635742,-2.8482418060302734,-2.3647537231445312
1761132255330518800,1.865518798828125,-11.197545051574707,-2.843568801879883,-2.5605976581573486
1761132255340518700,1.8755185546875,-10.555713653564453,-2.642049551010132,-2.0011579990386963
1761132255350518800,1.885518798828125,-9.907689094543457,-2.383903980255127,-1.1191649436950684
1761132255360518700,1.8955185546875,-9.486822128295898,-2.239191770553589,-0.3668358325958252
1761132255370518800,1.905518798828125,-9.06804370880127,-2.258598566055298,0.06064248085021973
1761132255380518700,1.9155185546875,-8.646134376525879,-2.3684849739074707,0.28586244583129883
1761132255390518800,1.925518798828125,-8.321066856384277,-2.426889419555664,0.5857009887695312
1761132255400518700,1.9355185546875,-8.668937683105469,-2.4990270137786865,0.8753230571746826
1761132255410517800,1.945517822265625,-9.649130821228027,-2.738572120666504,0.869444727897644
1761132255420518000,1.955517822265625,-10.713056564331055,-2.881340265274048,0.7518360614776611
1761132255430517800,1.965517822265625,-11.392337799072266,-2.8630316257476807,1.0657862424850464
1761132255440518000,1.975517822265625,-11.633781433105469,-2.9187638759613037,1.644299030303955
1761132255450517800,1.985517822265625,-11.771886825561523,-2.8591935634613037,2.162093162536621
1761132255460518000,1.995517822265625,-11.94435977935791,-2.7842657566070557,2.6358306407928467
1761132255470517800,2.005517822265625,-12.193405151367188,-2.5151264667510986,3.124175548553467
1761132255480518000,2.015517822265625,-12.578596115112305,-2.195408344268799,3.8941650390625
1761132255490517800,2.025517822265625,-12.126382827758789,-2.250328540802002,4.007162094116211
1761132255500518000,2.035517822265625,-10.454553604125977,-2.161034107208252,3.217541456222534
1761132255510518800,2.045518798828125,-8.198677062988281,-2.10563325881958,2.4919943809509277
1761132255520518700,2.0555185546875,-6.106563091278076,-2.0393919944763184,2.434455394744873
1761132255530518800,2.065518798828125,-4.641669273376465,-1.62398362159729,2.779567003250122
1761132255540518700,2.0755185546875,-3.5887398719787598,-0.8789351582527161,3.736280918121338
1761132255550518800,2.085518798828125,-2.3675384521484375,-0.19502490758895874,4.935396194458008
1761132255560518700,2.0955185546875,-1.0255794525146484,0.7526669502258301,5.154440879821777
1761132255570518800,2.105518798828125,1.058725357055664,1.8173574209213257,4.56658935546875
1761132255580518700,2.1155185546875,3.7842397689819336,2.822183132171631,4.17681884765625
1761132255590518800,2.125518798828125,7.932609558105469,4.124134540557861,4.3950886726379395
1761132255600519000,2.135518798828125,14.72614574432373,5.242358684539795,4.612333297729492
1761132255610518000,2.14551806640625,22.612375259399414,4.672520637512207,4.495613098144531
1761132255620518000,2.155517822265625,30.706645965576172,3.129521369934082,3.7243313789367676
1761132255630518000,2.16551806640625,39.2315559387207,1.025846004486084,4.202558517456055
1761132255640518000,2.175517822265625,47.89826202392578,0.21302524209022522,6.31563663482666
1761132255650518000,2.18551806640625,53.37837219238281,1.2522752285003662,8.939157485961914
1761132255660518000,2.195517822265625,50.283626556396484,3.184591054916382,11.1544189453125
1761132255670517800,2.205517822265625,39.46192932128906,5.88117790222168,11.503351211547852
1761132255680518000,2.215517822265625,25.926570892333984,8.232160568237305,11.937291145324707
1761132255690517800,2.225517822265625,14.77939510345459,9.554662704467773,13.037168502807617
1761132255700518000,2.235517822265625,8.057607650756836,9.051469802856445,13.491580963134766
1761132255710518800,2.245518798828125,5.860642433166504,6.581430912017822,11.919559478759766
1761132255720518700,2.2555185546875,4.325661659240723,4.277360916137695,7.868187427520752
1761132255730518800,2.265518798828125,2.249795913696289,2.417257308959961,3.4147255420684814
1761132255740518700,2.2755185546875,0.03746509552001953,1.0192793607711792,-0.49289482831954956
1761132255750518800,2.285518798828125,-1.935490608215332,0.3484683930873871,-2.9617984294891357
1761132255760518700,2.2955185546875,-3.729206085205078,0.17106500267982483,-3.8250608444213867
1761132255770518800,2.305518798828125,-5.512111186981201,0.2586555480957031,-3.8491175174713135
1761132255780518700,2.3155185546875,-5.75452184677124,0.8409388065338135,-4.528257846832275
1761132255790518800,2.325518798828125,-4.492475509643555,1.1676340103149414,-5.484739303588867
1761132255800518700,2.3355185546875,-3.227078914642334,0.6199326515197754,-5.425053119659424
1761132255810518000,2.34551806640625,-4.142660617828369,0.5796099901199341,-5.495440483093262
1761132255820518000,2.355517822265625,-7.8129048347473145,-0.029560625553131104,-4.267821311950684
1761132255830517800,2.365517822265625,-12.320109367370605,0.38064098358154297,-3.7404556274414062
1761132255840518000,2.375517822265625,-15.692496299743652,0.03733983635902405,-2.4842662811279297
1761132255850518000,2.38551806640625,-17.842979431152344,0.2042963206768036,-2.1830639839172363
1761132255860518000,2.395517822265625,-18.34209442138672,0.30069997906684875,-2.9960503578186035
1761132255870517800,2.405517822265625,-17.854814529418945,-1.026206612586975,-1.686214566230774
1761132255880518000,2.415517822265625,-16.290111541748047,-1.4128789901733398,-2.7174394130706787
1761132255890518000,2.42551806640625,-16.27220916748047,-1.4629031419754028,-2.7943308353424072
1761132255900518000,2.435517822265625,-13.364075660705566,-2.652082920074463,-5.103914260864258
1761132255910518800,2.445518798828125,-11.907960891723633,-2.922121524810791,-6.645072937011719
1761132255920518700,2.4555185546875,-10.459514617919922,-3.0385022163391113,-7.666935920715332
1761132255930518800,2.465518798828125,-9.094657897949219,-3.183915615081787,-7.716909885406494
1761132255940519000,2.475518798828125,-7.946269989013672,-3.135829448699951,-7.1745805740356445
1761132255950518800,2.485518798828125,-7.609173774719238,-2.9472439289093018,-6.078948497772217
1761132255960519000,2.495518798828125,-7.651764392852783,-2.621764898300171,-5.188628196716309
1761132255970518800,2.505518798828125,-7.845010757446289,-2.345144033432007,-4.821079730987549
1761132255980519000,2.515518798828125,-8.064891815185547,-2.159430503845215,-4.92926025390625
1761132255990518800,2.525518798828125,-8.320677757263184,-2.109363079071045,-4.650538444519043
1761132256000518700,2.5355185546875,-8.06341552734375,-1.879294991493225,-4.359121322631836
1761132256010518000,2.54551806640625,-7.684540271759033,-1.8020141124725342,-4.247016906738281
1761132256020518000,2.555517822265625,-7.558658599853516,-1.8985564708709717,-4.341381072998047
1761132256030518000,2.56551806640625,-7.499519348144531,-1.8526347875595093,-4.4053192138671875
1761132256040518000,2.575517822265625,-7.618572235107422,-1.7186082601547241,-3.8653135299682617
1761132256050518000,2.58551806640625,-7.432157516479492,-1.5225881338119507,-2.819430112838745
1761132256060518000,2.595517822265625,-7.440067291259766,-1.4917668104171753,-2.7808847427368164
1761132256070518000,2.60551806640625,-6.4936418533325195,-1.2962158918380737,-0.9763968586921692
1761132256080518000,2.615517822265625,-5.653022289276123,-1.1408339738845825,-0.410198450088501
1761132256090518000,2.62551806640625,-4.1001434326171875,-1.170328140258789,0.02936398983001709
1761132256100518000,2.635517822265625,-2.057941436767578,-1.3542934656143188,0.20677578449249268
1761132256110518800,2.645518798828125,0.15185832977294922,-1.449087381362915,0.5905505418777466
1761132256120519000,2.655518798828125,2.5435752868652344,-1.855620265007019,1.8041491508483887
1761132256130518800,2.665518798828125,4.482985496520996,-2.0693492889404297,2.5904157161712646
1761132256140519000,2.675518798828125,5.359813690185547,-1.5565156936645508,2.5649006366729736
1761132256150518800,2.685518798828125,5.875201225280762,-0.5732613801956177,1.612287163734436
1761132256160518700,2.6955185546875,8.661751747131348,0.4187585413455963,0.620724081993103
1761132256180518700,2.7155185546875,22.64685821533203,-0.352355420589447,2.382155418395996
1761132256190518800,2.725518798828125,29.171598434448242,-0.8988301753997803,4.682491779327393
1761132256200518700,2.7355185546875,37.04637908935547,-1.165351152420044,6.2306928634643555
1761132256210517800,2.745517822265625,44.72710418701172,-2.962231159210205,7.712199687957764
1761132256220518000,2.755517822265625,48.58985900878906,-3.300290584564209,7.496471405029297
1761132256230517800,2.765517822265625,48.03921890258789,-2.002978801727295,6.414207458496094
1761132256240518000,2.775517822265625,43.22232437133789,-1.0401363372802734,5.214036464691162
1761132256250517800,2.785517822265625,34.21242141723633,0.8020429015159607,3.9667649269104004
1761132256260518000,2.795517822265625,34.19051742553711,0.6584010720252991,4.038686275482178
1761132256270517800,2.805517822265625,21.57876968383789,2.9103827476501465,3.7907514572143555
1761132256280518000,2.815517822265625,7.222555160522461,5.492107391357422,7.153903007507324
1761132256290517800,2.825517822265625,7.153297424316406,5.054427623748779,6.491707801818848
1761132256300518000,2.835517822265625,7.153350830078125,5.027055263519287,6.463057518005371
1761132256310518800,2.845518798828125,6.726435661315918,2.266512632369995,3.185922861099243
1761132256320518700,2.8555185546875,4.520611763000488,4.678915977478027,-2.330249071121216
1761132256330518800,2.865518798828125,1.4025144577026367,3.663565158843994,-3.113243341445923
1761132256340518700,2.8755185546875,-2.3599729537963867,2.7049942016601562,-2.2231338024139404
1761132256350518800,2.885518798828125,-7.8234453201293945,2.266056776046753,-0.7227084636688232
1761132256360518700,2.8955185546875,-13.665946960449219,1.0199384689331055,2.4606614112854004
1761132256370518800,2.905518798828125,-19.791635513305664,1.1968759298324585,3.719961166381836
1761132256380518700,2.9155185546875,-25.507347106933594,0.18360930681228638,5.540225505828857
1761132256390518800,2.925518798828125,-29.00680923461914,-0.40663331747055054,6.908360481262207
1761132256400518700,2.9355185546875,-29.89557456970215,-1.2780107259750366,7.547155380249023
1761132256410517800,2.945517822265625,-27.191448211669922,-2.7579550743103027,6.432127475738525
1761132256420518000,2.955517822265625,-22.28551483154297,-4.556573867797852,3.632551670074463
1761132256430517800,2.965517822265625,-16.501272201538086,-6.767330646514893,0.574515163898468
1761132256440518000,2.975517822265625,-10.25953197479248,-8.324628829956055,-2.8589320182800293
1761132256450517800,2.985517822265625,-5.683713436126709,-9.223222732543945,-4.920042037963867
1761132256460518000,2.995517822265625,-3.5001096725463867,-9.217081069946289,-5.075795650482178
1761132256470517800,3.005517822265625,-3.9277448654174805,-8.217755317687988,-3.7574219703674316
1761132256480518000,3.015517822265625,-6.39603328704834,-7.011363983154297,-2.649632215499878
1761132256490517800,3.025517822265625,-8.89999771118164,-6.0263991355896,-1.5837552547454834
1761132256500518000,3.035517822265625,-10.950586318969727,-5.092586994171143,-0.7484726309776306
1761132256510518800,3.045518798828125,-11.888503074645996,-4.493732929229736,-0.3066508173942566
1761132256520518700,3.0555185546875,-11.882699966430664,-4.506560802459717,-0.34439653158187866
1761132256530518800,3.065518798828125,-11.608627319335938,-3.6175241470336914,-1.109632134437561
1761132256540518700,3.0755185546875,-11.467705726623535,-3.221015214920044,-1.8692142963409424
1761132256550518800,3.085518798828125,-11.40268611907959,-2.7793264389038086,-2.2583091259002686
1761132256560518700,3.0955185546875,-11.746063232421875,-2.199003219604492,-2.299546718597412
1761132256570518800,3.105518798828125,-12.361617088317871,-1.6991736888885498,-2.194540500640869
1761132256580518700,3.1155185546875,-12.371719360351562,-1.6414073705673218,-2.157318353652954
1761132256590518800,3.125518798828125,-13.017545700073242,-1.361215353012085,-2.076101064682007
1761132256600519000,3.135518798828125,-13.118873596191406,-1.3204034566879272,-1.9959948062896729
1761132256610518000,3.14551806640625,-12.815800666809082,-1.3500635623931885,-1.9595279693603516
1761132256620518000,3.155517822265625,-12.139938354492188,-1.3464863300323486,-1.8605880737304688
1761132256630518000,3.16551806640625,-11.45007610321045,-1.4118942022323608,-1.7356221675872803
1761132256650517800,3.185517822265625,-10.673006057739258,-1.3671722412109375,-2.029330253601074
1761132256660518000,3.195517822265625,-9.831210136413574,-1.4186153411865234,-2.301999092102051
1761132256670517800,3.205517822265625,-8.084820747375488,-1.6207411289215088,-2.4987294673919678
1761132256680518000,3.215517822265625,-5.949800491333008,-1.6712572574615479,-2.611905097961426
1761132256690517800,3.225517822265625,-3.7563910484313965,-1.553365707397461,-2.6041622161865234
1761132256700518000,3.235517822265625,-1.9852237701416016,-1.0449610948562622,-1.8703162670135498
1761132256710518800,3.245518798828125,-1.0637245178222656,-0.5197851657867432,-0.7621296644210815
1761132256720518700,3.2555185546875,0.1852436065673828,-0.015465885400772095,0.3412764072418213
1761132256730518800,3.265518798828125,2.2980051040649414,0.5984646081924438,1.2221885919570923
1761132256740519000,3.275518798828125,5.23967170715332,0.9580849409103394,1.888092279434204
1761132256750518800,3.285518798828125,7.941695213317871,1.3724188804626465,3.0250821113586426
1761132256760519000,3.295518798828125,7.852861404418945,2.5461151599884033,4.768554210662842
1761132256770518800,3.305518798828125,7.051775932312012,4.297335624694824,6.406765937805176
1761132256780519000,3.315518798828125,9.802774429321289,4.757132530212402,7.710363388061523
1761132256790518800,3.325518798828125,17.061134338378906,4.018136501312256,8.75732707977295
1761132256800519000,3.335518798828125,28.290695190429688,2.2095935344696045,10.017290115356445
1761132256810518000,3.34551806640625,40.89240264892578,-0.7875862717628479,10.7255859375
1761132256820518000,3.355517822265625,51.90627670288086,-4.572770595550537,12.529626846313477
1761132256830517800,3.365517822265625,55.14623260498047,-5.1600141525268555,15.813619613647461
1761132256840518000,3.375517822265625,52.62358856201172,-2.7119970321655273,17.36594581604004
1761132256850518000,3.38551806640625,45.502601623535156,0.7351222634315491,18.817710876464844
1761132256860518000,3.395517822265625,35.12195587158203,3.5964174270629883,16.479900360107422
1761132256870517800,3.405517822265625,23.753067016601562,5.171430587768555,11.81556224822998
1761132256880518000,3.415517822265625,15.5435152053833,4.388384819030762,8.270273208618164
1761132256890517800,3.425517822265625,10.714268684387207,2.374267101287842,4.505252838134766
1761132256900518000,3.435517822265625,10.698594093322754,2.3107242584228516,4.53831672668457
1761132256910518800,3.445518798828125,6.095369338989258,1.2694941759109497,-3.157259464263916
1761132256920518700,3.4555185546875,3.851652145385742,0.4066532254219055,-5.977092266082764
1761132256930518800,3.465518798828125,-0.8368120193481445,-0.5050211548805237,-7.278097152709961
1761132256940518700,3.4755185546875,-7.06500244140625,-0.7868893146514893,-7.667308807373047
1761132256950518800,3.485518798828125,-14.11170482635498,-0.55498206615448,-8.10452651977539
1761132256960518700,3.4955185546875,-19.060787200927734,-0.34337952733039856,-7.78792142868042
1761132256970518800,3.505518798828125,-22.329212188720703,-0.7134691476821899,-6.295851707458496
1761132256980518700,3.5155185546875,-22.554975509643555,-1.1744999885559082,-2.997205972671509
1761132256990518800,3.525518798828125,-20.119319915771484,-0.5412908792495728,-5.024039268493652
1761132257000518700,3.5355185546875,-17.84556770324707,-2.380239963531494,-2.434150457382202
1761132257010518000,3.54551806640625,-15.050782203674316,-1.8379753828048706,-1.2761627435684204
1761132257020518000,3.555517822265625,-12.350997924804688,-2.4190802574157715,0.2828042507171631
1761132257030517800,3.565517822265625,-10.20775318145752,-2.5527522563934326,1.1017403602600098
1761132257040518000,3.575517822265625,-8.055461883544922,-2.6588315963745117,1.8545358180999756
1761132257050517800,3.585517822265625,-6.333507537841797,-3.0716757774353027,1.9180574417114258
1761132257060518000,3.595517822265625,-5.414969444274902,-3.670332431793213,-0.16710615158081055
1761132257070518000,3.60551806640625,-5.3424296379089355,-4.128775119781494,-2.6987593173980713
1761132257080518000,3.615517822265625,-5.595323085784912,-4.479022026062012,-4.919692039489746
1761132257090518000,3.62551806640625,-5.653642177581787,-4.580074787139893,-5.631406784057617
1761132257100518000,3.635517822265625,-5.6713547706604,-4.485273361206055,-4.788442134857178
1761132257110518800,3.645518798828125,-6.260005474090576,-4.364667892456055,-3.5856869220733643
1761132257120519000,3.655518798828125,-7.715245246887207,-4.220541954040527,-2.528362274169922
1761132257130518800,3.665518798828125,-10.040289878845215,-4.058331489562988,-2.111772060394287
1761132257140519000,3.675518798828125,-12.585945129394531,-3.750692844390869,-1.9185904264450073
1761132257150518800,3.685518798828125,-14.483271598815918,-3.502178192138672,-1.6458848714828491
1761132257160518700,3.6955185546875,-15.616353034973145,-3.307265281677246,-1.3258857727050781
1761132257170518800,3.705518798828125,-16.005102157592773,-3.2010717391967773,-1.1021151542663574
1761132257180519000,3.715518798828125,-15.983044624328613,-3.070666790008545,-0.855911910533905
1761132257190518800,3.725518798828125,-15.88441276550293,-2.965228796005249,-0.5978928804397583
1761132257200519000,3.735518798828125,-15.752235412597656,-2.878085136413574,-0.32788580656051636
1761132257210518000,3.74551806640625,-15.633953094482422,-2.8023691177368164,-0.27062007784843445
1761132257220518000,3.755517822265625,-15.66554069519043,-2.6637277603149414,-0.5667763948440552
1761132257230517800,3.765517822265625,-15.259847640991211,-2.5621225833892822,-0.6470675468444824
1761132257240518000,3.775517822265625,-14.093608856201172,-2.5818681716918945,-0.46505028009414673
1761132257250517800,3.785517822265625,-12.639141082763672,-2.672064781188965,-0.21122056245803833
1761132257260518000,3.795517822265625,-11.108064651489258,-2.736879348754883,-0.43465059995651245
1761132257270517800,3.805517822265625,-9.40095043182373,-2.798799991607666,-0.7323035597801208
1761132257280518000,3.815517822265625,-6.550356864929199,-2.5287277698516846,-0.03533869981765747
1761132257290517800,3.825517822265625,-3.5479907989501953,-1.979713797569275,0.9835992455482483
1761132257300518000,3.835517822265625,-0.171112060546875,-1.355217695236206,1.3046897649765015
1761132257310518800,3.845518798828125,3.9233694076538086,-0.9631078243255615,1.5193876028060913
1761132257320518700,3.8555185546875,8.32413387298584,-0.5241166949272156,1.1948747634887695
1761132257330518800,3.865518798828125,12.671698570251465,0.27325379848480225,0.5547857284545898
1761132257340518700,3.8755185546875,14.199416160583496,1.635851263999939,0.4949125647544861
1761132257350518800,3.885518798828125,13.019304275512695,4.423915863037109,1.4702115058898926
1761132257360518700,3.8955185546875,12.024502754211426,7.24045991897583,2.984665632247925
1761132257370518800,3.905518798828125,15.606952667236328,9.242280960083008,4.444500923156738
1761132257380518700,3.9155185546875,27.119443893432617,7.800907611846924,9.111863136291504
1761132257390518800,3.925518798828125,43.39910888671875,2.6306347846984863,15.412281036376953
1761132257400518700,3.9355185546875,54.995765686035156,-0.9742969274520874,18.316499710083008
1761132257410517800,3.945517822265625,55.05946350097656,-0.5981637835502625,17.864999771118164
1761132257420518000,3.955517822265625,51.35765838623047,1.813459873199463,16.061256408691406
1761132257430517800,3.965517822265625,40.9918212890625,5.220763683319092,11.959992408752441
1761132257440518000,3.975517822265625,31.185287475585938,6.983492851257324,7.5849223136901855
1761132257450517800,3.985517822265625,21.183788299560547,7.593456745147705,4.538905620574951
1761132257460518000,3.995517822265625,13.898256301879883,6.684506416320801,4.19110107421875
1761132257470517800,4.005517822265625,8.11306095123291,5.3794779777526855,4.0309624671936035
1761132257480518000,4.015517822265625,3.6484365463256836,4.230712890625,3.3400261402130127
1761132257490517800,4.025517822265625,0.061379432678222656,2.80263090133667,2.6052474975585938
1761132257500518000,4.035517822265625,-3.543529987335205,1.5582754611968994,1.461343765258789
1761132257510518800,4.045518798828125,-7.6620707511901855,0.6139375567436218,0.1680753231048584
1761132257520518700,4.0555185546875,-10.89577579498291,-0.21454375982284546,-0.7519665956497192
1761132257530518800,4.065518798828125,-13.517190933227539,-1.0402467250823975,-1.1211262941360474
1761132257540518700,4.0755185546875,-15.659401893615723,-1.7840100526809692,-0.8551280498504639
1761132257550518800,4.085518798828125,-17.454368591308594,-2.5781033039093018,-0.25329166650772095
1761132257560518700,4.0955185546875,-19.47329330444336,-3.5496532917022705,0.16252702474594116
1761132257570518800,4.105518798828125,-21.00853729248047,-4.047853946685791,0.1346558928489685
1761132257580518700,4.1155185546875,-21.714073181152344,-4.428511142730713,0.2714446783065796
1761132257590518800,4.125518798828125,-21.544445037841797,-4.80961275100708,0.4574846625328064
1761132257600518700,4.1355185546875,-20.62572479248047,-5.351840972900391,0.7616580724716187
1761132257610518000,4.14551806640625,-19.271100997924805,-6.0508527755737305,0.6594054698944092
1761132257620518000,4.155517822265625,-17.414249420166016,-6.990742206573486,-0.40561240911483765
1761132257630518000,4.16551806640625,-15.578237533569336,-7.748520851135254,-2.221426486968994
1761132257640518000,4.175517822265625,-13.80472469329834,-8.522562980651855,-4.127183437347412
1761132257650518000,4.18551806640625,-12.129314422607422,-9.16963005065918,-5.5102219581604
1761132257660518000,4.195517822265625,-10.626233100891113,-9.465283393859863,-6.127309322357178
1761132257670518000,4.20551806640625,-9.256543159484863,-9.429654121398926,-5.837330341339111
1761132257680518000,4.215517822265625,-8.436427116394043,-9.347219467163086,-4.822454929351807
1761132257690518000,4.22551806640625,-8.50373363494873,-9.083809852600098,-3.7018930912017822
1761132257700518000,4.235517822265625,-9.434412002563477,-8.811590194702148,-2.7928850650787354
1761132257710518800,4.245518798828125,-10.620097160339355,-8.769556999206543,-2.5976243019104004
1761132257720519000,4.255518798828125,-11.567465782165527,-8.579110145568848,-2.850612163543701
1761132257730518800,4.265518798828125,-11.573862075805664,-8.556567192077637,-2.8525893688201904
1761132257740519000,4.275518798828125,-12.831443786621094,-8.262540817260742,-2.695967435836792
1761132257750518800,4.285518798828125,-12.851879119873047,-7.842421054840088,-2.0997564792633057
1761132257760519000,4.295518798828125,-12.26822280883789,-7.301059722900391,-1.3815093040466309
1761132257770518800,4.305518798828125,-11.21911334991455,-6.485115051269531,-0.8161838054656982
1761132257780519000,4.315518798828125,-9.825658798217773,-5.692683219909668,-0.3767932057380676
1761132257790518800,4.325518798828125,-9.84924602508545,-5.592648983001709,-0.4211171269416809
1761132257800519000,4.335518798828125,-4.419917583465576,-3.4737043380737305,1.4701144695281982
1761132257810518000,4.34551806640625,-1.3222122192382812,-2.3126025199890137,2.358877420425415
1761132257820518000,4.355517822265625,1.6173505783081055,-0.9499959945678711,2.4977505207061768
1761132257830518000,4.36551806640625,4.590583801269531,0.8132438659667969,2.2797610759735107
1761132257840518000,4.375517822265625,4.573121070861816,0.90571129322052,2.2828261852264404
1761132257850518000,4.38551806640625,9.061464309692383,5.288693428039551,3.346832275390625
1761132257860518000,4.395517822265625,10.538805961608887,8.0269775390625,3.817707061767578
1761132257870518000,4.40551806640625,12.383010864257812,10.410161018371582,3.096320629119873
1761132257880518000,4.415517822265625,15.2945556640625,11.480096817016602,3.3102469444274902
1761132257890518000,4.42551806640625,19.60272979736328,12.558818817138672,4.349374771118164
1761132257900518000,4.435517822265625,24.461002349853516,13.019596099853516,6.4704108238220215
1761132257910518800,4.445518798828125,31.48491096496582,10.848038673400879,9.807317733764648
1761132257920518700,4.4555185546875,39.80607986450195,7.662949085235596,12.325307846069336
1761132257930518800,4.465518798828125,44.15454864501953,5.4642767906188965,14.060992240905762
1761132257940518700,4.4755185546875,42.727439880371094,6.054475784301758,12.786613464355469
1761132257950518800,4.485518798828125,37.06946563720703,6.759537696838379,8.309456825256348
1761132257960518700,4.4955185546875,29.999435424804688,6.38960599899292,2.743351459503174
1761132257970518800,4.505518798828125,23.726720809936523,5.259160041809082,-1.1411213874816895
1761132257980518700,4.5155185546875,19.811119079589844,3.899416446685791,-1.9109630584716797
1761132257990518800,4.525518798828125,16.862058639526367,2.557767391204834,-1.2994441986083984
1761132258000518700,4.5355185546875,14.571966171264648,1.1417608261108398,1.1608773469924927
1761132258010518000,4.54551806640625,9.78499984741211,-0.050112128257751465,3.724247932434082
1761132258020518000,4.555517822265625,2.801907539367676,-1.008434772491455,4.6664018630981445
1761132258030517800,4.565517822265625,-6.147006034851074,-1.8472981452941895,4.1269965171813965
1761132258040518000,4.575517822265625,-12.817570686340332,-2.798471450805664,3.010619640350342
1761132258050517800,4.585517822265625,-16.48508644104004,-3.675662040710449,1.8674935102462769
1761132258060518000,4.595517822265625,-18.05400848388672,-4.734622001647949,1.2185331583023071
1761132258070517800,4.605517822265625,-17.425514221191406,-4.92403507232666,0.5866355895996094
1761132258080518000,4.615517822265625,-16.684391021728516,-7.484071731567383,1.2603886127471924
1761132258090517800,4.625517822265625,-16.66558837890625,-7.281169891357422,0.9763090014457703
1761132258100518000,4.635517822265625,-16.879451751708984,-7.3208112716674805,0.7645455598831177
1761132258110518800,4.645518798828125,-18.558704376220703,-8.07767105102539,1.6886250972747803
1761132258120518700,4.6555185546875,-20.218952178955078,-8.11049747467041,1.291378378868103
1761132258130518800,4.665518798828125,-21.430442810058594,-7.754584312438965,0.34100931882858276
1761132258140518700,4.6755185546875,-22.099515914916992,-8.276206970214844,0.1291411966085434
1761132258150518800,4.685518798828125,-21.32750701904297,-7.876760482788086,-0.7345864772796631
1761132258160518700,4.6955185546875,-19.024768829345703,-7.873392581939697,-1.5453331470489502
1761132258170518800,4.705518798828125,-16.209810256958008,-8.364533424377441,-2.459892749786377
1761132258180518700,4.7155185546875,-13.32503890991211,-8.304701805114746,-4.0487284660339355
1761132258190518800,4.725518798828125,-10.355289459228516,-8.118607521057129,-5.15048360824585
1761132258200518700,4.7355185546875,-7.410323143005371,-7.560572624206543,-5.893050670623779
1761132258210517800,4.745517822265625,-5.913125991821289,-7.000995635986328,-5.652526378631592
1761132258220518000,4.755517822265625,-5.195642948150635,-6.516594886779785,-4.615004062652588
1761132258230517800,4.765517822265625,-5.250014781951904,-5.717685222625732,-3.5868890285491943
1761132258240518000,4.775517822265625,-5.993638038635254,-5.032061576843262,-2.8712289333343506
1761132258250517800,4.785517822265625,-6.953419208526611,-4.336917400360107,-2.248892307281494
1761132258260518000,4.795517822265625,-7.19301700592041,-3.5738067626953125,-1.4922904968261719
1761132258270517800,4.805517822265625,-6.596390724182129,-3.180746078491211,-0.8600004315376282
1761132258280518000,4.815517822265625,-5.4105634689331055,-2.961243152618408,-0.42066827416419983
1761132258290517800,4.825517822265625,-4.041046142578125,-3.117180109024048,-0.4360913336277008
1761132258300518000,4.835517822265625,-2.848766803741455,-3.158155918121338,-0.8203890323638916
1761132258310518800,4.845518798828125,-2.0766286849975586,-2.808361053466797,-1.321000099182129
1761132258320518700,4.8555185546875,-1.1366386413574219,-2.1511003971099854,-1.5988070964813232
1761132258330518800,4.865518798828125,-0.30014896392822266,-1.2673428058624268,-1.8966987133026123
1761132258340518700,4.8755185546875,0.9660062789916992,-0.1650397777557373,-2.299886465072632
1761132258350518800,4.885518798828125,4.083715438842773,0.6006813049316406,-1.8706848621368408
1761132258360518700,4.8955185546875,8.376523971557617,0.9512491226196289,-0.6601372957229614
1761132258370518800,4.905518798828125,12.54013442993164,1.5320160388946533,1.1917420625686646
1761132258380518700,4.9155185546875,14.251405715942383,2.5249555110931396,3.026820659637451
1761132258390518800,4.925518798828125,14.297748565673828,4.318838119506836,3.8440091609954834
1761132258400518700,4.9355185546875,13.008667945861816,6.921386241912842,3.7759430408477783
1761132258410517800,4.945517822265625,12.705442428588867,9.452322006225586,3.6385293006896973
1761132258420518000,4.955517822265625,14.412108421325684,11.029760360717773,5.142373085021973
1761132258430517800,4.965517822265625,18.488418579101562,11.304633140563965,8.172149658203125
1761132258440518000,4.975517822265625,22.570629119873047,11.12901496887207,10.429428100585938
1761132258450517800,4.985517822265625,24.667558670043945,10.807214736938477,11.158493995666504
1761132258460518000,4.995517822265625,24.00333023071289,10.970315933227539,10.05168628692627
1761132258470517800,5.005517822265625,22.77118682861328,11.61520004272461,7.9033122062683105
1761132258480518000,5.015517822265625,22.76614761352539,11.359575271606445,5.820183753967285
1761132258490517800,5.025517822265625,22.49429702758789,9.932414054870605,3.8600025177001953
1761132258500518000,5.035517822265625,20.670808792114258,8.683180809020996,1.9893704652786255
1761132258510518800,5.045518798828125,17.842918395996094,7.297258377075195,1.1338335275650024
1761132258520518700,5.0555185546875,15.77509880065918,5.676567077636719,1.0129643678665161
1761132258530518800,5.065518798828125,13.003768920898438,3.486757516860962,1.312377691268921
1761132258540518700,5.0755185546875,9.111478805541992,1.3909738063812256,2.080395221710205
1761132258550518800,5.085518798828125,3.8979005813598633,-0.8412575721740723,3.0230045318603516
1761132258560518700,5.0955185546875,-0.7949657440185547,-2.6517724990844727,3.591765880584717
1761132258570518800,5.105518798828125,-5.407468795776367,-4.174686431884766,3.605008125305176
1761132258580518700,5.1155185546875,-9.612010955810547,-5.349390029907227,2.962310791015625
1761132258590518800,5.125518798828125,-13.395427703857422,-6.266348361968994,2.3132591247558594
1761132258600518700,5.1355185546875,-16.702085494995117,-7.162107467651367,2.0818066596984863
1761132258610518000,5.14551806640625,-16.569446563720703,-7.444319248199463,2.1172142028808594
1761132258620518000,5.155517822265625,-22.706098556518555,-7.991028785705566,1.9907889366149902
1761132258630518000,5.16551806640625,-24.495826721191406,-7.971254825592041,1.7355189323425293
1761132258640518000,5.175517822265625,-25.254776000976562,-8.342315673828125,1.32454252243042
1761132258650518000,5.18551806640625,-24.73809242248535,-8.644735336303711,0.7421323657035828
1761132258660518000,5.195517822265625,-22.731525421142578,-8.981842041015625,0.14384806156158447
1761132258670517800,5.205517822265625,-20.012317657470703,-9.666080474853516,-0.3901593089103699
1761132258680518000,5.215517822265625,-16.965593338012695,-10.31475830078125,-1.315927505493164
1761132258690517800,5.225517822265625,-14.068613052368164,-10.809219360351562,-2.910118579864502
1761132258700518000,5.235517822265625,-11.375596046447754,-10.994234085083008,-4.7033562660217285
1761132258710518800,5.245518798828125,-9.015616416931152,-10.908304214477539,-5.728509902954102
1761132258720518700,5.2555185546875,-7.054157257080078,-10.458218574523926,-5.728219985961914
1761132258730518800,5.265518798828125,-6.197808742523193,-9.989971160888672,-5.048379898071289
1761132258740519000,5.275518798828125,-6.490467071533203,-9.29197883605957,-4.064496040344238
1761132258750518800,5.285518798828125,-7.42703914642334,-8.511453628540039,-3.1587259769439697
1761132258760519000,5.295518798828125,-8.3677339553833,-7.876587867736816,-2.486346960067749
1761132258770518800,5.305518798828125,-9.096269607543945,-7.240837097167969,-2.0108273029327393
1761132258780519000,5.315518798828125,-9.498300552368164,-6.687023162841797,-1.7897534370422363
1761132258790518800,5.325518798828125,-9.061139106750488,-6.172702789306641,-1.434922456741333
1761132258800519000,5.335518798828125,-8.250547409057617,-5.673824310302734,-0.8707093000411987
1761132258810518000,5.34551806640625,-7.492611885070801,-5.168097496032715,-0.5481168627738953
1761132258820518000,5.355517822265625,-6.979212760925293,-4.450100421905518,-0.4554532766342163
1761132258830518000,5.36551806640625,-6.584338665008545,-3.511828899383545,-0.3508117198944092
1761132258840518000,5.375517822265625,-5.711426258087158,-2.401559591293335,-0.5481470823287964
1761132258850518000,5.38551806640625,-3.7212581634521484,-1.4872530698776245,-0.9883806705474854
1761132258860518000,5.395517822265625,-0.3990631103515625,-0.6060073375701904,-0.9684446454048157
1761132258870518000,5.40551806640625,3.5412721633911133,0.16630816459655762,-0.5980788469314575
1761132258880518000,5.415517822265625,7.478693008422852,0.9855442047119141,0.19021916389465332
1761132258890518000,5.42551806640625,11.300139427185059,2.023136854171753,1.820149540901184
1761132258900518000,5.435517822265625,13.939513206481934,3.408613443374634,3.540755271911621
1761132258910518800,5.445518798828125,13.513375282287598,5.297794342041016,5.020024299621582
1761132258920518700,5.4555185546875,11.730706214904785,7.768002510070801,5.610525131225586
1761132258930518800,5.465518798828125,9.735754013061523,10.009632110595703,5.516251087188721
1761132258940518700,5.4755185546875,10.021322250366211,11.800322532653809,6.443728923797607
1761132258950518800,5.485518798828125,13.4559326171875,11.702775955200195,7.027649879455566
1761132258960518700,5.4955185546875,17.497493743896484,10.737564086914062,7.855244159698486
1761132258970518800,5.505518798828125,23.15658187866211,9.306724548339844,9.879423141479492
1761132258980518700,5.5155185546875,33.040077209472656,8.331212043762207,13.024847030639648
1761132258990518800,5.525518798828125,41.318031311035156,6.519986152648926,15.009653091430664
1761132259000518700,5.5355185546875,43.13846206665039,5.666132926940918,14.971933364868164
1761132259010517800,5.545517822265625,38.177268981933594,6.8702826499938965,12.63824462890625
1761132259020518000,5.555517822265625,27.669544219970703,8.18608570098877,10.469654083251953
1761132259030517800,5.565517822265625,18.497047424316406,8.80999755859375,8.676886558532715
1761132259040518000,5.575517822265625,11.698582649230957,8.2548189163208,6.993049144744873
1761132259050517800,5.585517822265625,8.3143310546875,6.626517295837402,5.238882541656494
1761132259060518000,5.595517822265625,6.905194282531738,4.212969779968262,3.4671692848205566
1761132259070517800,5.605517822265625,5.253635406494141,2.228961944580078,1.8094921112060547
1761132259080518000,5.615517822265625,2.967169761657715,0.9088249206542969,0.81236732006073
1761132259090517800,5.625517822265625,-0.13559627532958984,-0.2533688545227051,0.6056619882583618
1761132259100518000,5.635517822265625,-3.885976791381836,-1.2453112602233887,0.5862103700637817
1761132259110518800,5.645518798828125,-7.837532997131348,-1.940782070159912,0.26537036895751953
1761132259120518700,5.6555185546875,-11.334196090698242,-2.427818536758423,0.08226263523101807
1761132259130518800,5.665518798828125,-14.2608060836792,-2.6333770751953125,0.29678308963775635
1761132259140518700,5.6755185546875,-15.953805923461914,-2.795137405395508,0.7176979780197144
1761132259150518800,5.685518798828125,-16.925922393798828,-3.0084421634674072,0.7297375202178955
1761132259160518700,5.6955185546875,-17.14777374267578,-3.339420795440674,0.8346558809280396
1761132259170518800,5.705518798828125,-17.320331573486328,-3.6430225372314453,0.9803625345230103
1761132259180518700,5.7155185546875,-17.174427032470703,-3.817237377166748,0.3039400577545166
1761132259190518800,5.725518798828125,-16.128875732421875,-4.779098987579346,0.4094313383102417
1761132259200518700,5.7355185546875,-14.466176986694336,-5.257567405700684,0.4167987108230591
1761132259210517800,5.745517822265625,-12.998459815979004,-5.452307224273682,0.10819494724273682
1761132259220518000,5.755517822265625,-11.849811553955078,-5.7375078201293945,-0.02626323699951172
1761132259230517800,5.765517822265625,-10.753701210021973,-6.017423152923584,-0.40829724073410034
1761132259240518000,5.775517822265625,-9.856684684753418,-6.615675926208496,-0.8170198798179626
1761132259250517800,5.785517822265625,-9.268035888671875,-7.279352188110352,-1.25203275680542
1761132259260518000,5.795517822265625,-9.01769733428955,-7.932785987854004,-2.057333469390869
1761132259270517800,5.805517822265625,-9.17283821105957,-8.615504264831543,-3.229625940322876
1761132259280518000,5.815517822265625,-9.488436698913574,-9.144203186035156,-4.442367076873779
1761132259290517800,5.825517822265625,-9.570210456848145,-9.387928009033203,-4.965386867523193
1761132259300518000,5.835517822265625,-8.983217239379883,-9.461631774902344,-4.811635971069336
1761132259310518800,5.845518798828125,-8.47236156463623,-9.588356018066406,-3.8760135173797607
1761132259320518700,5.8555185546875,-8.471449851989746,-9.829345703125,-2.4736340045928955
1761132259330518800,5.865518798828125,-9.333813667297363,-9.990079879760742,-1.5070909261703491
1761132259340518700,5.8755185546875,-10.640813827514648,-10.126121520996094,-1.4890050888061523
1761132259350518800,5.885518798828125,-11.681575775146484,-10.407827377319336,-2.0138118267059326
1761132259360518700,5.8955185546875,-11.663110733032227,-10.440105438232422,-1.976118564605713
1761132259370518800,5.905518798828125,-12.030781745910645,-10.891019821166992,-3.6223344802856445
1761132259380518700,5.9155185546875,-12.0332612991333,-10.892450332641602,-3.6649389266967773
1761132259390518800,5.925518798828125,-10.017208099365234,-10.172428131103516,-5.878390312194824
1761132259400518700,5.9355185546875,-8.338581085205078,-9.155389785766602,-5.353068828582764
1761132259410517800,5.945517822265625,-5.507511615753174,-7.869793891906738,-3.7653048038482666
1761132259420518000,5.955517822265625,-0.8042440414428711,-6.250073432922363,-0.9338594675064087
1761132259430517800,5.965517822265625,3.470475196838379,-4.894309997558594,1.7316429615020752
1761132259440518000,5.975517822265625,7.521553993225098,-3.2051005363464355,4.035168170928955
1761132259450517800,5.985517822265625,8.956343650817871,-0.500248908996582,5.351351737976074
1761132259460518000,5.995517822265625,6.83149528503418,3.5906333923339844,4.387976169586182
1761132259470517800,6.005517822265625,4.976522445678711,8.541739463806152,3.272300958633423
1761132259480518000,6.015517822265625,7.239336013793945,11.23258113861084,3.880967617034912
1761132259490517800,6.025517822265625,13.086153984069824,12.664684295654297,4.4584455490112305
1761132259500518000,6.035517822265625,20.650672912597656,12.192776679992676,5.046130657196045
1761132259510518500,6.0455185546875,29.095794677734375,10.504128456115723,4.933596134185791
1761132259520518700,6.0555185546875,37.27839660644531,7.599148273468018,4.97953987121582
1761132259530518800,6.065518798828125,45.75673294067383,4.641834735870361,3.184953451156616
1761132259540518700,6.0755185546875,48.21630096435547,4.3495893478393555,0.1546362042427063
1761132259550518800,6.085518798828125,45.40981674194336,5.416154861450195,-0.5585801601409912
1761132259560518700,6.0955185546875,37.44329071044922,6.39237117767334,0.9378412961959839
1761132259570518800,6.105518798828125,26.82961654663086,7.279994487762451,2.5372109413146973
1761132259580518700,6.1155185546875,15.972895622253418,7.577758312225342,3.430666923522949
1761132259590518800,6.125518798828125,5.656063079833984,7.536509990692139,2.835468292236328
1761132259600518700,6.1355185546875,0.11917591094970703,6.840322494506836,2.1727776527404785
1761132259610518000,6.14551806640625,-1.4929685592651367,5.266687393188477,1.807701826095581
1761132259620518000,6.155517822265625,-2.467601776123047,3.50820255279541,2.222813129425049
1761132259630518000,6.16551806640625,-3.8134403228759766,2.279402494430542,2.632172107696533
1761132259640518000,6.175517822265625,-5.435160160064697,1.3036653995513916,2.4340739250183105
1761132259650517800,6.185517822265625,-8.164155006408691,0.16960835456848145,2.559535503387451
1761132259660518000,6.195517822265625,-11.135046005249023,-0.679254949092865,1.8906371593475342
1761132259670517800,6.205517822265625,-14.011763572692871,-1.2870384454727173,0.7989289164543152
1761132259680518000,6.215517822265625,-16.15397834777832,-1.7456481456756592,0.007817506790161133
1761132259690517800,6.225517822265625,-17.66119384765625,-2.153411626815796,-0.38918137550354004
1761132259700518000,6.235517822265625,-18.660140991210938,-2.4903838634490967,-0.39967334270477295
1761132259710518800,6.245518798828125,-18.920490264892578,-3.01643967628479,1.230918526649475
1761132259720518700,6.2555185546875,-18.537700653076172,-3.093655824661255,3.5486505031585693
1761132259730518800,6.265518798828125,-17.956748962402344,-2.870549201965332,4.990274906158447
1761132259740518700,6.2755185546875,-17.257781982421875,-3.0279040336608887,5.312042713165283
1761132259750518800,6.285518798828125,-16.432161331176758,-3.2580885887145996,4.610584259033203
1761132259760518700,6.2955185546875,-15.34323501586914,-3.5988121032714844,3.769468307495117
1761132259770518800,6.305518798828125,-14.066713333129883,-3.9464969635009766,3.0438714027404785
1761132259780518700,6.3155185546875,-12.198917388916016,-4.084396839141846,2.5521106719970703
1761132259790518800,6.325518798828125,-10.191157341003418,-4.081778526306152,2.1429290771484375
1761132259800518700,6.3355185546875,-8.593119621276855,-4.047177314758301,2.0809943675994873
1761132259810517800,6.345517822265625,-7.844000816345215,-4.02467679977417,2.2652485370635986
1761132259820518000,6.355517822265625,-7.864659309387207,-3.9508652687072754,2.227213144302368
1761132259830517800,6.365517822265625,-8.739136695861816,-3.3995327949523926,3.3606247901916504
1761132259840518000,6.375517822265625,-9.410680770874023,-3.1289219856262207,3.8301079273223877
1761132259850517800,6.385517822265625,-9.764748573303223,-2.758476734161377,3.9278147220611572
1761132259860518000,6.395517822265625,-9.65168285369873,-2.558748483657837,3.8713550567626953
1761132259870517800,6.405517822265625,-9.161893844604492,-2.361582040786743,3.2148895263671875
1761132259880518000,6.415517822265625,-8.454615592956543,-2.0812692642211914,1.9488499164581299
1761132259890517800,6.425517822265625,-7.351751327514648,-1.714017391204834,1.2675085067749023
1761132259900518000,6.435517822265625,-5.808901309967041,-1.2373462915420532,1.5540544986724854
1761132259910518500,6.4455185546875,-3.464773178100586,-0.6983429789543152,2.3704347610473633
1761132259920518700,6.4555185546875,0.13304710388183594,0.4585263729095459,2.8008527755737305
1761132259930518500,6.4655185546875,3.869757652282715,1.6885466575622559,2.5877532958984375
1761132259940518700,6.4755185546875,6.802509307861328,2.922122001647949,0.9827759265899658
1761132259950518500,6.4855185546875,7.492016792297363,4.970218658447266,-1.565035343170166
1761132259960518700,6.4955185546875,7.46452522277832,7.758115768432617,-3.9512205123901367
1761132259970518500,6.5055185546875,8.856302261352539,10.301168441772461,-4.129449844360352
1761132259980518700,6.5155185546875,14.47849178314209,11.916128158569336,-2.6015377044677734
1761132259990518500,6.5255185546875,28.247879028320312,10.390003204345703,-1.8691892623901367
1761132260000518700,6.5355185546875,40.815643310546875,6.784547328948975,-1.2935055494308472
1761132260010517800,6.545517822265625,48.79209518432617,3.8938965797424316,0.12834244966506958
1761132260020518000,6.555517822265625,48.91740798950195,2.6623387336730957,1.7230300903320312
1761132260030517800,6.565517822265625,42.17827606201172,2.3470633029937744,2.9046342372894287
1761132260040518000,6.575517822265625,30.775619506835938,2.6972920894622803,3.8007586002349854
1761132260050517800,6.585517822265625,17.687877655029297,3.491142749786377,4.494354724884033
1761132260060518000,6.595517822265625,17.753028869628906,3.13515305519104,4.458374977111816
1761132260070517800,6.605517822265625,2.362704277038574,5.228419303894043,3.143798351287842
1761132260080518000,6.615517822265625,-1.2052192687988281,4.6900482177734375,1.8993521928787231
1761132260090517800,6.625517822265625,-3.5468297004699707,3.5127434730529785,0.14388862252235413
1761132260100518000,6.635517822265625,-4.7534003257751465,1.8764705657958984,-1.2894479036331177
1761132260110518800,6.645518798828125,-5.901061058044434,-0.2787494659423828,-1.8082242012023926
1761132260120519000,6.655518798828125,-6.799664497375488,-1.7026124000549316,-0.4288167953491211
1761132260130518800,6.665518798828125,-6.973367691040039,-2.424436330795288,1.54872727394104
1761132260140519000,6.675518798828125,-6.471310615539551,-2.496366500854492,2.27422833442688
1761132260150518800,6.685518798828125,-5.641821384429932,-2.167926549911499,1.808260440826416
1761132260160518700,6.6955185546875,-4.610506534576416,-1.9126217365264893,0.9417941570281982
1761132260170518800,6.705518798828125,-4.627638339996338,-1.7429630756378174,1.0985716581344604
1761132260180519000,6.715518798828125,-3.9406652450561523,-1.2355177402496338,0.3974013924598694
1761132260190518800,6.725518798828125,-5.028925895690918,-0.9979097843170166,0.8562495708465576
1761132260200519000,6.735518798828125,-7.721879482269287,-1.2441271543502808,1.5910758972167969
1761132260210518000,6.74551806640625,-7.71348237991333,-1.347517967224121,1.5190205574035645
1761132260220518000,6.755517822265625,-11.046269416809082,-1.5075352191925049,1.8240141868591309
1761132260230518000,6.76551806640625,-14.559328079223633,-2.317032814025879,2.8997411727905273
1761132260240518000,6.775517822265625,-14.859874725341797,-2.792888641357422,2.786280870437622
1761132260250518000,6.78551806640625,-14.436037063598633,-3.3528552055358887,1.6664543151855469
1761132260260518000,6.795517822265625,-13.640758514404297,-3.88554310798645,0.2710661292076111
1761132260270518000,6.80551806640625,-12.69745922088623,-4.136784553527832,-0.5976945161819458
1761132260280518000,6.815517822265625,-12.057291030883789,-4.2090253829956055,-0.6872824430465698
1761132260290518000,6.82551806640625,-11.991376876831055,-4.061026096343994,-0.1343095898628235
1761132260300518000,6.835517822265625,-12.009227752685547,-3.8315436840057373,0.5793269872665405
1761132260310518500,6.8455185546875,-11.745935440063477,-3.6116225719451904,1.1587998867034912
1761132260320518700,6.8555185546875,-11.317231178283691,-3.5534420013427734,1.3662947416305542
1761132260330518500,6.8655185546875,-10.8615140914917,-3.5593628883361816,1.0759685039520264
1761132260340518700,6.8755185546875,-10.863264083862305,-3.5557498931884766,1.0620297193527222
1761132260350518800,6.885518798828125,-11.369647026062012,-3.4734511375427246,-0.03547018766403198
1761132260360518700,6.8955185546875,-11.532844543457031,-3.220654010772705,-0.8314931392669678
1761132260370518800,6.905518798828125,-11.122337341308594,-3.0480639934539795,-1.0571088790893555
1761132260380518700,6.9155185546875,-10.072566032409668,-2.831760883331299,-0.6113883256912231
1761132260390518800,6.925518798828125,-8.520272254943848,-2.5415737628936768,-0.08000439405441284
1761132260400518700,6.9355185546875,-7.5841169357299805,-2.384190559387207,0.6281717419624329
1761132260410518000,6.94551806640625,-7.813892364501953,-2.2005615234375,1.2485501766204834
1761132260420518000,6.955517822265625,-8.091072082519531,-1.8235387802124023,1.5673609972000122
1761132260430518000,6.96551806640625,-7.50813627243042,-1.643858790397644,1.8037675619125366
1761132260440518000,6.975517822265625,-5.370627403259277,-1.7618277072906494,1.7322402000427246
1761132260450518000,6.98551806640625,-1.4923715591430664,-1.8726330995559692,0.658258318901062
1761132260460518000,6.995517822265625,2.179020881652832,-1.9737292528152466,-1.0048414468765259
1761132260470517800,7.005517822265625,3.5699243545532227,-1.5879631042480469,-2.067915916442871
1761132260480518000,7.015517822265625,4.17635440826416,-0.13100159168243408,-2.961913585662842
1761132260490517800,7.025517822265625,3.6621932983398438,1.5910305976867676,-2.0285637378692627
1761132260500518000,7.035517822265625,3.2818260192871094,3.7049472332000732,-0.7836755514144897
1761132260510518800,7.045518798828125,5.009943962097168,6.025790691375732,0.9383249282836914
1761132260520518700,7.0555185546875,10.539801597595215,7.249892234802246,2.709071159362793
1761132260530518800,7.065518798828125,17.9197998046875,7.001989364624023,2.8720016479492188
1761132260540518700,7.0755185546875,17.85845375061035,7.190981388092041,2.5903475284576416
1761132260550518800,7.085518798828125,34.1669921875,3.219379425048828,4.121914386749268
1761132260560518700,7.0955185546875,38.648033142089844,0.9276807308197021,6.11405086517334
1761132260570519300,7.105519287109375,38.63749694824219,1.1932734251022339,5.706781387329102
1761132260580519200,7.115519287109375,36.25053787231445,3.1766297817230225,9.442521095275879
1761132260590519300,7.125519287109375,30.142284393310547,4.210844993591309,9.192492485046387
1761132260600519200,7.135519287109375,22.71607208251953,5.353479385375977,7.485250949859619
1761132260610518500,7.1455185546875,15.23587703704834,6.054457664489746,5.716883659362793
1761132260620518400,7.155518310546875,9.30306339263916,6.212375164031982,5.24757719039917
1761132260630518500,7.1655185546875,6.055719375610352,6.123859405517578,5.522917747497559
1761132260640518400,7.175518310546875,8.194340705871582,5.604115962982178,5.692719459533691
1761132260650518500,7.1855185546875,9.64184856414795,4.7636847496032715,5.776039123535156
1761132260660518400,7.195518310546875,7.1595659255981445,4.806224346160889,5.04918909072876
1761132260670518300,7.205518310546875,2.491596221923828,4.820911407470703,4.019979000091553
1761132260680518400,7.215518310546875,-2.1740307807922363,4.598384380340576,2.6104636192321777
1761132260690518300,7.225518310546875,-6.472245693206787,4.226704120635986,1.7810533046722412
1761132260700518400,7.235518310546875,-8.575837135314941,3.866150379180908,1.6035407781600952
1761132260710519000,7.24551904296875,-10.573343276977539,3.2534384727478027,1.7485049962997437
1761132260720519200,7.255519287109375,-11.639409065246582,2.631378412246704,1.8478087186813354
1761132260730519300,7.265519287109375,-11.537993431091309,1.87328040599823,2.072288990020752
1761132260740519200,7.275519287109375,-11.234859466552734,0.7998296022415161,2.109930992126465
1761132260750519300,7.285519287109375,-11.165011405944824,-0.5083411335945129,1.6106401681900024
1761132260760519200,7.295519287109375,-11.567106246948242,-1.4051883220672607,0.8099870681762695
1761132260770519300,7.305519287109375,-12.646036148071289,-2.2927489280700684,0.027047395706176758
1761132260780519200,7.315519287109375,-14.036453247070312,-2.8815488815307617,-0.8531429767608643
1761132260800519200,7.335519287109375,-15.99957275390625,-4.20725679397583,-2.3259358406066895
1761132260810518300,7.345518310546875,-15.240468978881836,-4.731635093688965,-3.7767934799194336
1761132260820518400,7.355518310546875,-13.886079788208008,-5.203926086425781,-4.988692760467529
1761132260830518300,7.365518310546875,-12.585480690002441,-5.680903434753418,-6.1634955406188965
1761132260840518100,7.37551806640625,-11.579191207885742,-5.851836204528809,-7.233973503112793
1761132260850518300,7.385518310546875,-10.634873390197754,-5.769715309143066,-7.869809627532959
1761132260860518400,7.395518310546875,-10.650775909423828,-5.7159929275512695,-7.6573710441589355
1761132260870517800,7.405517822265625,-8.932064056396484,-5.784223556518555,-7.105166435241699
1761132260880518000,7.415517822265625,-8.827576637268066,-5.722797393798828,-5.885977268218994
1761132260890517800,7.425517822265625,-9.386697769165039,-5.680333614349365,-4.721743583679199
1761132260900517600,7.435517578125,-10.461073875427246,-5.5810089111328125,-3.807950019836426
1761132260910518500,7.4455185546875,-12.067553520202637,-5.368317604064941,-3.1428818702697754
1761132260920518700,7.4555185546875,-14.29440975189209,-5.075102806091309,-2.8357186317443848
1761132260930518500,7.4655185546875,-15.388284683227539,-4.908588409423828,-2.9306252002716064
1761132260940518700,7.4755185546875,-15.25046443939209,-4.803501129150391,-3.2783753871917725
1761132260950518800,7.485518798828125,-14.04034423828125,-4.896673202514648,-3.6238157749176025
1761132260960518700,7.4955185546875,-11.836559295654297,-4.99532413482666,-3.7799363136291504
1761132260970518500,7.5055185546875,-8.88428783416748,-5.024478435516357,-3.5230560302734375
1761132260980518700,7.5155185546875,-4.995753765106201,-4.796504974365234,-3.073867082595825
1761132260990518800,7.525518798828125,-0.734161376953125,-4.3408684730529785,-2.3706350326538086
1761132261000518700,7.5355185546875,3.9816055297851562,-3.85661244392395,-1.3014779090881348
1761132261010517800,7.545517822265625,7.587446212768555,-2.6453375816345215,-0.7231676578521729
1761132261020518000,7.555517822265625,9.133808135986328,-0.5470843315124512,-1.2802903652191162
1761132261030517800,7.565517822265625,10.000542640686035,1.682996153831482,-1.3519891500473022
1761132261040518000,7.575517822265625,11.826231956481934,4.038840293884277,-1.0441186428070068
1761132261050517800,7.585517822265625,14.714378356933594,6.180613994598389,0.46445533633232117
1761132261060518000,7.595517822265625,18.937835693359375,8.339471817016602,2.5298147201538086
1761132261070517800,7.605517822265625,23.819541931152344,8.879927635192871,5.047756671905518
1761132261080518000,7.615517822265625,28.367496490478516,8.467235565185547,8.109757423400879
1761132261090517800,7.625517822265625,32.541900634765625,6.9931793212890625,11.595368385314941
1761132261100518000,7.635517822265625,36.75840377807617,4.751133441925049,14.733024597167969
1761132261110518800,7.645518798828125,38.430999755859375,2.8213768005371094,14.258395195007324
1761132261120518700,7.6555185546875,34.33049011230469,3.517422914505005,10.836186408996582
1761132261130518800,7.665518798828125,26.755449295043945,4.791663646697998,7.725930213928223
1761132261140518700,7.6755185546875,19.16604995727539,5.861851692199707,5.263906002044678
1761132261150518800,7.685518798828125,12.712164878845215,6.271087169647217,4.059013366699219
1761132261160518700,7.6955185546875,11.268211364746094,5.7539801597595215,2.7494781017303467
1761132261170518800,7.705518798828125,11.822662353515625,4.025465965270996,1.0948336124420166
1761132261180518700,7.7155185546875,11.685214042663574,2.7154359817504883,0.13570618629455566
1761132261190518800,7.725518798828125,10.365072250366211,2.351273536682129,0.2680398225784302
1761132261200518700,7.7355185546875,6.907364845275879,1.9065818786621094,1.1034642457962036
1761132261210517800,7.745517822265625,1.8395519256591797,1.7095071077346802,1.0771788358688354
1761132261220518000,7.755517822265625,-2.827225685119629,1.443711280822754,1.2866255044937134
1761132261230517800,7.765517822265625,-2.828889846801758,1.2442322969436646,1.3218427896499634
1761132261240518000,7.775517822265625,-10.301654815673828,1.1320184469223022,4.55727481842041
1761132261250517800,7.785517822265625,-12.909995079040527,0.6357462406158447,5.246373653411865
1761132261260518000,7.795517822265625,-15.283830642700195,0.070079505443573,5.70280122756958
1761132261270517800,7.805517822265625,-17.661514282226562,-0.6130690574645996,6.229060649871826
1761132261280518000,7.815517822265625,-19.474388122558594,-1.0222529172897339,6.708714008331299
1761132261290517800,7.825517822265625,-20.873455047607422,-1.2816468477249146,6.860110759735107
1761132261300518000,7.835517822265625,-21.684955596923828,-1.536821961402893,6.429375171661377
1761132261310518500,7.8455185546875,-21.613779067993164,-1.8129329681396484,5.810547828674316
1761132261320518700,7.8555185546875,-20.610427856445312,-2.266716241836548,5.342955589294434
1761132261330518500,7.8655185546875,-19.294231414794922,-2.854142665863037,4.248834609985352
1761132261340518700,7.8755185546875,-17.846202850341797,-3.6895837783813477,2.8845791816711426
1761132261350518800,7.885518798828125,-15.428253173828125,-4.795038223266602,0.8101993799209595
1761132261360518700,7.8955185546875,-12.725552558898926,-5.768453121185303,-1.8685917854309082
1761132261370518500,7.9055185546875,-10.224161148071289,-6.461745262145996,-4.052289009094238
1761132261380518400,7.915518310546875,-7.951870441436768,-6.783775329589844,-5.894817352294922
1761132261390518500,7.9255185546875,-6.836757659912109,-6.639049053192139,-6.645752906799316
1761132261400518400,7.935518310546875,-6.849979400634766,-6.485593318939209,-6.64324951171875
1761132261410517500,7.945517578125,-7.507952690124512,-5.695793151855469,-5.344643592834473
1761132261420517600,7.955517578125,-8.832735061645508,-5.094504356384277,-4.603919506072998
1761132261430517500,7.965517578125,-8.847731590270996,-5.09438419342041,-4.687596321105957
1761132261440517600,7.975517578125,-11.179891586303711,-4.1514177322387695,-2.87453293800354
1761132261450517500,7.985517578125,-11.665143966674805,-3.8953211307525635,-1.5699825286865234
1761132261460517600,7.995517578125,-11.985722541809082,-3.6836087703704834,-0.46622371673583984
1761132261470517500,8.005517578125,-12.079919815063477,-3.367280960083008,0.20246493816375732
1761132261480517600,8.015517578125,-11.742856979370117,-3.0355732440948486,0.5306419730186462
1761132261490517500,8.025517578125,-10.588558197021484,-2.792241096496582,0.37259870767593384
1761132261500517600,8.035517578125,-7.698372840881348,-2.613964080810547,0.21889358758926392
1761132261510518500,8.0455185546875,-4.222164630889893,-2.171760320663452,-0.5590706467628479
1761132261520518400,8.055518310546875,-0.8422021865844727,-1.8866170644760132,-1.314054012298584
1761132261530518500,8.0655185546875,2.129537582397461,-1.6281532049179077,-1.559046745300293
1761132261540518400,8.075518310546874,4.327129364013672,-0.833082377910614,-1.480076551437378
1761132261550518500,8.0855185546875,5.37291145324707,0.2904932200908661,-0.7896900773048401
1761132261560518400,8.095518310546876,5.932013511657715,2.351496696472168,0.9519776701927185
1761132261570518500,8.1055185546875,6.434557914733887,5.088922023773193,2.6237680912017822
1761132261580518400,8.115518310546875,6.820202827453613,8.102375984191895,3.4544239044189453
1761132261590518500,8.1255185546875,6.642399787902832,10.585464477539062,4.020685195922852
1761132261600518400,8.135518310546875,5.864628791809082,11.773998260498047,6.219210624694824
1761132261610517800,8.145517822265624,7.783688545227051,11.818339347839355,8.268265724182129
1761132261620517600,8.155517578125,14.410168647766113,9.302401542663574,8.803298950195312
1761132261630517800,8.165517822265626,27.297378540039062,5.25566291809082,5.387146472930908
1761132261640517600,8.175517578125,43.354469299316406,0.6518496870994568,1.315934419631958
1761132261650517800,8.185517822265625,53.45228576660156,-2.2986350059509277,2.5798425674438477
1761132261660517600,8.195517578125,55.369197845458984,-1.0317142009735107,8.31443977355957
1761132261670517800,8.205517822265625,47.27754592895508,2.3546485900878906,14.22728157043457
1761132261680518000,8.215517822265625,34.0520133972168,4.272705078125,16.328195571899414
1761132261690517800,8.225517822265624,20.38234519958496,5.611936092376709,15.309688568115234
1761132261700518000,8.235517822265624,8.314095497131348,6.424369812011719,13.776716232299805
1761132261710518800,8.245518798828124,-0.21500396728515625,7.3123555183410645,11.178228378295898
1761132261720518700,8.2555185546875,-3.8453478813171387,6.766919136047363,8.166986465454102
1761132261730518800,8.265518798828126,-2.4813284873962402,4.616664409637451,4.432252407073975
1761132261740518700,8.2755185546875,0.6605005264282227,2.064661979675293,1.1315969228744507
1761132261750518800,8.285518798828125,2.712636947631836,0.25245267152786255,-2.28336238861084
1761132261760518700,8.2955185546875,2.738168716430664,-1.091903805732727,-4.718220233917236
1761132261770518800,8.305518798828125,1.0084056854248047,-2.15148663520813,-5.932873249053955
1761132261780518700,8.3155185546875,-2.013012409210205,-3.0981528759002686,-6.610054016113281
1761132261790518800,8.325518798828124,-5.975080490112305,-3.941622257232666,-6.578481197357178
1761132261800518700,8.3355185546875,-9.554786682128906,-4.678841590881348,-5.570411682128906
1761132261810518000,8.34551806640625,-12.8812894821167,-5.163803577423096,-4.7610578536987305
1761132261820518000,8.355517822265625,-15.890573501586914,-5.477089881896973,-3.9878621101379395
1761132261830518000,8.36551806640625,-18.402313232421875,-5.790158748626709,-3.141681671142578
1761132261840518000,8.375517822265625,-20.374797821044922,-5.843342304229736,-2.1971004009246826
1761132261850518000,8.38551806640625,-21.919921875,-5.961699485778809,-1.1146817207336426
1761132261860518000,8.395517822265624,-22.864044189453125,-5.85496187210083,-0.7345748543739319
1761132261870518000,8.40551806640625,-23.0025577545166,-5.73563289642334,-0.814178466796875
1761132261880518000,8.415517822265626,-21.97606658935547,-5.786661624908447,-0.7537341713905334
1761132261890518000,8.42551806640625,-20.003244400024414,-5.9706573486328125,-0.6806187629699707
1761132261900518000,8.435517822265625,-17.006099700927734,-6.281268119812012,-1.1170072555541992
1761132261910518800,8.445518798828125,-14.189323425292969,-6.434211730957031,-2.3318192958831787
1761132261920518700,8.4555185546875,-11.699348449707031,-6.659963607788086,-3.4596245288848877
1761132261930518800,8.465518798828125,-9.7028169631958,-6.729954242706299,-4.180018424987793
1761132261940518700,8.4755185546875,-9.754777908325195,-6.555357456207275,-4.110657215118408
1761132261950518800,8.485518798828124,-8.235725402832031,-6.231184959411621,-4.102863788604736
1761132261960518700,8.4955185546875,-7.2431182861328125,-5.130184650421143,-1.9392521381378174
1761132261970518800,8.505518798828126,-8.24404239654541,-4.493882656097412,-1.0159201622009277
1761132261980518700,8.5155185546875,-9.581147193908691,-4.001385688781738,-0.618004560470581
1761132261990518800,8.525518798828125,-10.164280891418457,-3.9027199745178223,-1.3391122817993164
1761132262000518700,8.5355185546875,-10.174872398376465,-3.8426342010498047,-1.3997703790664673
1761132262010518000,8.54551806640625,-9.550543785095215,-4.335262775421143,-4.2908101081848145
1761132262020518000,8.555517822265625,-8.117713928222656,-4.1680145263671875,-4.605264663696289
1761132262030517800,8.565517822265624,-6.6441121101379395,-3.9921715259552,-3.831230640411377
1761132262040518000,8.575517822265626,-5.4307861328125,-3.524019241333008,-2.3481240272521973
1761132262050518000,8.58551806640625,-4.3998236656188965,-2.8291144371032715,-0.8199384212493896
1761132262060518000,8.595517822265625,-3.486908435821533,-2.1051454544067383,0.19187641143798828
1761132262070517800,8.605517822265625,-2.0889525413513184,-1.5140130519866943,0.49565786123275757
1761132262080518000,8.615517822265625,1.0989274978637695,-1.101907730102539,1.0126872062683105
1761132262090517800,8.625517822265625,5.041399955749512,-0.5820711851119995,2.593050956726074
1761132262100518000,8.635517822265625,8.27484130859375,-0.04563581943511963,5.452274322509766
1761132262110518800,8.645518798828125,10.052128791809082,1.3621150255203247,7.184348106384277
1761132262120518700,8.6555185546875,10.370564460754395,3.2300589084625244,6.60062313079834
1761132262130518800,8.665518798828124,10.33317756652832,5.241416931152344,5.43859338760376
1761132262140518700,8.6755185546875,13.816283226013184,6.206181526184082,4.248322486877441
1761132262150518800,8.685518798828125,20.151790618896484,5.989218235015869,3.800410747528076
1761132262160518700,8.6955185546875,26.01036834716797,4.887679100036621,5.676619529724121
1761132262170518800,8.705518798828125,32.744178771972656,3.920121192932129,9.336029052734375
1761132262180518700,8.7155185546875,40.68574142456055,3.063495397567749,14.731660842895508
1761132262190518800,8.725518798828125,43.47999954223633,1.51821768283844,19.52938461303711
1761132262200518700,8.7355185546875,38.72673034667969,2.3477089405059814,17.880979537963867
1761132262210517800,8.745517822265626,29.97249984741211,4.157433986663818,13.229411125183105
1761132262220518000,8.755517822265626,22.200969696044922,5.553407192230225,9.111372947692871
1761132262230517800,8.765517822265625,17.074085235595703,6.611093521118164,6.920372009277344
1761132262240518000,8.775517822265625,14.31272029876709,6.664774417877197,6.732579708099365
1761132262250517800,8.785517822265625,11.751311302185059,6.107428073883057,7.381269931793213
1761132262260518000,8.795517822265625,8.98347282409668,5.140913486480713,7.697001934051514
1761132262270517800,8.805517822265625,5.085666656494141,3.800020694732666,6.555084705352783
1761132262280518000,8.815517822265624,0.8123455047607422,2.174079179763794,4.657270431518555
1761132262290517800,8.825517822265626,-2.513917922973633,0.5121001601219177,2.3395166397094727
1761132262300518000,8.835517822265626,-5.1372246742248535,-0.8238722681999207,-0.11219668388366699
1761132262310518500,8.8455185546875,-7.756138324737549,-1.8200786113739014,-2.174370288848877
1761132262320518700,8.8555185546875,-9.920762062072754,-2.171351194381714,-3.43320369720459
1761132262330518500,8.8655185546875,-12.035049438476562,-2.3454818725585938,-3.975048542022705
1761132262340518700,8.8755185546875,-13.833904266357422,-2.545713424682617,-3.6369192600250244
1761132262350518500,8.8855185546875,-15.088175773620605,-2.760894298553467,-2.843806743621826
1761132262360518700,8.8955185546875,-15.737114906311035,-3.0328876972198486,-1.9855737686157227
1761132262370518800,8.905518798828124,-15.843856811523438,-3.5574240684509277,-1.0603461265563965
1761132262380518700,8.9155185546875,-15.949857711791992,-4.138023376464844,-0.41432663798332214
1761132262390518800,8.925518798828126,-16.039268493652344,-4.5376410484313965,-0.2793959975242615
1761132262400518700,8.9355185546875,-15.984490394592285,-4.743818283081055,-0.5977109670639038
1761132262410517800,8.945517822265625,-15.383785247802734,-4.753363609313965,-1.2750658988952637
1761132262420517600,8.955517578125,-14.646233558654785,-4.995649337768555,-1.4712188243865967
1761132262430517800,8.965517822265625,-13.7757568359375,-5.096976280212402,-1.5659435987472534
1761132262440517600,8.975517578125,-12.636299133300781,-5.187008857727051,-1.673030138015747
1761132262450517800,8.985517822265624,-11.70163345336914,-5.313043594360352,-1.551577091217041
1761132262460517600,8.995517578125,-11.179722785949707,-5.498063087463379,-1.2434656620025635
1761132262470517800,9.005517822265626,-10.971063613891602,-5.6250691413879395,-1.0475382804870605
1761132262480517600,9.015517578125,-11.221281051635742,-5.507776260375977,-1.0867359638214111
1761132262490517800,9.025517822265625,-11.700812339782715,-5.244503498077393,-1.314927577972412
1761132262500517600,9.035517578125,-12.204936981201172,-5.004361629486084,-1.4958897829055786
1761132262510518500,9.0455185546875,-12.28056526184082,-4.580356121063232,-1.7130399942398071
1761132262520518700,9.0555185546875,-11.962531089782715,-4.3483195304870605,-1.8245909214019775
1761132262530518500,9.0655185546875,-11.337179183959961,-4.220332145690918,-1.81734037399292
1761132262540518700,9.0755185546875,-10.343942642211914,-3.9653806686401367,-1.5623630285263062
1761132262550518500,9.0855185546875,-9.333828926086426,-3.6337101459503174,-1.2300641536712646
1761132262560518700,9.0955185546875,-8.396564483642578,-3.1692252159118652,-0.7912344336509705
1761132262570518500,9.1055185546875,-7.3944807052612305,-2.8488409519195557,-0.09453611075878143
1761132262580518700,9.1155185546875,-6.046817779541016,-2.5696799755096436,0.8210742473602295
1761132262590518500,9.1255185546875,-3.8577070236206055,-2.2146925926208496,1.6385339498519897
1761132262600518700,9.1355185546875,0.4795112609863281,-1.2765352725982666,2.0355918407440186
1761132262610517800,9.145517822265624,4.584240913391113,-0.5527936220169067,2.1650567054748535
1761132262620518000,9.155517822265624,7.445948600769043,0.14969754219055176,1.5090782642364502
1761132262630517800,9.165517822265626,8.4306058883667,2.1844851970672607,-0.6717658638954163
1761132262640518000,9.175517822265626,7.993159294128418,5.078995227813721,-2.616635322570801
1761132262650517800,9.185517822265625,7.008642196655273,8.45645809173584,-2.842825174331665
1761132262660518000,9.195517822265625,7.066332817077637,8.320385932922363,-2.6246185302734375
1761132262670517800,9.205517822265625,8.585098266601562,11.306764602661133,-0.2609090805053711
1761132262680518000,9.215517822265625,12.653575897216797,10.923937797546387,0.6887040138244629
1761132262690517800,9.225517822265624,18.41803741455078,9.151368141174316,1.7334613800048828
1761132262700518000,9.235517822265624,23.868209838867188,7.027896881103516,3.1847171783447266
1761132262710518800,9.245518798828124,27.101428985595703,4.7780938148498535,4.4749040603637695
1761132262720518700,9.2555185546875,28.139921188354492,3.602104902267456,4.403925895690918
1761132262730518800,9.265518798828126,27.12114143371582,2.7300467491149902,2.8284754753112793
1761132262740518700,9.2755185546875,22.715885162353516,2.1782100200653076,0.6477932929992676
1761132262750518800,9.285518798828125,16.473743438720703,2.6196913719177246,-0.799396812915802
1761132262760518700,9.2955185546875,9.745514869689941,3.0540151596069336,-0.669978141784668
1761132262770518800,9.305518798828125,3.515377998352051,3.2310426235198975,0.14370501041412354
1761132262780518700,9.3155185546875,1.0848016738891602,2.7098560333251953,0.776202917098999
1761132262790518800,9.325518798828124,1.0875492095947266,1.8840630054473877,0.8279082775115967
1761132262800518700,9.3355185546875,0.9219322204589844,1.3360230922698975,0.6873990297317505
1761132262810517800,9.345517822265625,-1.2074556350708008,0.5545507669448853,0.21722400188446045
1761132262820518000,9.355517822265625,-2.8849878311157227,0.7127678394317627,0.6442500948905945
1761132262830517800,9.365517822265625,-4.404781341552734,1.3544245958328247,0.7187153100967407
1761132262840518000,9.375517822265625,-5.485476493835449,1.7720332145690918,0.8432092070579529
1761132262850517800,9.385517822265625,-6.368839263916016,1.804018259048462,0.7584089636802673
1761132262860518000,9.395517822265624,-6.894314765930176,1.174107551574707,1.4779332876205444
1761132262870517800,9.405517822265624,-6.468684196472168,1.3303195238113403,1.7281264066696167
1761132262880518000,9.415517822265626,-6.489727020263672,1.2507121562957764,2.6518282890319824
1761132262890517800,9.425517822265626,-6.999565124511719,1.623996615409851,2.439913034439087
1761132262900518000,9.435517822265625,-7.489292144775391,2.609243392944336,1.3193961381912231
1761132262910518500,9.4455185546875,-7.428950309753418,3.151785373687744,0.9053393602371216
1761132262920518700,9.4555185546875,-6.844783782958984,3.053041458129883,1.744234561920166
1761132262930518800,9.465518798828125,-6.84128475189209,2.991201162338257,1.7000372409820557
1761132262940518700,9.4755185546875,-6.273293495178223,0.8656439781188965,1.2665842771530151
1761132262950518800,9.485518798828124,-6.326960563659668,0.07940959930419922,0.4612693190574646
1761132262960518700,9.4955185546875,-6.446839332580566,-0.25212061405181885,-0.17071235179901123
1761132262970518800,9.505518798828126,-6.406330108642578,-0.4439568519592285,-0.09041666984558105
1761132262980518700,9.5155185546875,-6.430315017700195,-0.8684515953063965,-0.22136425971984863
1761132262990518800,9.525518798828125,-7.249540328979492,-2.0223395824432373,0.9994975328445435
1761132263000518700,9.5355185546875,-8.021322250366211,-2.6676559448242188,1.4579964876174927
1761132263010517800,9.545517822265625,-8.445549011230469,-2.7868053913116455,1.2978744506835938
1761132263020518000,9.555517822265625,-8.915902137756348,-2.577793598175049,1.5486040115356445
1761132263030517800,9.565517822265624,-9.000085830688477,-2.62827467918396,1.0088212490081787
1761132263040518000,9.575517822265626,-9.379372596740723,-3.030212163925171,0.39145851135253906
1761132263050517800,9.585517822265626,-9.734349250793457,-2.9673514366149902,0.38227981328964233
1761132263060518000,9.595517822265625,-9.977168083190918,-2.8129799365997314,0.8233518600463867
1761132263070517800,9.605517822265625,-8.993562698364258,-2.4325194358825684,1.6229605674743652
1761132263080518000,9.615517822265625,-7.179131507873535,-2.1313364505767822,2.419188976287842
1761132263090517800,9.625517822265625,-5.02244758605957,-2.195340394973755,3.043736219406128
1761132263100518000,9.635517822265625,-2.7218785285949707,-2.338876962661743,2.9085476398468018
1761132263110518800,9.645518798828125,-0.9123287200927734,-1.8049476146697998,1.6897718906402588
1761132263120518700,9.6555185546875,1.883087158203125,-0.12533235549926758,-0.4597005844116211
1761132263130518800,9.665518798828124,4.136470794677734,1.3178510665893555,-2.133758783340454
1761132263140518700,9.6755185546875,5.926059722900391,2.6325249671936035,-2.37501859664917
1761132263150518800,9.685518798828125,7.207637786865234,3.4366812705993652,-0.9576951265335083
1761132263160518700,9.6955185546875,8.127469062805176,3.928532123565674,0.5152878761291504
1761132263170518800,9.705518798828125,8.338926315307617,4.253134727478027,0.7248870134353638
1761132263180518700,9.7155185546875,7.845606803894043,4.2550249099731445,-0.26794886589050293
1761132263190518800,9.725518798828125,7.553533554077148,4.38345193862915,-0.8831475973129272
1761132263200518700,9.7355185546875,8.44047737121582,4.896541595458984,-0.9633203744888306
1761132263210517800,9.745517822265626,10.70824909210205,4.132277488708496,-0.08720386028289795
1761132263220518000,9.755517822265626,13.832199096679688,1.8727149963378906,1.3586794137954712
1761132263230517800,9.765517822265625,15.860265731811523,-0.8108241558074951,1.8878328800201416
1761132263240518000,9.775517822265625,15.719959259033203,-1.5708954334259033,0.11510288715362549
1761132263250517800,9.785517822265625,13.934462547302246,-0.8928326368331909,-1.8349553346633911
1761132263260518000,9.795517822265625,11.480694770812988,0.0934755802154541,-2.290635108947754
1761132263270517800,9.805517822265625,8.803596496582031,0.896134614944458,-1.3637081384658813
1761132263280518000,9.815517822265624,6.3236541748046875,1.5981650352478027,-0.2183208465576172
1761132263290517800,9.825517822265626,3.8930110931396484,2.1389784812927246,0.514979362487793
1761132263300518000,9.835517822265626,1.7904529571533203,2.507017135620117,0.6260064840316772
1761132263310518500,9.8455185546875,-0.3743934631347656,2.7450332641601562,0.4194211959838867
1761132263320518700,9.8555185546875,-2.1855502128601074,2.9103713035583496,0.024013638496398926
1761132263330518500,9.8655185546875,-2.190311908721924,2.9329543113708496,0.017151713371276855
1761132263340518700,9.8755185546875,-4.705796241760254,3.023691177368164,0.16126573085784912
1761132263350518800,9.885518798828125,-5.485752582550049,2.9075515270233154,0.3067018985748291
1761132263360518700,9.8955185546875,-4.884535312652588,2.4152398109436035,0.7585721015930176
1761132263370518800,9.905518798828124,-4.911910057067871,2.504232406616211,1.1643977165222168
1761132263380518700,9.9155185546875,-4.573853969573975,2.5061745643615723,0.9856445789337158
1761132263390518800,9.925518798828126,-3.876817226409912,1.962859034538269,1.0116220712661743
1761132263400518700,9.9355185546875,-3.5524020195007324,1.1406968832015991,1.6679388284683228
1761132263410517800,9.945517822265625,-2.648061752319336,0.33113348484039307,2.551063299179077
1761132263420518000,9.955517822265625,-1.8007006645202637,-0.3670557737350464,3.1512670516967773
