time,seconds_elapsed,z,y,x
1761132253567430400,0.102430419921875,-0.13026700913906097,0.38904479146003723,-0.20891591906547546
1761132253597457000,0.132456787109375,-0.13026700913906097,0.38904479146003723,-0.20891591906547546
1761132253607448600,0.142448486328125,-0.0887281745672226,0.13125966489315033,-0.17776179313659668
1761132253617448400,0.152448486328125,-0.062460970133543015,0.15630514919757843,-0.17776179313659668
1761132253627448600,0.162448486328125,-0.03375030308961868,0.21433734893798828,-0.17959438264369965
1761132253637448400,0.172448486328125,0.010842857882380486,0.2796999216079712,-0.19853121042251587
1761132253647448600,0.182448486328125,0.048105638474226,0.39271000027656555,-0.24617868661880493
1761132253657448400,0.192448486328125,0.06765332818031311,0.5301546454429626,-0.31520646810531616
1761132253667448600,0.202448486328125,0.07437284290790558,0.6553820371627808,-0.3897320330142975
1761132253677448400,0.212448486328125,0.08170322328805923,0.7372379899024963,-0.4538728892803192
1761132253687448600,0.222448486328125,0.10919216275215149,0.7311293482780457,-0.5161811113357544
1761132253697448400,0.232448486328125,0.1598939746618271,0.6480516791343689,-0.5503895878791809
1761132253707448600,0.242448486328125,0.24358251690864563,0.5784130096435547,-0.5546656250953674
1761132253717448400,0.252448486328125,0.32910364866256714,0.5655848383903503,-0.5589417219161987
1761132253727448600,0.262448486328125,0.3675881624221802,0.7366271018981934,-0.5400048494338989
1761132253737448400,0.272448486328125,0.40301835536956787,1.174006700515747,-0.475253164768219
1761132253747448600,0.282448486328125,0.38896843791007996,1.560684323310852,-0.4538728892803192
1761132253757448400,0.292448486328125,0.38957929611206055,1.658422827720642,-0.4801400899887085
1761132253767448600,0.302448486328125,0.4415028691291809,1.5502996444702148,-0.5387831330299377
1761132253777448400,0.312448486328125,0.566119372844696,1.313283920288086,-0.5925393104553223
1761132253787448600,0.322448486328125,0.7793113589286804,1.114141821861267,-0.627358615398407
1761132253797448400,0.332448486328125,1.3278683423995972,0.772668182849884,-0.6395758986473083
1761132253807447300,0.342447265625,1.7224873304367065,0.5222133994102478,-0.66584312915802
1761132253817447400,0.352447509765625,2.0395262241363525,0.268704354763031,-0.7153232097625732
1761132253827447300,0.362447265625,2.3101396560668945,-0.01595885492861271,-0.7312057018280029
1761132253837447400,0.372447509765625,2.646726369857788,-0.28412869572639465,-0.637132465839386
1761132253847447300,0.382447265625,2.791501522064209,-0.3366630971431732,-0.5351179838180542
1761132253857447400,0.392447509765625,2.5758659839630127,0.018249599263072014,-0.5229006409645081
1761132253867447300,0.402447265625,1.9778289794921875,0.7830528616905212,-0.43615779280662537
1761132253877447400,0.412447509765625,1.0248792171478271,1.8477909564971924,-0.10995574295520782
1761132253887447300,0.422447265625,0.26862800121307373,2.1330649852752686,0.07208210229873657
1761132253897447400,0.432447509765625,0.28878653049468994,2.2198078632354736,-0.08796459436416626
1761132253907448300,0.4424482421875,0.527634859085083,1.9290361404418945,-0.1765400618314743
1761132253917448200,0.4524482421875,0.7145596146583557,1.464167594909668,-0.41172316670417786
1761132253927448300,0.4624482421875,0.7463245987892151,0.4751768112182617,-0.8155050873756409
1761132253937448200,0.4724482421875,0.8141306638717651,-0.8021424412727356,-1.2657127380371094
1761132253947448300,0.4824482421875,1.0462594032287598,-1.9206366539001465,-1.5332717895507812
1761132253957448200,0.4924482421875,1.448819637298584,-2.756911277770996,-1.4233160018920898
1761132253967448300,0.5024482421875,1.8354973793029785,-3.463071346282959,-0.9724974632263184
1761132253977448200,0.5124482421875,2.052354574203491,-3.5730271339416504,-0.2632829248905182
1761132253987448300,0.5224482421875,1.9362901449203491,-3.0318005084991455,0.4043927788734436
1761132253997448200,0.5324482421875,1.5917620658874512,-2.106950521469116,0.759305477142334
1761132254007447300,0.542447265625,1.1843149662017822,-1.136285662651062,0.6688974499702454
1761132254017447400,0.552447509765625,0.7389942407608032,-0.2517528533935547,0.24984388053417206
1761132254027447300,0.562447265625,0.1996002197265625,0.5454263091087341,-0.4807509481906891
1761132254037447400,0.572447509765625,-0.08200865983963013,0.7641160488128662,-0.8558222055435181
1761132254047447300,0.582447265625,-0.2817615866661072,0.8001571297645569,-1.120937705039978
1761132254057447400,0.592447509765625,-0.4381431043148041,0.4147011339664459,-1.3005321025848389
1761132254067447300,0.602447265625,-0.4717406928539276,-0.2309834212064743,-1.1728612184524536
1761132254077447400,0.612447509765625,-0.4772384762763977,-0.7709882855415344,-0.6682865619659424
1761132254087447300,0.622447265625,-0.5132794976234436,-0.9744064211845398,0.08429940044879913
1761132254097447400,0.632447509765625,-0.5658139586448669,-0.976239025592804,0.788016140460968
1761132254107448300,0.6424482421875,-0.6262896060943604,-0.8461247086524963,1.2333369255065918
1761132254117448200,0.6524482421875,-0.6812674403190613,-0.6048329472541809,1.4483615159988403
1761132254127448300,0.6624482421875,-0.7081455588340759,-0.35559993982315063,1.5241087675094604
1761132254137448200,0.6724482421875,-0.7276932001113892,-0.19738583266735077,1.510058879852295
1761132254147448300,0.6824482421875,-0.7893906235694885,-0.22731822729110718,1.42637038230896
1761132254157448200,0.6924482421875,-0.8743008971214294,-0.3134502172470093,1.3475687503814697
1761132254167448300,0.7024482421875,-0.8578075170516968,-0.3916409909725189,1.318858027458191
1761132254177448200,0.7124482421875,-0.8675813674926758,-0.4331798255443573,1.274264931678772
1761132254187448300,0.7224482421875,-0.859029233455658,-0.42096251249313354,1.2101240158081055
1761132254197448200,0.7324482421875,-0.7728972434997559,-0.3433826267719269,1.130711555480957
1761132254207447300,0.742447265625,-0.6708827614784241,-0.23709207773208618,1.0476338863372803
1761132254217447400,0.752447509765625,-0.6061310172080994,-0.10270171612501144,0.9651671051979065
1761132254227447300,0.762447265625,-0.5878050923347473,0.029856039211153984,0.8778133392333984
1761132254237447400,0.772447509765625,-0.6293439269065857,0.12392928451299667,0.7965682744979858
1761132254247447300,0.782447265625,-0.6995934247970581,0.17585283517837524,0.7122688889503479
1761132254257447400,0.792447509765625,-0.784503698348999,0.14592044055461884,0.4813618063926697
1761132254267447300,0.802447265625,-0.8095491528511047,0.08300131559371948,0.27550023794174194
1761132254277447400,0.812447509765625,-0.813825249671936,0.029856039211153984,0.06230825558304787
1761132254287447300,0.822447265625,-0.794277548789978,-0.002519819187000394,-0.1612684279680252
1761132254297447400,0.832447509765625,-0.7539604306221008,-0.03367394581437111,-0.39706242084503174
1761132254307448000,0.842447998046875,-0.707534670829773,-0.06238461285829544,-0.6017022728919983
1761132254317448200,0.8524482421875,-0.717308521270752,0.038408152759075165,-0.6921103000640869
1761132254327448000,0.862447998046875,-0.8327620625495911,0.18440493941307068,-0.7086036801338196
1761132254337448200,0.8724482421875,-0.9812023043632507,0.3548363447189331,-0.6872233748435974
1761132254347448300,0.8824482421875,-1.0881037712097168,0.6346126198768616,-0.5974262356758118
1761132254357448200,0.8924482421875,-1.067945122718811,0.8728500604629517,-0.513126790523529
1761132254367448300,0.9024482421875,-0.9085093140602112,0.9180541038513184,-0.5821545720100403
1761132254377448200,0.9124482421875,-0.6800457239151001,0.8636870980262756,-0.7470881938934326
1761132254387448300,0.9224482421875,-0.4381431043148041,0.8337547183036804,-0.8283332586288452
1761132254397447700,0.93244775390625,-0.20112738013267517,0.7274641394615173,-0.8020660877227783
1761132254407447000,0.942447021484375,0.08659014850854874,0.5203808546066284,-0.6939429044723511
1761132254417447000,0.952447021484375,0.41401392221450806,0.34261903166770935,-0.5357288122177124
1761132254427447000,0.962447021484375,0.660192608833313,0.25098925828933716,-0.3891211748123169
1761132254437447000,0.972447021484375,0.6968445181846619,0.18501581251621246,-0.4153883755207062
1761132254447447000,0.982447021484375,0.447000652551651,-0.037339139729738235,-0.8631525635719299
1761132254457447000,0.992447021484375,-0.14798210561275482,-0.458836168050766,-1.9315558671951294
1761132254467447000,1.002447021484375,-0.8773552179336548,-0.872391939163208,-3.4122931957244873
1761132254477447000,1.012447021484375,-1.4039210081100464,-0.8302422165870667,-4.688390731811523
1761132254487447000,1.022447021484375,-1.7747162580490112,0.34139731526374817,-5.291314601898193
1761132254497447000,1.032447021484375,-1.8254181146621704,1.5221998691558838,-4.840496063232422
1761132254507447800,1.04244775390625,-1.6158913373947144,2.5124123096466064,-3.787975311279297
1761132254517448000,1.052447998046875,-1.152855396270752,2.8789315223693848,-2.495995283126831
1761132254527447800,1.06244775390625,-0.20601430535316467,1.818469524383545,-1.379333734512329
1761132254537448000,1.072447998046875,0.7646505832672119,0.03901901841163635,-0.4440990388393402
1761132254547447800,1.08244775390625,1.0193814039230347,-1.5437328815460205,0.5082398653030396
1761132254557448000,1.092447998046875,0.4934264123439789,-2.5455517768859863,1.3976596593856812
1761132254567447800,1.10244775390625,-0.44364088773727417,-2.497293472290039,2.018298864364624
1761132254577448000,1.112447998046875,-1.449125051498413,-1.450270414352417,2.1429152488708496
1761132254587447800,1.12244775390625,-2.316553831100464,-0.011071932502090931,1.8936822414398193
1761132254597448000,1.132447998046875,-2.7728700637817383,1.4201853275299072,1.566258430480957
1761132254607447300,1.142447265625,-2.7508788108825684,2.3108267784118652,1.2596040964126587
1761132254617447200,1.152447265625,-2.2982277870178223,2.5124123096466064,1.1246029138565063
1761132254627447300,1.162447265625,-1.5572482347488403,2.0377700328826904,1.228450059890747
1761132254637447200,1.172447265625,-0.7851145267486572,1.1031463146209717,1.585806131362915
1761132254647447000,1.182447021484375,-0.14004085958003998,0.009697485715150833,2.1545217037200928
1761132254657447200,1.192447265625,0.2716823220252991,-0.8070293664932251,2.797762870788574
1761132254667447000,1.202447021484375,0.4586070775985718,-1.1454486846923828,3.395189046859741
1761132254677447200,1.212447265625,0.46105054020881653,-1.1338422298431396,3.8142426013946533
1761132254687447000,1.222447021484375,0.3065016269683838,-0.9224829077720642,3.933972120285034
1761132254697447400,1.232447509765625,0.1036943718791008,-0.5773440003395081,3.7641515731811523
1761132254707448300,1.2424482421875,-0.08689557760953903,-0.1295797973871231,3.3652565479278564
1761132254717448400,1.252448486328125,-0.2860376536846161,0.4800637364387512,2.56257963180542
1761132254727448300,1.2624482421875,-0.3568980097770691,0.715246856212616,2.026850938796997
1761132254737448400,1.272448486328125,-0.4680754840373993,0.8184830546379089,1.567480206489563
1761132254747448300,1.2824482421875,-0.6281222105026245,0.8148179054260254,1.19607412815094
1761132254757448400,1.292448486328125,-0.7881689071655273,0.7751116156578064,0.9010262489318848
1761132254767448600,1.302448486328125,-0.878576934337616,0.7195228934288025,0.6572909951210022
1761132254777448400,1.312448486328125,-0.8712465763092041,0.6853144764900208,0.4447098970413208
1761132254787448600,1.322448486328125,-0.7594582438468933,0.6688210964202881,0.25961771607398987
1761132254797448400,1.332448486328125,-0.5371032953262329,0.6278930902481079,0.10873401165008545
1761132254807447600,1.342447509765625,-0.2561052441596985,0.544204592704773,-0.01160643994808197
1761132254817447700,1.35244775390625,-0.0007635815418325365,0.45807257294654846,-0.11850785464048386
1761132254827447600,1.362447509765625,0.1635591685771942,0.38904479146003723,-0.2632829248905182
1761132254837447400,1.372447509765625,0.22708915174007416,0.3994295001029968,-0.4691445231437683
1761132254847447600,1.382447509765625,0.21242839097976685,0.45257478952407837,-0.7244861721992493
1761132254857447700,1.39244775390625,0.16233743727207184,0.481896311044693,-1.024420976638794
1761132254867447600,1.402447509765625,0.11957687139511108,0.4696790277957916,-1.357953429222107
1761132254877447400,1.412447509765625,0.1085812970995903,0.42325326800346375,-1.6743816137313843
1761132254887447600,1.422447509765625,0.14034628868103027,0.39332085847854614,-1.9223929643630981
1761132254897447400,1.432447509765625,0.24602597951889038,0.3859904706478119,-2.090991735458374
1761132254907448300,1.4424482421875,0.4164573848247528,0.3261256814002991,-2.186286687850952
1761132254917448200,1.4524482421875,0.6064364910125732,0.1837940812110901,-2.2272145748138428
1761132254927448300,1.4624482421875,0.7683157324790955,-0.04894557595252991,-2.2375993728637695
1761132254940518700,1.4755185546875,0.9216429591178894,-0.23831380903720856,-2.1478021144866943
1761132254950518800,1.485518798828125,1.0554224252700806,-0.467999130487442,-2.0555615425109863
1761132254960518700,1.4955185546875,1.2166908979415894,-1.0361038446426392,-1.9889771938323975
1761132254970518800,1.505518798828125,1.316261887550354,-1.5638914108276367,-2.026240110397339
1761132254980518700,1.5155185546875,1.2056952714920044,-1.9493473768234253,-2.2455406188964844
1761132254990518800,1.525518798828125,0.840397834777832,-2.170480489730835,-2.685363531112671
1761132255000518700,1.5355185546875,0.4616613984107971,-2.1387155055999756,-3.2113184928894043
1761132255010518000,1.54551806640625,0.3016147017478943,-1.4966962337493896,-3.626707077026367
1761132255020518000,1.555517822265625,0.34804046154022217,-0.5657375454902649,-3.8056905269622803
1761132255030518000,1.56551806640625,0.4115704596042633,0.19478964805603027,-3.601661443710327
1761132255040518000,1.575517822265625,0.5044219493865967,0.6120105981826782,-2.953533411026001
1761132255050518000,1.58551806640625,0.5496259927749634,0.8832347989082336,-1.9236146211624146
1761132255060518000,1.595517822265625,0.45982882380485535,0.8917868733406067,-0.9553932547569275
1761132255070517800,1.605517822265625,0.2399173229932785,0.7445683479309082,-0.4966334402561188
1761132255080518000,1.615517822265625,-0.11438451707363129,0.6297256946563721,-0.5833762884140015
1761132255090517800,1.625517822265625,-0.6305656433105469,0.6376669406890869,-1.0891727209091187
1761132255100518000,1.635517822265625,-1.3855950832366943,0.6981425881385803,-1.7959438562393188
1761132255110518800,1.645518798828125,-2.277458429336548,0.4855615198612213,-2.364659309387207
1761132255120518700,1.6555185546875,-2.981175184249878,0.5558109879493713,-2.3078489303588867
1761132255130518800,1.665518798828125,-3.2481231689453125,1.0420597791671753,-1.451415777206421
1761132255140518700,1.6755185546875,-2.956129550933838,1.5490778684616089,-0.18997909128665924
1761132255150518800,1.685518798828125,-2.188882827758789,1.3963615894317627,0.808174729347229
1761132255160518700,1.6955185546875,-1.335504174232483,0.7268533110618591,1.4398094415664673
1761132255170518800,1.705518798828125,-0.6623306274414062,-0.17661641538143158,1.832595705986023
1761132255180518700,1.7155185546875,-0.17608191072940826,-0.8998808860778809,2.057394027709961
1761132255190518800,1.725518798828125,0.05054909735918045,-1.2865585088729858,2.244929790496826
1761132255200518700,1.7355185546875,-0.02886338345706463,-1.1992048025131226,2.431854486465454
1761132255210517800,1.745517822265625,-0.08994990587234497,-0.8583420515060425,2.6309967041015625
1761132255220518000,1.755517822265625,-0.06979135423898697,-0.2908482253551483,2.668870210647583
1761132255230517800,1.765517822265625,0.004734205547720194,0.32673653960227966,2.4770586490631104
1761132255240518000,1.775517822265625,0.05726861581206322,0.866741418838501,2.180178165435791
1761132255250517800,1.785517822265625,0.0377209298312664,1.2583060264587402,1.8661932945251465
1761132255260518000,1.795517822265625,-0.013591751456260681,1.511815071105957,1.578475832939148
1761132255270517800,1.805517822265625,-0.1137736514210701,1.3920855522155762,1.405600905418396
1761132255280518000,1.815517822265625,-0.3000875413417816,0.885678231716156,1.2443325519561768
1761132255290517800,1.825517822265625,-0.5224425196647644,0.3487277030944824,1.043968677520752
1761132255300518000,1.835517822265625,-0.6672175526618958,0.012751812115311623,0.826500654220581
1761132255310518800,1.845518798828125,-0.6855435371398926,-0.11797334998846054,0.588263213634491
1761132255320518700,1.8555185546875,-0.5597052574157715,-0.014737123623490334,0.3897320330142975
1761132255330518800,1.865518798828125,-0.3006984293460846,0.2332741618156433,0.25961771607398987
1761132255340518700,1.8755185546875,0.015118914656341076,0.4415792226791382,0.17837265133857727
1761132255350518800,1.885518798828125,0.2790127098560333,0.5271003246307373,0.1612684279680252
1761132255360518700,1.8955185546875,0.456163614988327,0.4519639313220978,0.22296582162380219
1761132255370518800,1.905518798828125,0.5801692605018616,0.23266330361366272,0.33169981837272644
1761132255380518700,1.9155185546875,0.6944010853767395,-0.04466952010989189,0.48747047781944275
1761132255390518800,1.925518798828125,0.822682797908783,-0.3812562823295593,0.6982190012931824
1761132255400518700,1.9355185546875,0.9479101300239563,-0.6646977663040161,0.9419541954994202
1761132255410517800,1.945517822265625,1.067639708518982,-0.7190647721290588,1.1551461219787598
1761132255420518000,1.955517822265625,1.3315335512161255,-0.5645158290863037,1.2559388875961304
1761132255430517800,1.965517822265625,1.545336365699768,-0.4728860557079315,1.2003501653671265
1761132255440518000,1.975517822265625,1.7096590995788574,-0.4246276915073395,1.0824532508850098
1761132255450517800,1.985517822265625,1.8147279024124146,-0.4026365578174591,0.950506329536438
1761132255460518000,1.995517822265625,1.8721492290496826,-0.42157337069511414,0.8155050873756409
1761132255470517800,2.005517822265625,1.8898643255233765,-0.5070945024490356,0.6670648455619812
1761132255480518000,2.015517822265625,1.8617645502090454,-0.6011677384376526,0.4715879559516907
1761132255490517800,2.025517822265625,1.7548631429672241,-0.5718462467193604,0.1771509200334549
1761132255500518000,2.035517822265625,1.6607898473739624,-0.4539492428302765,-0.13805554807186127
1761132255510518800,2.045518798828125,1.6803375482559204,-0.2975677251815796,-0.34758231043815613
1761132255520518700,2.0555185546875,1.8373299837112427,-0.07399105280637741,-0.34697145223617554
1761132255530518800,2.065518798828125,2.04013729095459,0.16424639523029327,-0.17959438264369965
1761132255540518700,2.0755185546875,2.183079719543457,0.320627897977829,0.05375614017248154
1761132255550518800,2.085518798828125,2.1476495265960693,0.27114781737327576,0.23273965716362
1761132255560518700,2.0955185546875,1.9240728616714478,0.0817795842885971,0.3628539443016052
1761132255570518800,2.105518798828125,1.6045902967453003,-0.2816852331161499,0.3384193480014801
1761132255580518700,2.1155185546875,1.3028228282928467,-0.9707412123680115,0.11301007121801376
1761132255590518800,2.125518798828125,1.0780243873596191,-1.8626044988632202,-0.3854559659957886
1761132255600519000,2.135518798828125,0.7841982841491699,-2.4905738830566406,-1.1630873680114746
1761132255610518000,2.14551806640625,0.45005497336387634,-2.483243465423584,-2.116647958755493
1761132255620518000,2.155517822265625,0.30405816435813904,-1.8797087669372559,-3.0329458713531494
1761132255630518000,2.16551806640625,0.5141957998275757,-1.015945315361023,-3.7305541038513184
1761132255640518000,2.175517822265625,0.9857838153839111,-0.42584943771362305,-3.9003746509552
1761132255650518000,2.18551806640625,1.447597861289978,-0.7190647721290588,-2.609616279602051
1761132255660518000,2.195517822265625,1.4763085842132568,-1.1729376316070557,-0.9822713136672974
1761132255670517800,2.205517822265625,1.3529138565063477,-1.3048845529556274,0.4948008358478546
1761132255680518000,2.215517822265625,1.126282811164856,-1.2346349954605103,1.1740829944610596
1761132255690517800,2.225517822265625,0.6919575929641724,-1.1344531774520874,0.9749409556388855
1761132255700518000,2.235517822265625,-0.038026362657547,-1.1625529527664185,0.21319197118282318
1761132255710518800,2.245518798828125,-0.9537133574485779,-1.1973721981048584,-0.5595525503158569
1761132255720518700,2.2555185546875,-1.774105429649353,-1.078864336013794,-0.9358455538749695
1761132255730518800,2.265518798828125,-2.2597432136535645,-0.9560804963111877,-1.10139000415802
1761132255740518700,2.2755185546875,-2.3599252700805664,-0.8070293664932251,-1.2150110006332397
1761132255750518800,2.285518798828125,-2.1565070152282715,-0.6256023645401001,-1.2822061777114868
1761132255760518700,2.2955185546875,-1.8229745626449585,-0.5083162188529968,-1.2571606636047363
1761132255770518800,2.305518798828125,-1.5309810638427734,-0.5229769945144653,-1.1044443845748901
1761132255780518700,2.3155185546875,-1.3312281370162964,-0.7874816656112671,-0.8704829812049866
1761132255790518800,2.325518798828125,-1.1968377828598022,-1.3262648582458496,-0.5314527750015259
1761132255800518700,2.3355185546875,-1.030071496963501,-2.0574705600738525,0.024434609338641167
1761132255810518000,2.34551806640625,-0.8083274364471436,-2.424600601196289,0.8472700715065002
1761132255820518000,2.355517822265625,-0.5187773108482361,-2.2786037921905518,1.6878206729888916
1761132255830517800,2.365517822265625,-0.37400224804878235,-1.9633972644805908,2.1789562702178955
1761132255840518000,2.375517822265625,-0.32940909266471863,-1.6274213790893555,2.3035728931427
1761132255850518000,2.38551806640625,-0.4112650156021118,-1.4246140718460083,2.0781636238098145
1761132255860518000,2.395517822265625,-0.5878050923347473,-1.2737303972244263,1.6352862119674683
1761132255870517800,2.405517822265625,-0.6788240075111389,-1.1594985723495483,1.0989465713500977
1761132255880518000,2.415517822265625,-0.9445503950119019,-0.8394051790237427,0.32620203495025635
1761132255890518000,2.42551806640625,-1.058171272277832,-0.5376377701759338,-0.033597588539123535
1761132255900518000,2.435517822265625,-1.1113165616989136,-0.3171154260635376,-0.3219259977340698
1761132255910518800,2.445518798828125,-1.0337367057800293,-0.2114357352256775,-0.5119050741195679
1761132255920518700,2.4555185546875,-0.8345946669578552,-0.22976168990135193,-0.616973876953125
1761132255930518800,2.465518798828125,-0.5566509366035461,-0.2816852331161499,-0.627358615398407
1761132255940519000,2.475518798828125,-0.2768746614456177,-0.2713005244731903,-0.5577199459075928
1761132255950518800,2.485518798828125,-0.0429132841527462,-0.17967073619365692,-0.4343251883983612
1761132255960519000,2.495518798828125,0.11224649101495743,-0.05994115397334099,-0.313373863697052
1761132255970518800,2.505518798828125,0.1849394589662552,0.07383833825588226,-0.2223549485206604
1761132255980519000,2.515518798828125,0.23075434565544128,0.18929186463356018,-0.17043140530586243
1761132255990518800,2.525518798828125,0.30405816435813904,0.27236953377723694,-0.15882496535778046
1761132256000518700,2.5355185546875,0.36880987882614136,0.2998584806919098,-0.17470745742321014
1761132256010518000,2.54551806640625,0.4213443100452423,0.2680934965610504,-0.17409659922122955
1761132256020518000,2.555517822265625,0.49525898694992065,0.26015225052833557,-0.1466076523065567
1761132256030518000,2.56551806640625,0.6143777370452881,0.3151301145553589,-0.11728613078594208
1761132256040518000,2.575517822265625,0.7609853744506836,0.3707188367843628,-0.11056660860776901
1761132256050518000,2.58551806640625,0.8623890280723572,0.3994295001029968,-0.14233160018920898
1761132256060518000,2.595517822265625,0.8947648406028748,0.4605160355567932,-0.18448130786418915
1761132256070518000,2.60551806640625,0.8648324608802795,0.5014439821243286,-0.22479841113090515
1761132256080518000,2.615517822265625,0.8245153427124023,0.4757876694202423,-0.28099802136421204
1761132256090518000,2.62551806640625,0.7719809412956238,0.4354705512523651,-0.35613444447517395
1761132256100518000,2.635517822265625,0.7261660695075989,0.4617377817630768,-0.3988949954509735
1761132256110518800,2.645518798828125,0.7420485615730286,0.7696138620376587,-0.3701843321323395
1761132256120519000,2.655518798828125,0.7683157324790955,1.2473105192184448,-0.2871066629886627
1761132256130518800,2.665518798828125,0.7163922190666199,1.8349628448486328,-0.14477506279945374
1761132256140519000,2.675518798828125,0.6375905871391296,2.2448534965515137,0.015882495790719986
1761132256150518800,2.685518798828125,0.5251913666725159,2.235079526901245,-0.02932153269648552
1761132256160518700,2.6955185546875,0.42378777265548706,1.5710690021514893,-0.40133845806121826
1761132256170518800,2.705518798828125,0.36819902062416077,0.5686391592025757,-0.8808676600456238
1761132256180518700,2.7155185546875,0.41890084743499756,-0.3763693571090698,-1.2131783962249756
1761132256190518800,2.725518798828125,0.5441282391548157,-0.8100836873054504,-1.4465289115905762
1761132256200518700,2.7355185546875,0.7353290319442749,-0.6866888999938965,-1.768454909324646
1761132256210517800,2.745517822265625,1.0566442012786865,-0.019624045118689537,-1.8723019361495972
1761132256220518000,2.755517822265625,1.4286611080169678,1.027398943901062,-1.4569135904312134
1761132256230517800,2.765517822265625,1.8330538272857666,1.5173128843307495,-0.618195652961731
1761132256240518000,2.775517822265625,2.1109976768493652,1.1880565881729126,0.44654250144958496
1761132256250517800,2.785517822265625,2.274709463119507,0.4409683346748352,1.5735888481140137
1761132256260518000,2.795517822265625,2.314415693283081,-0.6927975416183472,2.3157901763916016
1761132256270517800,2.805517822265625,2.2484421730041504,-1.44294011592865,2.138028383255005
1761132256280518000,2.815517822265625,1.849547266960144,-1.232802391052246,1.2834278345108032
1761132256290517800,2.825517822265625,1.3504703044891357,-0.38553231954574585,0.37079519033432007
1761132256300518000,2.835517822265625,0.9234755635261536,0.5839108228683472,-0.08674286305904388
1761132256310518800,2.845518798828125,0.5844452977180481,1.3090078830718994,0.0910189226269722
1761132256320518700,2.8555185546875,0.35292738676071167,1.0781008005142212,0.5558874011039734
1761132256330518800,2.865518798828125,0.5398521423339844,0.3804926872253418,1.3005321025848389
1761132256340518700,2.8755185546875,0.8428413271903992,-0.6738607287406921,2.5815165042877197
1761132256350518800,2.885518798828125,1.2765556573867798,-0.9475283622741699,3.318830966949463
1761132256360518700,2.8955185546875,1.419498085975647,-0.9884563088417053,3.846618413925171
1761132256370518800,2.905518798828125,1.2618948221206665,-1.015945315361023,4.046982288360596
1761132256380518700,2.9155185546875,0.9558513760566711,-0.7502188682556152,3.7537670135498047
1761132256390518800,2.925518798828125,0.5001459121704102,-0.3061198592185974,2.9828550815582275
1761132256400518700,2.9355185546875,-0.11010845750570297,-0.011071932502090931,1.8808541297912598
1761132256410517800,2.945517822265625,-0.8229882121086121,-0.026343563571572304,0.6835582256317139
1761132256420518000,2.955517822265625,-1.4839444160461426,-0.17417295277118683,-0.3646865487098694
1761132256430517800,2.965517822265625,-1.9115500450134277,-0.20960313081741333,-1.1136072874069214
1761132256440518000,2.975517822265625,-2.0642664432525635,-0.2572506368160248,-1.4721852540969849
1761132256450517800,2.985517822265625,-1.8724546432495117,-0.33055445551872253,-1.3518447875976562
1761132256460518000,2.995517822265625,-1.4564554691314697,-0.4337906837463379,-0.8943067193031311
1761132256470517800,3.005517822265625,-0.9989174008369446,-0.5370268821716309,-0.303600013256073
1761132256480518000,3.015517822265625,-0.6794348955154419,-0.6060546636581421,0.18020524084568024
1761132256490517800,3.025517822265625,-0.4766276180744171,-0.6378196477890015,0.375071257352829
1761132256500518000,3.035517822265625,-0.3623957931995392,-0.5834526419639587,0.3323107063770294
1761132256510518800,3.045518798828125,-0.33429601788520813,-0.439288467168808,0.09773843735456467
1761132256520518700,3.0555185546875,-0.3550654351711273,-0.14118622243404388,-0.19486601650714874
1761132256530518800,3.065518798828125,-0.3923282027244568,0.16119205951690674,-0.4288274049758911
1761132256540518700,3.0755185546875,-0.4082106947898865,0.4018729627132416,-0.5742133259773254
1761132256550518800,3.085518798828125,-0.38988474011421204,0.5124396085739136,-0.6414085030555725
1761132256560518700,3.0955185546875,-0.3672827184200287,0.49411362409591675,-0.645684540271759
1761132256570518800,3.105518798828125,-0.3666718602180481,0.3401755690574646,-0.627358615398407
1761132256580518700,3.1155185546875,-0.4308127164840698,-0.0996473953127861,-0.6786713004112244
1761132256590518800,3.125518798828125,-0.4735732674598694,-0.2603049576282501,-0.7568620443344116
1761132256600519000,3.135518798828125,-0.5004513263702393,-0.28962647914886475,-0.8723155856132507
1761132256610518000,3.14551806640625,-0.535881519317627,-0.2609158158302307,-1.0207557678222656
1761132256620518000,3.155517822265625,-0.5707008838653564,-0.21204659342765808,-1.1520918607711792
1761132256630518000,3.16551806640625,-0.6049093008041382,-0.15157094597816467,-1.2418889999389648
1761132256650517800,3.185517822265625,-0.6568328738212585,0.024358252063393593,-1.351233959197998
1761132256660518000,3.195517822265625,-0.6452264189720154,-0.022678371518850327,-1.4245377779006958
1761132256670517800,3.205517822265625,-0.603076696395874,-0.16256651282310486,-1.4776830673217773
1761132256680518000,3.215517822265625,-0.5279402732849121,-0.26458099484443665,-1.4312572479248047
1761132256690517800,3.225517822265625,-0.4063780903816223,-0.2767983078956604,-1.2760975360870361
1761132256700518000,3.235517822265625,-0.24572055041790009,-0.21876612305641174,-1.015868902206421
1761132256710518800,3.245518798828125,-0.10705413669347763,-0.17172949016094208,-0.7147123217582703
1761132256720518700,3.2555185546875,-0.03375030308961868,-0.17234036326408386,-0.45631635189056396
1761132256730518800,3.265518798828125,0.004123340360820293,-0.24258986115455627,-0.27488934993743896
1761132256740519000,3.275518798828125,0.06398813426494598,-0.30062204599380493,-0.11728613078594208
1761132256750518800,3.285518798828125,0.15622878074645996,-0.2260964959859848,0.0861319974064827
1761132256760519000,3.295518798828125,0.2050980031490326,0.038408152759075165,0.3274237811565399
1761132256770518800,3.305518798828125,0.13729196786880493,0.10499246418476105,0.30970868468284607
1761132256780519000,3.315518798828125,-0.11010845750570297,-0.23464861512184143,-0.2669481039047241
1761132256790518800,3.325518798828125,-0.4375322461128235,-0.8106945157051086,-1.2003501653671265
1761132256800519000,3.335518798828125,-0.7246388792991638,-1.489365816116333,-2.1233675479888916
1761132256810518000,3.34551806640625,-0.8596401214599609,-2.61702299118042,-2.839301586151123
1761132256820518000,3.355517822265625,-0.4833471179008484,-3.030578851699829,-2.6059510707855225
1761132256830517800,3.365517822265625,0.0010690141934901476,-2.3580162525177,-1.7715091705322266
1761132256840518000,3.375517822265625,0.28695395588874817,-1.2743412256240845,-0.6872233748435974
1761132256850518000,3.38551806640625,0.32360586524009705,-0.720897376537323,0.2541199326515198
1761132256860518000,3.395517822265625,-0.06062837690114975,-0.2719113826751709,0.8527678847312927
1761132256870517800,3.405517822265625,-0.4332561790943146,-0.03672827407717705,0.9847147464752197
1761132256880518000,3.415517822265625,-0.6940956115722656,0.12392928451299667,0.7458664774894714
1761132256890517800,3.425517822265625,-0.8816312551498413,0.45379650592803955,0.4538728892803192
1761132256900518000,3.435517822265625,-0.9818131923675537,0.7121925354003906,0.41661009192466736
1761132256910518800,3.445518798828125,-0.9628763198852539,0.45807257294654846,0.6646214127540588
1761132256920518700,3.4555185546875,-0.7509061098098755,-0.013515393249690533,1.2027937173843384
1761132256930518800,3.465518798828125,-0.4375322461128235,-0.15767958760261536,1.9272798299789429
1761132256940518700,3.4755185546875,-0.16814066469669342,-0.006795875728130341,2.601675033569336
1761132256950518800,3.485518798828125,0.005955935921519995,0.13125966489315033,3.0280590057373047
1761132256960518700,3.4955185546875,0.13484850525856018,0.0029779679607599974,3.031113386154175
1761132256970518800,3.505518798828125,0.2295326143503189,-0.19860756397247314,2.7043004035949707
1761132256980518700,3.5155185546875,0.21059578657150269,-0.3537673354148865,2.1007654666900635
1761132256990518800,3.525518798828125,-0.04046982154250145,-0.4130212664604187,1.529606580734253
1761132257000518700,3.5355185546875,0.054825156927108765,-0.2560288906097412,1.0616837739944458
1761132257010518000,3.54551806640625,-0.06123924255371094,-0.002519819187000394,0.6346889734268188
1761132257020518000,3.555517822265625,-0.24205535650253296,0.1025490015745163,0.28955012559890747
1761132257030517800,3.565517822265625,-0.5303837656974792,0.23205243051052094,0.05375614017248154
1761132257040518000,3.575517822265625,-1.0080803632736206,0.5112178325653076,-0.2076941877603531
1761132257050517800,3.585517822265625,-1.3892602920532227,0.8606327772140503,-0.323147714138031
1761132257060518000,3.595517822265625,-1.6879733800888062,1.416520118713379,-0.3084869384765625
1761132257070518000,3.60551806640625,-1.7386752367019653,1.949805498123169,-0.24068090319633484
1761132257080518000,3.615517822265625,-1.5431983470916748,2.2191970348358154,-0.14294247329235077
1761132257090518000,3.62551806640625,-1.1491901874542236,2.1862103939056396,0.00855211354792118
1761132257100518000,3.635517822265625,-0.7154759168624878,1.910710096359253,0.2687807083129883
1761132257110518800,3.645518798828125,-0.37522396445274353,1.4800500869750977,0.6206390857696533
1761132257120519000,3.655518798828125,-0.1498146951198578,1.0445032119750977,1.004873275756836
1761132257130518800,3.665518798828125,0.0029016099870204926,0.7103599309921265,1.3243558406829834
1761132257140519000,3.675518798828125,0.12140946835279465,0.4373031556606293,1.4776830673217773
1761132257150518800,3.685518798828125,0.22403483092784882,0.2027309089899063,1.423926830291748
1761132257160518700,3.6955185546875,0.2906191349029541,0.08849909901618958,1.2345587015151978
1761132257170518800,3.705518798828125,0.32910364866256714,0.10865765810012817,0.9877691268920898
1761132257180519000,3.715518798828125,0.3517056703567505,0.18929186463356018,0.7269296646118164
1761132257190518800,3.725518798828125,0.34987306594848633,0.26626089215278625,0.49296826124191284
1761132257200519000,3.735518798828125,0.3162754774093628,0.3145192563533783,0.2840523421764374
1761132257210518000,3.74551806640625,0.24602597951889038,0.3346777856349945,0.0959058403968811
1761132257220518000,3.755517822265625,0.16111570596694946,0.320627897977829,-0.07452555745840073
1761132257230517800,3.765517822265625,0.09514226019382477,0.22044599056243896,-0.2871066629886627
1761132257240518000,3.775517822265625,0.05421429127454758,0.061621032655239105,-0.5290092825889587
1761132257250517800,3.785517822265625,0.011453723534941673,-0.08071056753396988,-0.720820963382721
1761132257260518000,3.795517822265625,-0.03436116874217987,-0.18883371353149414,-0.8527678847312927
1761132257270517800,3.805517822265625,-0.044135015457868576,-0.22915083169937134,-0.9682214260101318
1761132257280518000,3.815517822265625,0.022449297830462456,-0.25480717420578003,-0.9993755221366882
1761132257290517800,3.825517822265625,0.025503624230623245,-0.216322660446167,-0.9608910083770752
1761132257300518000,3.835517822265625,-0.01970040425658226,-0.18455766141414642,-0.8875871896743774
1761132257310518800,3.845518798828125,0.005955935921519995,-0.13629931211471558,-0.7751879692077637
1761132257320518700,3.8555185546875,0.09147707372903824,0.053068917244672775,-0.5375614166259766
1761132257330518800,3.865518798828125,0.23197607696056366,0.2528218626976013,-0.2070833146572113
1761132257340518700,3.8755185546875,0.4537201523780823,0.5234351754188538,0.14966198801994324
1761132257350518800,3.885518798828125,0.6779077053070068,0.7207446098327637,0.2840523421764374
1761132257360518700,3.8955185546875,0.7286095023155212,0.48250719904899597,-0.10384709388017654
1761132257370518800,3.905518798828125,0.6919575929641724,-0.7648796439170837,-1.112385630607605
1761132257380518700,3.9155185546875,0.6901249885559082,-3.046461343765259,-2.56868839263916
1761132257390518800,3.925518798828125,0.5862779021263123,-4.62066125869751,-3.612046241760254
1761132257400518700,3.9355185546875,0.5361869931221008,-4.657312870025635,-3.8044686317443848
1761132257410517800,3.945517822265625,0.5801692605018616,-2.42765474319458,-2.954144239425659
1761132257420518000,3.955517822265625,0.5221370458602905,0.41775545477867126,-1.560760736465454
1761132257430517800,3.965517822265625,0.38347065448760986,1.9504163265228271,-0.35063666105270386
1761132257440518000,3.975517822265625,0.2509129047393799,2.2222514152526855,0.4996877610683441
1761132257450517800,3.985517822265625,0.24663683772087097,1.770211100578308,1.1459832191467285
1761132257460518000,3.995517822265625,0.2997821271419525,0.9382126331329346,1.5289957523345947
1761132257470517800,4.005517822265625,0.2515237629413605,0.3603341281414032,1.7556266784667969
1761132257480518000,4.015517822265625,0.11285735666751862,0.2027309089899063,1.9272798299789429
1761132257490517800,4.025517822265625,-0.038637228310108185,0.25037840008735657,2.0610592365264893
1761132257500518000,4.035517822265625,-0.2151772826910019,0.8209265470504761,2.3518311977386475
1761132257510518800,4.045518798828125,-0.2756529450416565,1.2277628183364868,2.5607471466064453
1761132257520518700,4.0555185546875,-0.28909197449684143,1.3462706804275513,2.735454559326172
1761132257530518800,4.065518798828125,-0.2591595947742462,1.17950439453125,2.867401361465454
1761132257540518700,4.0755185546875,-0.2243402600288391,0.7909941077232361,2.959031343460083
1761132257550518800,4.085518798828125,-0.24388794600963593,0.31635183095932007,2.9773571491241455
1761132257560518700,4.0955185546875,-0.3465133011341095,-0.07399105280637741,2.8955013751983643
1761132257570518800,4.105518798828125,-0.4882340431213379,-0.2804635167121887,2.6737570762634277
1761132257580518700,4.1155185546875,-0.6427829265594482,-0.4282929003238678,2.274862289428711
1761132257590518800,4.125518798828125,-0.8333728909492493,-0.5223661661148071,1.7647897005081177
1761132257600518700,4.1355185546875,-1.0764973163604736,-0.5364160537719727,1.2198978662490845
1761132257610518000,4.14551806640625,-1.3715451955795288,-0.4484514594078064,0.6670648455619812
1761132257620518000,4.155517822265625,-1.6757560968399048,-0.2419789880514145,0.14782938361167908
1761132257630518000,4.16551806640625,-1.9017761945724487,0.02557998150587082,-0.313373863697052
1761132257640518000,4.175517822265625,-1.9518672227859497,0.3084105849266052,-0.6872233748435974
1761132257650518000,4.18551806640625,-1.8009834289550781,0.5808565020561218,-0.9584475755691528
1761132257660518000,4.195517822265625,-1.507768154144287,0.7891615629196167,-1.1068878173828125
1761132257670518000,4.20551806640625,-1.154077172279358,0.8038222789764404,-1.1349875926971436
1761132257680518000,4.215517822265625,-0.8235990405082703,0.6407212615013123,-1.0219775438308716
1761132257690518000,4.22551806640625,-0.5480988621711731,0.43913576006889343,-0.7947356700897217
1761132257700518000,4.235517822265625,-0.3446807265281677,0.218613401055336,-0.5290092825889587
1761132257710518800,4.245518798828125,-0.2096794992685318,0.07506006956100464,-0.3219259977340698
1761132257720519000,4.255518798828125,-0.07467827945947647,-0.04222606122493744,-0.24007004499435425
1761132257730518800,4.265518798828125,0.2148718535900116,-0.055665094405412674,-0.29626965522766113
1761132257740519000,4.275518798828125,0.4335615932941437,0.04512767121195793,-0.4105014503002167
1761132257750518800,4.285518798828125,0.6302602291107178,0.09582948684692383,-0.5711590051651001
1761132257760519000,4.295518798828125,0.7701483368873596,0.056123245507478714,-0.7391469478607178
1761132257770518800,4.305518798828125,0.8465065360069275,-0.09720393270254135,-0.8900306820869446
1761132257780519000,4.315518798828125,0.8978192210197449,-0.24442245066165924,-1.0293079614639282
1761132257790518800,4.325518798828125,0.9387471675872803,-0.30856332182884216,-1.1527026891708374
1761132257800519000,4.335518798828125,0.9631817936897278,-0.3061198592185974,-1.1924089193344116
1761132257810518000,4.34551806640625,0.9576839804649353,-0.22365303337574005,-1.13926362991333
1761132257820518000,4.355517822265625,0.9344711303710938,0.03413209691643715,-1.018923282623291
1761132257830518000,4.36551806640625,0.9534079432487488,0.21067215502262115,-0.9199630618095398
1761132257840518000,4.375517822265625,1.0083857774734497,0.36338844895362854,-0.8161159753799438
1761132257850518000,4.38551806640625,0.99250328540802,0.6559929251670837,-0.7238753437995911
1761132257860518000,4.395517822265625,0.8300131559371948,0.9259953498840332,-0.7067710757255554
1761132257870518000,4.40551806640625,0.5679519772529602,0.7879397869110107,-0.8484918475151062
1761132257880518000,4.415517822265625,0.39813143014907837,0.2796999216079712,-1.091616153717041
1761132257890518000,4.42551806640625,0.29306259751319885,-0.7551057934761047,-1.4086552858352661
1761132257900518000,4.435517822265625,0.22647829353809357,-1.9969948530197144,-1.786780834197998
1761132257910518800,4.445518798828125,0.12140946835279465,-2.9444468021392822,-2.3188445568084717
1761132257920518700,4.4555185546875,-0.00931569468230009,-2.9786553382873535,-2.769663095474243
1761132257930518800,4.465518798828125,-0.05513058975338936,-1.6048192977905273,-2.6505444049835205
1761132257940518700,4.4755185546875,-0.26404649019241333,0.5606979131698608,-1.9614882469177246
1761132257950518800,4.485518798828125,-0.6531676650047302,2.0182223320007324,-1.1612548828125
1761132257960518700,4.4955185546875,-0.945772111415863,2.2943334579467773,-0.19792033731937408
1761132257970518800,4.505518798828125,-0.7539604306221008,1.7005724906921387,0.24068090319633484
1761132257980518700,4.5155185546875,-0.3923282027244568,0.8887325525283813,0.6982190012931824
1761132257990518800,4.525518798828125,-0.050243668258190155,0.03901901841163635,1.254717230796814
1761132258000518700,4.5355185546875,0.18005253374576569,-0.6390414237976074,1.9364428520202637
1761132258010518000,4.54551806640625,0.18066339194774628,-0.6665303111076355,2.7592782974243164
1761132258020518000,4.555517822265625,-0.03130684420466423,-0.2523637115955353,3.4440581798553467
1761132258030517800,4.565517822265625,-0.31413745880126953,0.25098925828933716,3.782477617263794
1761132258040518000,4.575517822265625,-0.5633704662322998,0.6914231181144714,3.7171149253845215
1761132258050517800,4.585517822265625,-0.7350236177444458,0.9009498953819275,3.3603696823120117
1761132258060518000,4.595517822265625,-0.8364272117614746,0.8380307555198669,2.9297096729278564
1761132258070517800,4.605517822265625,-0.8840747475624084,0.5075526833534241,2.5638015270233154
1761132258080518000,4.615517822265625,-0.8920159935951233,0.08483391255140305,2.4013113975524902
1761132258090517800,4.625517822265625,-0.956156849861145,-0.1808924674987793,2.3469443321228027
1761132258100518000,4.635517822265625,-0.9708175659179688,-0.22487476468086243,2.328618288040161
1761132258110518800,4.645518798828125,-0.9909761548042297,-0.3317761719226837,2.311514139175415
1761132258120518700,4.6555185546875,-1.147357702255249,-0.4185190498828888,2.1349740028381348
1761132258130518800,4.665518798828125,-1.289689302444458,-0.5700136423110962,1.740355134010315
1761132258140518700,4.6755185546875,-1.3892602920532227,-0.6958518624305725,1.1716395616531372
1761132258150518800,4.685518798828125,-1.5041029453277588,-0.7569383978843689,0.43676865100860596
1761132258160518700,4.6955185546875,-1.5780175924301147,-0.6402631402015686,-0.35063666105270386
1761132258170518800,4.705518798828125,-1.5810719728469849,-0.3537673354148865,-1.0152580738067627
1761132258180518700,4.7155185546875,-1.5187636613845825,-0.02695442922413349,-1.4972307682037354
1761132258190518800,4.725518798828125,-1.3232868909835815,0.17829629778862,-1.7739527225494385
1761132258200518700,4.7355185546875,-0.8431467413902283,0.058566704392433167,-1.7702875137329102
1761132258210517800,4.745517822265625,-0.4534147381782532,-0.13141238689422607,-1.539380431175232
1761132258220518000,4.755517822265625,-0.10277807712554932,-0.33421963453292847,-1.2571606636047363
1761132258230517800,4.765517822265625,0.15195272862911224,-0.44051021337509155,-0.9859365224838257
1761132258240518000,4.775517822265625,0.32971450686454773,-0.3574325144290924,-0.8002334833145142
1761132258250517800,4.785517822265625,0.456163614988327,-0.2407572716474533,-0.7538077235221863
1761132258260518000,4.795517822265625,0.5141957998275757,-0.22426390647888184,-0.836885392665863
1761132258270517800,4.805517822265625,0.49037206172943115,-0.2755765914916992,-0.9480628371238708
1761132258280518000,4.815517822265625,0.40912699699401855,-0.3268892765045166,-1.026253581047058
1761132258290517800,4.825517822265625,0.3309362530708313,-0.2267073690891266,-1.0500773191452026
1761132258300518000,4.835517822265625,0.3101668357849121,0.10377073287963867,-1.0024298429489136
1761132258310518800,4.845518798828125,0.3572034537792206,0.491670161485672,-0.8839219808578491
1761132258320518700,4.8555185546875,0.4616613984107971,0.6792057752609253,-0.7202101349830627
1761132258330518800,4.865518798828125,0.5813909769058228,0.5784130096435547,-0.5002986192703247
1761132258340518700,4.8755185546875,0.7548767328262329,0.28153252601623535,-0.2834414839744568
1761132258350518800,4.885518798828125,1.0077749490737915,-0.22976168990135193,-0.1417207419872284
1761132258360518700,4.8955185546875,1.278388261795044,-0.6341544985771179,0.05253441259264946
1761132258370518800,4.905518798828125,1.5092953443527222,-0.5431355834007263,0.4355469346046448
1761132258380518700,4.9155185546875,1.648572564125061,-0.25419628620147705,0.9456194043159485
1761132258390518800,4.925518798828125,1.694387435913086,-0.04222606122493744,1.4666874408721924
1761132258400518700,4.9355185546875,1.640020489692688,-0.18150334060192108,1.8057177066802979
1761132258410517800,4.945517822265625,1.5398385524749756,-0.7832056283950806,1.7794504165649414
1761132258420518000,4.955517822265625,1.4579826593399048,-1.595656394958496,1.4001030921936035
1761132258430517800,4.965517822265625,1.1855367422103882,-2.128330945968628,0.6194173693656921
1761132258440518000,4.975517822265625,0.8098546266555786,-1.7428748607635498,0.18997909128665924
1761132258450517800,4.985517822265625,0.33337971568107605,-0.9096547365188599,-0.033597588539123535
1761132258460518000,4.995517822265625,-0.12721268832683563,-0.04833471402525902,-0.1569923609495163
1761132258470517800,5.005517822265625,-0.4521929919719696,0.4507421851158142,-0.3805690407752991
1761132258480518000,5.015517822265625,-0.6262896060943604,0.5875760316848755,-0.6236934065818787
1761132258490517800,5.025517822265625,-0.6550002694129944,0.5942955017089844,-0.6548475623130798
1761132258500518000,5.035517822265625,-0.5511531829833984,0.6230061650276184,-0.4538728892803192
1761132258510518800,5.045518798828125,-0.31413745880126953,0.6376669406890869,-0.16493362188339233
1761132258520518700,5.0555185546875,-0.059406645596027374,0.5466480255126953,0.16310101747512817
1761132258530518800,5.065518798828125,0.164170041680336,0.3499494194984436,0.6621779203414917
1761132258540518700,5.0755185546875,0.3572034537792206,0.10193813592195511,1.2504411935806274
1761132258550518800,5.085518798828125,0.4628831446170807,0.009086620062589645,1.8307631015777588
1761132258560518700,5.0955185546875,0.4775438904762268,0.1269836127758026,2.3353378772735596
1761132258570518800,5.105518798828125,0.4262312352657318,0.38354700803756714,2.758056640625
1761132258580518700,5.1155185546875,0.3553708493709564,0.5655848383903503,3.053715467453003
1761132258590518800,5.125518798828125,0.3162754774093628,0.6315582990646362,3.2253684997558594
1761132258600518700,5.1355185546875,0.28878653049468994,0.6217844486236572,3.2815680503845215
1761132258610518000,5.14551806640625,0.22831088304519653,0.5112178325653076,3.2082643508911133
1761132258620518000,5.155517822265625,0.11713340878486633,0.30108019709587097,2.9804115295410156
1761132258630518000,5.16551806640625,-0.08628471940755844,0.015195272862911224,2.5314254760742188
1761132258640518000,5.175517822265625,-0.34162637591362,-0.2511419653892517,1.8869627714157104
1761132258650518000,5.18551806640625,-0.6159048676490784,-0.42646029591560364,1.1056660413742065
1761132258660518000,5.195517822265625,-1.0129673480987549,-0.5217552781105042,-0.12889257073402405
1761132258670517800,5.205517822265625,-1.2524265050888062,-0.48632508516311646,-0.8484918475151062
1761132258680518000,5.215517822265625,-1.4436272382736206,-0.36537376046180725,-1.4135421514511108
1761132258690517800,5.225517822265625,-1.525483250617981,-0.1650099754333496,-1.8057177066802979
1761132258700518000,5.235517822265625,-1.439351201057434,0.027412578463554382,-2.0274617671966553
1761132258710518800,5.245518798828125,-1.1699596643447876,0.10010553896427155,-2.062891960144043
1761132258720518700,5.2555185546875,-0.8187121152877808,-0.002519819187000394,-1.9199494123458862
1761132258730518800,5.265518798828125,-0.46563202142715454,-0.24258986115455627,-1.6303993463516235
1761132258740519000,5.275518798828125,-0.16814066469669342,-0.5125923156738281,-1.2657127380371094
1761132258750518800,5.285518798828125,0.05604688450694084,-0.7654905319213867,-0.979827880859375
1761132258760519000,5.295518798828125,0.21120665967464447,-0.9933432340621948,-0.8399397134780884
1761132258770518800,5.305518798828125,0.3266601860523224,-1.1075750589370728,-0.8197811841964722
1761132258780519000,5.315518798828125,0.437226802110672,-1.1142945289611816,-0.8973610401153564
1761132258790518800,5.325518798828125,0.5526803135871887,-1.0251082181930542,-1.0525208711624146
1761132258800519000,5.335518798828125,0.6204863786697388,-0.862618088722229,-1.1905763149261475
1761132258810518000,5.34551806640625,0.6186537742614746,-0.7092909216880798,-1.2767083644866943
1761132258820518000,5.355517822265625,0.585667073726654,-0.568791925907135,-1.3231340646743774
1761132258830518000,5.36551806640625,0.5520694851875305,-0.458836168050766,-1.3658946752548218
1761132258840518000,5.375517822265625,0.4928155243396759,-0.41974079608917236,-1.4471397399902344
1761132258850518000,5.38551806640625,0.43539419770240784,-0.4142429828643799,-1.5558737516403198
1761132258860518000,5.395517822265625,0.46532660722732544,-0.42584943771362305,-1.6322319507598877
1761132258870518000,5.40551806640625,0.5581781268119812,-0.3885866403579712,-1.5711454153060913
1761132258880518000,5.415517822265625,0.7108944058418274,-0.18211419880390167,-1.3103059530258179
1761132258890518000,5.42551806640625,1.0016663074493408,0.27236953377723694,-0.6188064813613892
1761132258900518000,5.435517822265625,1.0865765810012817,0.5044983625411987,0.02382374368607998
1761132258910518800,5.445518798828125,1.0389291048049927,0.7183011770248413,0.636521577835083
1761132258920518700,5.4555185546875,0.8300131559371948,0.7170794606208801,0.9975429177284241
1761132258930518800,5.465518798828125,0.5765040516853333,0.3096323311328888,0.9663888216018677
1761132258940518700,5.4755185546875,0.3321579694747925,-0.4179081916809082,0.5100724697113037
1761132258950518800,5.485518798828125,0.07498370856046677,-1.2266937494277954,-0.16493362188339233
1761132258960518700,5.4955185546875,-0.019089538604021072,-1.6243669986724854,-0.9187413454055786
1761132258970518800,5.505518798828125,0.06154467165470123,-1.5168547630310059,-1.7599027156829834
1761132258980518700,5.5155185546875,0.1537853181362152,-1.0929142236709595,-2.4801127910614014
1761132258990518800,5.525518798828125,0.144622340798378,-0.6518695950508118,-2.492330312728882
1761132259000518700,5.5355185546875,0.11407908797264099,0.0316886343061924,-1.7617353200912476
1761132259010517800,5.545517822265625,0.060322944074869156,0.734183669090271,-0.6890559792518616
1761132259020518000,5.555517822265625,0.03405573591589928,1.0787116289138794,0.22052235901355743
1761132259030517800,5.565517822265625,-0.07467827945947647,1.0426706075668335,0.6927211880683899
1761132259040518000,5.575517822265625,-0.26221391558647156,0.8404742479324341,0.7910705208778381
1761132259050517800,5.585517822265625,-0.48579058051109314,0.6034585237503052,0.6517932415008545
1761132259060518000,5.595517822265625,-0.6672175526618958,0.552756667137146,0.5601634383201599
1761132259070517800,5.605517822265625,-0.7392996549606323,0.7030295133590698,0.7024950385093689
1761132259080518000,5.615517822265625,-0.7160868048667908,0.8325329422950745,1.0445796251296997
1761132259090517800,5.625517822265625,-0.6372851729393005,0.875904381275177,1.5210545063018799
1761132259100518000,5.635517822265625,-0.5658139586448669,0.8642979860305786,2.0323486328125
1761132259110518800,5.645518798828125,-0.5419901609420776,0.7995462417602539,2.487443208694458
1761132259120518700,5.6555185546875,-0.5035057067871094,0.46906813979148865,2.863736152648926
1761132259130518800,5.665518798828125,-0.4931209683418274,0.128205344080925,2.8875601291656494
1761132259140518700,5.6755185546875,-0.5474879741668701,-0.2572506368160248,2.769052267074585
1761132259150518800,5.685518798828125,-0.6690501570701599,-0.6139959096908569,2.5222625732421875
1761132259160518700,5.6955185546875,-0.8229882121086121,-0.8968265652656555,2.166128158569336
1761132259170518800,5.705518798828125,-1.0196868181228638,-1.0293842554092407,1.7482963800430298
1761132259180518700,5.7155185546875,-1.2243266105651855,-0.9224829077720642,1.2626584768295288
1761132259190518800,5.725518798828125,-1.3654365539550781,-0.68241286277771,0.6976081132888794
1761132259200518700,5.7355185546875,-1.5150985717773438,-0.35437819361686707,0.16798794269561768
1761132259210517800,5.745517822265625,-1.679421305656433,0.04879286140203476,-0.21013765037059784
1761132259220518000,5.755517822265625,-1.8522961139678955,0.3090214431285858,-0.46670106053352356
1761132259230517800,5.765517822265625,-2.04960560798645,0.4006512463092804,-0.626747727394104
1761132259240518000,5.775517822265625,-2.245082378387451,0.41775545477867126,-0.6835582256317139
1761132259250517800,5.785517822265625,-2.4246768951416016,0.42752930521965027,-0.6646214127540588
1761132259260518000,5.795517822265625,-2.5663976669311523,0.4403574764728546,-0.5949827432632446
1761132259270517800,5.805517822265625,-2.6219863891601562,0.4800637364387512,-0.504574716091156
1761132259280518000,5.815517822265625,-2.515695810317993,0.5747478604316711,-0.43127086758613586
1761132259290517800,5.825517822265625,-2.2401955127716064,0.705473005771637,-0.38240164518356323
1761132259300518000,5.835517822265625,-1.8822284936904907,0.762283444404602,-0.34574973583221436
1761132259310518800,5.845518798828125,-1.5193746089935303,0.6999751925468445,-0.25473082065582275
1761132259320518700,5.8555185546875,-1.2237157821655273,0.6266713738441467,-0.07330382615327835
1761132259330518800,5.865518798828125,-1.0636690855026245,0.5368741750717163,0.1661553531885147
1761132259340518700,5.8755185546875,-1.0276280641555786,0.3694971203804016,0.3597996234893799
1761132259350518800,5.885518798828125,-1.0141890048980713,-0.06299547851085663,0.44287729263305664
1761132259360518700,5.8955185546875,-0.9231700897216797,-0.4936554729938507,0.32559117674827576
1761132259370518800,5.905518798828125,-0.745408296585083,-0.8497899174690247,0.07208210229873657
1761132259380518700,5.9155185546875,-0.37522396445274353,-0.8467355966567993,-0.2119702398777008
1761132259390518800,5.925518798828125,0.22098049521446228,-0.6695846915245056,-0.4697553813457489
1761132259400518700,5.9355185546875,0.9515753388404846,-0.68241286277771,-0.694553792476654
1761132259410517800,5.945517822265625,1.6100881099700928,-1.0104475021362305,-0.8827002644538879
1761132259420518000,5.955517822265625,2.0835087299346924,-1.5638914108276367,-0.979216992855072
1761132259430517800,5.965517822265625,2.3547327518463135,-1.888871669769287,-0.8955284357070923
1761132259440518000,5.975517822265625,2.428647518157959,-1.5907694101333618,-0.616973876953125
1761132259450517800,5.985517822265625,2.326022148132324,-0.5272530913352966,-0.1667662113904953
1761132259460518000,5.995517822265625,2.093282461166382,0.6596581339836121,0.0659734457731247
1761132259470517800,6.005517822265625,1.8354973793029785,1.0884854793548584,-0.39156460762023926
1761132259480518000,6.015517822265625,1.527010440826416,0.8679631352424622,-1.46424400806427
1761132259490517800,6.025517822265625,1.067639708518982,0.4507421851158142,-2.68230938911438
1761132259500518000,6.035517822265625,0.5300782918930054,0.0035888333804905415,-3.7702603340148926
1761132259510518500,6.0455185546875,0.02122756652534008,-0.3977496325969696,-4.693277835845947
1761132259520518700,6.0555185546875,-0.2695443034172058,-0.30489811301231384,-5.359731674194336
1761132259530518800,6.065518798828125,-0.35811975598335266,0.7366271018981934,-5.428759574890137
1761132259540518700,6.0755185546875,-0.21273382008075714,2.318157196044922,-4.712825298309326
1761132259550518800,6.085518798828125,0.16111570596694946,3.2069661617279053,-3.4019086360931396
1761132259560518700,6.0955185546875,0.5099197626113892,2.9754481315612793,-1.7617353200912476
1761132259570518800,6.105518798828125,0.6210972666740417,2.1727712154388428,-0.251676470041275
1761132259580518700,6.1155185546875,0.5691736936569214,0.9290496706962585,0.7849618196487427
1761132259590518800,6.125518798828125,0.43417248129844666,0.7494552731513977,1.1954632997512817
1761132259600518700,6.1355185546875,0.4616613984107971,0.9858601689338684,0.8350527882575989
1761132259610518000,6.14551806640625,0.5416847467422485,1.3633748292922974,0.4086688458919525
1761132259620518000,6.155517822265625,0.68951416015625,1.7665458917617798,0.28588494658470154
1761132259630518000,6.16551806640625,0.7854200005531311,1.987679123878479,0.4190535545349121
1761132259640518000,6.175517822265625,0.8104654550552368,1.881388545036316,0.7275404930114746
1761132259650517800,6.185517822265625,0.8281805515289307,1.4812718629837036,1.1093312501907349
1761132259660518000,6.195517822265625,0.811687171459198,1.181947946548462,1.4624114036560059
1761132259670517800,6.205517822265625,0.8495608568191528,0.9272170662879944,1.6725490093231201
1761132259680518000,6.215517822265625,0.9527970552444458,0.695699155330658,1.6994271278381348
1761132259690517800,6.225517822265625,1.0908526182174683,0.5008331537246704,1.6126842498779297
1761132259700518000,6.235517822265625,1.2405146360397339,0.3358995318412781,1.436144232749939
1761132259710518800,6.245518798828125,1.363909363746643,0.12942707538604736,1.1270463466644287
1761132259720518700,6.2555185546875,1.3413074016571045,-0.03611740842461586,0.7440338730812073
1761132259730518800,6.265518798828125,1.1171197891235352,-0.09903652966022491,0.3793473243713379
1761132259740518700,6.2755185546875,0.7542658448219299,-0.09292787313461304,0.04948008432984352
1761132259750518800,6.285518798828125,0.36453384160995483,-0.09598220139741898,-0.25961771607398987
1761132259760518700,6.2955185546875,0.07559457421302795,-0.11064296960830688,-0.5424483418464661
1761132259770518800,6.305518798828125,-0.098502017557621,-0.084375761449337,-0.7819074988365173
1761132259780518700,6.3155185546875,-0.16752979159355164,-0.11186470091342926,-0.9639453291893005
1761132259790518800,6.325518798828125,-0.168751522898674,-0.2358703464269638,-1.0464121103286743
1761132259800518700,6.3355185546875,-0.11621711403131485,-0.3281109929084778,-0.9755517840385437
1761132259810517800,6.345517822265625,-0.03130684420466423,-0.40630173683166504,-0.7715228199958801
1761132259820518000,6.355517822265625,0.07437284290790558,-0.5541311502456665,-0.37079519033432007
1761132259830517800,6.365517822265625,0.12018773704767227,-0.6781367659568787,-0.19425514340400696
1761132259840518000,6.375517822265625,0.08536841720342636,-0.690964937210083,-0.13072516024112701
1761132259850517800,6.385517822265625,0.0029016099870204926,-0.6653085947036743,-0.1612684279680252
1761132259860518000,6.395517822265625,-0.06979135423898697,-0.6677520871162415,-0.27488934993743896
1761132259870517800,6.405517822265625,-0.13271047174930573,-0.5431355834007263,-0.4105014503002167
1761132259880518000,6.415517822265625,-0.11499538272619247,-0.3336087763309479,-0.5448917746543884
1761132259890517800,6.425517822265625,0.0065668015740811825,-0.2309834212064743,-0.675616979598999
1761132259900518000,6.435517822265625,0.1745547503232956,-0.2462550550699234,-0.769079327583313
1761132259910518500,6.4455185546875,0.32360586524009705,-0.30428725481033325,-0.8100073337554932
1761132259920518700,6.4555185546875,0.39813143014907837,-0.4142429828643799,-0.779464066028595
1761132259930518500,6.4655185546875,0.3675881624221802,-0.32994359731674194,-0.513126790523529
1761132259940518700,6.4755185546875,0.30711251497268677,-0.1356884390115738,-0.08735372871160507
1761132259950518500,6.4855185546875,0.27840182185173035,0.1734093725681305,0.3335324227809906
1761132259960518700,6.4955185546875,0.3926336467266083,0.330401748418808,0.46242499351501465
1761132259970518500,6.5055185546875,0.6479753255844116,0.34322991967201233,0.14416420459747314
1761132259980518700,6.5155185546875,0.801913321018219,0.1123228445649147,-0.617584764957428
1761132259990518500,6.5255185546875,0.6461427211761475,-0.6946301460266113,-1.5015068054199219
1761132260000518700,6.5355185546875,0.4769330322742462,-1.8222874402999878,-1.7342463731765747
1761132260010517800,6.545517822265625,0.4983133375644684,-2.602973222732544,-0.9590584635734558
1761132260020518000,6.555517822265625,0.566119372844696,-2.827160596847534,0.5619960427284241
1761132260030517800,6.565517822265625,0.5722280144691467,-2.4337635040283203,2.1765129566192627
1761132260040518000,6.575517822265625,0.5642867684364319,-1.7025578022003174,3.3768630027770996
1761132260050517800,6.585517822265625,0.4384485185146332,-0.29390254616737366,3.701232433319092
1761132260060518000,6.595517822265625,0.28328874707221985,0.43424883484840393,3.0726521015167236
1761132260070517800,6.605517822265625,0.09453139454126358,0.8074874877929688,2.1093177795410156
1761132260080518000,6.615517822265625,-0.1186605766415596,0.9223301410675049,1.1020009517669678
1761132260090517800,6.625517822265625,-0.2597704529762268,0.8233699798583984,0.20952677726745605
1761132260100518000,6.635517822265625,-0.2548835277557373,0.5973498225212097,-0.5241223573684692
1761132260110518800,6.645518798828125,-0.08750644326210022,0.5356524586677551,-1.0396926403045654
1761132260120519000,6.655518798828125,0.1892155110836029,0.6737080216407776,-1.4489723443984985
1761132260130518800,6.665518798828125,0.32849279046058655,1.0267881155014038,-1.8106045722961426
1761132260140519000,6.675518798828125,0.23319780826568604,1.50448477268219,-2.0341813564300537
1761132260150518800,6.685518798828125,0.0529925599694252,1.7775415182113647,-2.0451767444610596
1761132260160518700,6.6955185546875,-0.06551529467105865,1.7115681171417236,-1.7941112518310547
1761132260170518800,6.705518798828125,-0.06429356336593628,1.3517683744430542,-1.2638801336288452
1761132260180519000,6.715518798828125,0.019394971430301666,0.7121925354003906,-0.5528330206871033
1761132260190518800,6.725518798828125,0.09025534242391586,-0.06360634416341782,0.25961771607398987
1761132260200519000,6.735518798828125,0.11652254313230515,-0.7288386225700378,1.0592403411865234
1761132260210518000,6.74551806640625,0.07254024595022202,-1.2938889265060425,1.6029103994369507
1761132260220518000,6.755517822265625,-0.04535674303770065,-1.6659058332443237,1.7458528280258179
1761132260230518000,6.76551806640625,-0.1693623960018158,-1.6866753101348877,1.5473216772079468
1761132260240518000,6.775517822265625,-0.33368512988090515,-1.2609021663665771,1.1832460165023804
1761132260250518000,6.78551806640625,-0.5212207436561584,-0.5095379948616028,0.778853178024292
1761132260260518000,6.795517822265625,-0.6055201888084412,0.1929570585489273,0.4178318381309509
1761132260270518000,6.80551806640625,-0.5401576161384583,0.6932557225227356,0.14966198801994324
1761132260280518000,6.815517822265625,-0.30863967537879944,0.9815840721130371,-0.031154127791523933
1761132260290518000,6.82551806640625,-0.17302757501602173,0.8398633599281311,-0.036651913076639175
1761132260300518000,6.835517822265625,-0.11010845750570297,0.5277112126350403,-0.039706241339445114
1761132260310518500,6.8455185546875,-0.13148874044418335,0.18745927512645721,-0.04886921867728233
1761132260320518700,6.8555185546875,-0.20601430535316467,-0.07826711237430573,-0.04948008432984352
1761132260330518500,6.8655185546875,-0.289702832698822,-0.2114357352256775,-0.018325956538319588
1761132260340518700,6.8755185546875,-0.31841349601745605,-0.23220515251159668,0.01160643994808197
1761132260350518800,6.885518798828125,-0.2860376536846161,-0.07643451541662216,0.00366519158706069
1761132260360518700,6.8955185546875,-0.17547103762626648,0.10499246418476105,-0.0910189226269722
1761132260370518800,6.905518798828125,0.007177666760981083,0.20639608800411224,-0.23457226157188416
1761132260380518700,6.9155185546875,0.18066339194774628,0.2137264758348465,-0.3683517575263977
1761132260390518800,6.925518798828125,0.2961169183254242,0.208839550614357,-0.4147774875164032
1761132260400518700,6.9355185546875,0.36392298340797424,0.25526532530784607,-0.3188716471195221
1761132260410518000,6.94551806640625,0.37980547547340393,0.208839550614357,-0.16493362188339233
1761132260420518000,6.955517822265625,0.3572034537792206,0.04329507425427437,-0.07757988572120667
1761132260430518000,6.96551806640625,0.3052799105644226,-0.15829046070575714,-0.09040805697441101
1761132260440518000,6.975517822265625,0.25335636734962463,-0.3366630971431732,-0.16065755486488342
1761132260450518000,6.98551806640625,0.23197607696056366,-0.3928627073764801,-0.18448130786418915
1761132260460518000,6.995517822265625,0.3510948121547699,-0.10331258177757263,0.025045474991202354
1761132260470517800,7.005517822265625,0.6430884003639221,0.39820778369903564,0.39584067463874817
1761132260480518000,7.015517822265625,1.0157161951065063,0.9137780666351318,0.675616979598999
1761132260490517800,7.025517822265625,1.3975069522857666,1.3884203433990479,0.7751879692077637
1761132260500518000,7.035517822265625,1.6198619604110718,1.5625169277191162,0.5772676467895508
1761132260510518800,7.045518798828125,1.4439327716827393,0.9681450724601746,-0.3903428912162781
1761132260520518700,7.0555185546875,0.9625709056854248,-0.6604216694831848,-1.2357803583145142
1761132260530518800,7.065518798828125,0.37980547547340393,-2.8638126850128174,-2.004248857498169
1761132260540518700,7.0755185546875,0.025503624230623245,-4.701295375823975,-2.56868839263916
1761132260550518800,7.085518798828125,0.0328340083360672,-5.263902187347412,-2.814256191253662
1761132260560518700,7.0955185546875,0.3425426781177521,-4.152127265930176,-2.716517686843872
1761132260570519300,7.105519287109375,0.708450973033905,-1.7666985988616943,-2.4605650901794434
1761132260580519200,7.115519287109375,0.7841982841491699,0.544204592704773,-2.163073778152466
1761132260590519300,7.125519287109375,0.5697845816612244,1.8484019041061401,-1.7715091705322266
1761132260600519200,7.135519287109375,0.23258693516254425,2.223473072052002,-1.4245377779006958
1761132260610518500,7.1455185546875,-0.04963280260562897,1.9052122831344604,-1.2479976415634155
1761132260620518400,7.155518310546875,-0.23350323736667633,1.31511652469635,-1.2773191928863525
1761132260630518500,7.1655185546875,-0.38377609848976135,0.8270351886749268,-1.444696307182312
1761132260640518400,7.175518310546875,-0.5878050923347473,0.4415792226791382,-1.595579981803894
1761132260650518500,7.1855185546875,-0.7973318696022034,0.2992476224899292,-1.2205088138580322
1761132260660518400,7.195518310546875,-0.965319812297821,0.42936190962791443,-0.3481931984424591
1761132260670518300,7.205518310546875,-1.1027644872665405,0.5069417953491211,0.5619960427284241
1761132260680518400,7.215518310546875,-1.204779028892517,0.3352886736392975,1.2577714920043945
1761132260690518300,7.225518310546875,-1.2072224617004395,-0.04161519557237625,1.7073683738708496
1761132260700518400,7.235518310546875,-1.1693488359451294,-0.46189048886299133,1.9559905529022217
1761132260710519000,7.24551904296875,-1.1498011350631714,-0.9023243188858032,2.1423044204711914
1761132260720519200,7.255519287109375,-1.1693488359451294,-1.2890020608901978,2.2009475231170654
1761132260730519300,7.265519287109375,-1.222494125366211,-1.6103171110153198,2.1679606437683105
1761132260740519200,7.275519287109375,-1.4191926717758179,-1.9682841300964355,2.1813998222351074
1761132260750519300,7.285519287109375,-1.6000088453292847,-2.0263164043426514,2.230268955230713
1761132260760519200,7.295519287109375,-1.7637206315994263,-1.8644371032714844,2.2766947746276855
1761132260770519300,7.305519287109375,-1.8950567245483398,-1.5809955596923828,2.230879783630371
1761132260780519200,7.315519287109375,-2.0001256465911865,-1.1692724227905273,2.0225749015808105
1761132260800519200,7.335519287109375,-2.105194330215454,0.09277515858411789,1.0305296182632446
1761132260810518300,7.345518310546875,-2.116189956665039,0.8227591514587402,0.40072759985923767
1761132260820518400,7.355518310546875,-2.0563251972198486,1.400026798248291,-0.1160643994808197
1761132260830518300,7.365518310546875,-1.9439259767532349,1.790980577468872,-0.4392121136188507
1761132260840518100,7.37551806640625,-1.7600555419921875,1.9779052734375,-0.5791002511978149
1761132260850518300,7.385518310546875,-1.477835774421692,1.881388545036316,-0.5864306092262268
1761132260860518400,7.395518310546875,-1.1192578077316284,1.5399149656295776,-0.48380526900291443
1761132260870517800,7.405517822265625,-0.7295258045196533,1.1440742015838623,-0.252287358045578
1761132260880518000,7.415517822265625,-0.3721696436405182,0.725020706653595,0.06780604273080826
1761132260890517800,7.425517822265625,-0.1088867336511612,0.3646101951599121,0.41722095012664795
1761132260900517600,7.435517578125,0.046273041516542435,0.20578522980213165,0.7293730974197388
1761132260910518500,7.4455185546875,0.12568552792072296,0.137979194521904,0.9126327037811279
1761132260920518700,7.4555185546875,0.13607023656368256,0.14347697794437408,0.912021815776825
1761132260930518500,7.4655185546875,0.12629638612270355,0.10193813592195511,0.6279694437980652
1761132260940518700,7.4755185546875,0.13179416954517365,0.05245805159211159,0.11850785464048386
1761132260950518800,7.485518798828125,0.20754146575927734,0.09888381510972977,-0.45814892649650574
1761132260960518700,7.4955185546875,0.35292738676071167,0.14653129875659943,-1.018923282623291
1761132260970518500,7.5055185546875,0.6217080950737,0.11293371021747589,-1.5900822877883911
1761132260980518700,7.5155185546875,0.8385652899742126,0.0029779679607599974,-1.7201964855194092
1761132260990518800,7.525518798828125,1.0590876340866089,-0.0697149932384491,-1.6200146675109863
1761132261000518700,7.5355185546875,1.268614411354065,0.12942707538604736,-1.2150110006332397
1761132261010517800,7.545517822265625,1.4555391073226929,0.6181192994117737,-0.5632177591323853
1761132261020518000,7.555517822265625,1.6223053932189941,0.9614255428314209,0.04092797264456749
1761132261030517800,7.565517822265625,1.715767741203308,0.7506770491600037,0.3182607889175415
1761132261040518000,7.575517822265625,1.7854063510894775,0.1581377387046814,0.26633724570274353
1761132261050517800,7.585517822265625,1.8550450801849365,-0.4576144218444824,-0.029932396486401558
1761132261060518000,7.595517822265625,1.7744108438491821,-0.9963975548744202,-0.4801400899887085
1761132261070517800,7.605517822265625,1.5563318729400635,-1.5638914108276367,-1.014647126197815
1761132261080518000,7.615517822265625,1.3028228282928467,-1.9420169591903687,-1.567480206489563
1761132261090517800,7.625517822265625,1.0138835906982422,-1.8167896270751953,-2.1154263019561768
1761132261100518000,7.635517822265625,0.6779077053070068,-1.0281625986099243,-2.6120598316192627
1761132261110518800,7.645518798828125,0.266184538602829,0.7030295133590698,-2.7317893505096436
1761132261120518700,7.6555185546875,-0.08200865983963013,2.709721803665161,-2.378709316253662
1761132261130518800,7.665518798828125,-0.3104722499847412,3.8648681640625,-1.976149082183838
1761132261140518700,7.6755185546875,-0.49067750573158264,3.9949822425842285,-1.758681058883667
1761132261150518800,7.685518798828125,-0.60429847240448,3.451923131942749,-1.7116444110870361
1761132261160518700,7.6955185546875,-0.765566885471344,2.4629323482513428,-1.8307631015777588
1761132261170518800,7.705518798828125,-0.8865181803703308,1.341383695602417,-1.8209892511367798
1761132261180518700,7.7155185546875,-0.73685622215271,0.6578255295753479,-1.444696307182312
1761132261190518800,7.725518798828125,-0.38866302371025085,0.31757357716560364,-0.788016140460968
1761132261200518700,7.7355185546875,0.031001411378383636,0.24610233306884766,0.05253441259264946
1761132261210517800,7.745517822265625,0.5349652171134949,0.40370556712150574,1.2767083644866943
1761132261220518000,7.755517822265625,0.8764389157295227,0.33162346482276917,1.919338583946228
1761132261230517800,7.765517822265625,1.1635456085205078,0.04207334294915199,2.378098487854004
1761132261240518000,7.775517822265625,1.2533427476882935,-0.28473955392837524,2.696359157562256
1761132261250517800,7.785517822265625,1.1665998697280884,-0.5278639197349548,2.888781785964966
1761132261260518000,7.795517822265625,1.0297660827636719,-0.5755113959312439,2.94742488861084
1761132261270517800,7.805517822265625,0.8788823485374451,-0.3739258944988251,2.8454103469848633
1761132261280518000,7.815517822265625,0.6901249885559082,-0.026343563571572304,2.571131706237793
1761132261290517800,7.825517822265625,0.41340306401252747,0.26748260855674744,2.12703275680542
1761132261300518000,7.835517822265625,0.06643159687519073,0.45440739393234253,1.5522085428237915
1761132261310518500,7.8455185546875,-0.28420504927635193,0.5417611002922058,0.8875871896743774
1761132261320518700,7.8555185546875,-0.6507241725921631,0.47762027382850647,0.21502456068992615
1761132261330518500,7.8655185546875,-1.0673342943191528,0.40309470891952515,-0.37629300355911255
1761132261340518700,7.8755185546875,-1.485166072845459,0.3701079785823822,-0.9065240025520325
1761132261350518800,7.885518798828125,-1.851074457168579,0.29252809286117554,-1.387274980545044
1761132261360518700,7.8955185546875,-2.0532708168029785,0.14408783614635468,-1.7165313959121704
1761132261370518500,7.9055185546875,-1.9946277141571045,0.05429064854979515,-1.814880609512329
1761132261380518400,7.915518310546875,-1.6977472305297852,0.0011453722836449742,-1.6865988969802856
1761132261390518500,7.9255185546875,-1.2457069158554077,-0.0849866271018982,-1.361007809638977
1761132261400518400,7.935518310546875,-0.717308521270752,-0.26885706186294556,-0.9071348905563354
1761132261410517500,7.945517578125,-0.21639901399612427,-0.5529094338417053,-0.4331034719944
1761132261420517600,7.955517578125,0.1849394589662552,-0.8565094470977783,-0.03420845419168472
1761132261430517500,7.965517578125,0.5007568001747131,-1.128955364227295,0.2168571650981903
1761132261440517600,7.975517578125,0.8831584453582764,-1.3525320291519165,0.28466320037841797
1761132261450517500,7.985517578125,1.057865858078003,-1.3054953813552856,0.18631389737129211
1761132261460517600,7.995517578125,1.1220067739486694,-1.0422124862670898,0.025656340643763542
1761132261470517500,8.005517578125,1.1036807298660278,-0.7514405846595764,-0.19364428520202637
1761132261480517600,8.015517578125,1.0273226499557495,-0.538859486579895,-0.4746423065662384
1761132261490517500,8.025517578125,0.9393580555915833,-0.3824779987335205,-0.7751879692077637
1761132261500517600,8.035517578125,0.879493236541748,-0.3867540657520294,-1.0403034687042236
1761132261510518500,8.0455185546875,0.8654433488845825,-0.4796055853366852,-1.141707181930542
1761132261520518400,8.055518310546875,0.9271407127380371,-0.558407187461853,-1.0152580738067627
1761132261530518500,8.0655185546875,1.069472312927246,-0.6262132525444031,-0.7049384713172913
1761132261540518400,8.075518310546874,1.2362385988235474,-0.6402631402015686,-0.24984388053417206
1761132261550518500,8.0855185546875,1.3852896690368652,-0.6317110061645508,0.2736676335334778
1761132261560518400,8.095518310546876,1.4640913009643555,-0.8455138802528381,0.7104362845420837
1761132261570518500,8.1055185546875,1.3840678930282593,-1.3720797300338745,1.0115928649902344
1761132261580518400,8.115518310546875,1.0603092908859253,-2.2327888011932373,1.141707181930542
1761132261590518500,8.1255185546875,0.5593998432159424,-3.164358377456665,1.014647126197815
1761132261600518400,8.135518310546875,0.06520986557006836,-3.6005160808563232,0.4300491213798523
1761132261610517800,8.145517822265624,-0.44180828332901,-3.161303997039795,-0.7672467231750488
1761132261620517600,8.155517578125,-0.9769262671470642,-1.9695059061050415,-2.314568519592285
1761132261630517800,8.165517822265626,-1.417970895767212,-0.7862599492073059,-3.905261516571045
1761132261640517600,8.175517578125,-1.2066116333007812,-0.20777054131031036,-4.8838677406311035
1761132261650517800,8.185517822265625,0.01572977937757969,0.02557998150587082,-4.430605411529541
1761132261660517600,8.195517578125,1.3865114450454712,-0.0697149932384491,-2.624277114868164
1761132261670517800,8.205517822265625,2.1061105728149414,-1.3690253496170044,1.1722503900527954
1761132261680518000,8.215517822265625,1.7108808755874634,-2.380007266998291,3.1312952041625977
1761132261690517800,8.225517822265624,1.0273226499557495,-2.731865644454956,4.10867977142334
1761132261700518000,8.235517822265624,0.34804046154022217,-2.167426347732544,4.059199333190918
1761132261710518800,8.245518798828124,-0.2964223623275757,-1.3445907831192017,3.123353958129883
1761132261720518700,8.2555185546875,-0.8559749126434326,-0.38980838656425476,1.7482963800430298
1761132261730518800,8.265518798828126,-1.2805262804031372,0.6059019565582275,0.48197266459465027
1761132261740518700,8.2755185546875,-1.5248724222183228,1.458669900894165,-0.22113321721553802
1761132261750518800,8.285518798828125,-1.5847371816635132,1.9546924829483032,-0.2382374405860901
1761132261760518700,8.2955185546875,-1.4332425594329834,1.9711858034133911,0.24068090319633484
1761132261770518800,8.305518798828125,-1.1467467546463013,1.6718617677688599,0.96883225440979
1761132261780518700,8.3155185546875,-0.8199338912963867,1.3114513158798218,1.737911581993103
1761132261790518800,8.325518798828124,-0.46990808844566345,0.9821949601173401,2.394591808319092
1761132261800518700,8.3355185546875,-0.13454307615756989,0.7005860805511475,2.8741209506988525
1761132261810518000,8.34551806640625,0.1134682223200798,0.5277112126350403,3.1612277030944824
1761132261820518000,8.355517822265625,0.29794952273368835,0.4464661478996277,3.246137857437134
1761132261830518000,8.36551806640625,0.4366159439086914,0.41897720098495483,3.1386256217956543
1761132261840518000,8.375517822265625,0.5093088746070862,0.44341179728507996,2.841745138168335
1761132261850518000,8.38551806640625,0.508698046207428,0.4763985276222229,2.425745964050293
1761132261860518000,8.395517822265624,0.42378777265548706,0.4373031556606293,1.8863518238067627
1761132261870518000,8.40551806640625,0.27718010544776917,0.38354700803756714,1.2162326574325562
1761132261880518000,8.415517822265626,0.12202033400535583,0.3407864570617676,0.4447098970413208
1761132261890518000,8.42551806640625,-0.04963280260562897,0.3383429944515228,-0.32070425152778625
1761132261900518000,8.435517822265625,-0.3116939961910248,0.47823113203048706,-1.2614367008209229
1761132261910518800,8.445518798828125,-0.4179845452308655,0.5832999348640442,-1.6591099500656128
1761132261920518700,8.4555185546875,-0.40393465757369995,0.6468299627304077,-1.8515325784683228
1761132261930518800,8.465518798828125,-0.25366178154945374,0.6639341711997986,-1.8613064289093018
1761132261940518700,8.4755185546875,-0.009926560334861279,0.6352235078811646,-1.7024813890457153
1761132261950518800,8.485518798828124,0.24174992740154266,0.45379650592803955,-1.4233160018920898
1761132261960518700,8.4955185546875,0.39874228835105896,0.20945042371749878,-1.062294602394104
1761132261970518800,8.505518798828126,0.4476115107536316,-0.04528038576245308,-0.7318165898323059
1761132261980518700,8.5155185546875,0.4079052805900574,-0.316504567861557,-0.5687155723571777
1761132261990518800,8.525518798828125,0.31749722361564636,-0.5657375454902649,-0.6157521605491638
1761132262000518700,8.5355185546875,0.3376557528972626,-0.6176611185073853,-0.7654141783714294
1761132262010518000,8.54551806640625,0.575893223285675,-0.41974079608917236,-0.940732479095459
1761132262020518000,8.555517822265625,0.9558513760566711,-0.2157117873430252,-1.0812314748764038
1761132262030517800,8.565517822265624,1.354135513305664,-0.17905987799167633,-1.1056660413742065
1761132262040518000,8.575517822265626,1.6852245330810547,-0.368428111076355,-0.9957103729248047
1761132262050518000,8.58551806640625,1.9057468175888062,-0.7648796439170837,-0.7959573864936829
1761132262060518000,8.595517822265625,1.980883240699768,-1.282893419265747,-0.5797111392021179
1761132262070517800,8.605517822265625,1.9851592779159546,-1.7404314279556274,-0.4508185386657715
1761132262080518000,8.615517822265625,2.01814603805542,-1.822898268699646,-0.40683624148368835
1761132262090517800,8.625517822265625,2.1458168029785156,-1.4753159284591675,-0.3744603991508484
1761132262100518000,8.635517822265625,2.2728769779205322,-0.5730679631233215,-0.251676470041275
1761132262110518800,8.645518798828125,2.1653645038604736,0.7500661611557007,-0.08429940044879913
1761132262120518700,8.6555185546875,1.811673641204834,2.0414352416992188,0.009162978269159794
1761132262130518800,8.665518798828124,1.2820534706115723,2.4000132083892822,-0.3634648323059082
1761132262140518700,8.6755185546875,0.993114173412323,1.522810697555542,-0.9682214260101318
1761132262150518800,8.685518798828125,0.8306240439414978,0.3249039649963379,-1.5192219018936157
1761132262160518700,8.6955185546875,0.8428413271903992,-0.7722100019454956,-1.7623462677001953
1761132262170518800,8.705518798828125,0.8611672520637512,-1.8436676263809204,-1.9022343158721924
1761132262180518700,8.7155185546875,0.7591527700424194,-2.3983333110809326,-1.712866187095642
1761132262190518800,8.725518798828125,0.3926336467266083,-1.6384168863296509,-0.988990843296051
1761132262200518700,8.7355185546875,-0.15714508295059204,0.20089830458164215,-0.07147123664617538
1761132262210517800,8.745517822265626,-0.5395467281341553,1.825799822807312,0.513737678527832
1761132262220518000,8.755517822265626,-0.6501133441925049,2.4739279747009277,0.6615670323371887
1761132262230517800,8.765517822265625,-0.5151121020317078,2.335261583328247,0.5998696684837341
1761132262240518000,8.775517822265625,-0.32879820466041565,1.6315447092056274,0.5803219676017761
1761132262250517800,8.785517822265625,-0.2664899528026581,0.7470118403434753,0.7819074988365173
1761132262260518000,8.795517822265625,-0.3654501438140869,0.009697485715150833,1.1252137422561646
1761132262270517800,8.805517822265625,-0.6195700764656067,-0.2725222706794739,1.5051720142364502
1761132262280518000,8.815517822265624,-0.898124635219574,-0.13874277472496033,1.7580702304840088
1761132262290517800,8.825517822265626,-1.118036150932312,0.19051359593868256,1.8411478996276855
1761132262300518000,8.835517822265626,-1.2078332901000977,0.5949063897132874,1.8955148458480835
1761132262310518500,8.8455185546875,-1.1302534341812134,0.866130530834198,2.0036380290985107
1761132262320518700,8.8555185546875,-0.9610437750816345,0.857578456401825,2.1514673233032227
1761132262330518500,8.8655185546875,-0.7564038634300232,0.5411502718925476,2.2962424755096436
1761132262340518700,8.8755185546875,-0.5560401082038879,-0.00618501054123044,2.3713788986206055
1761132262350518500,8.8855185546875,-0.4356996417045593,-0.6133850812911987,2.3298399448394775
1761132262360518700,8.8955185546875,-0.4735732674598694,-1.2156982421875,2.0476202964782715
1761132262370518800,8.905518798828124,-0.5963571667671204,-1.2554044723510742,1.7788395881652832
1761132262380518700,8.9155185546875,-0.7594582438468933,-1.0257190465927124,1.5027284622192383
1761132262390518800,8.925518798828126,-0.9329439401626587,-0.6158285140991211,1.1911872625350952
1761132262400518700,8.9355185546875,-1.087492823600769,-0.16256651282310486,0.846659243106842
1761132262410517800,8.945517822265625,-1.1882855892181396,0.18135061860084534,0.5167919993400574
1761132262420517600,8.955517578125,-1.2261592149734497,0.27603474259376526,0.242513507604599
1761132262430517800,8.965517822265625,-1.2365440130233765,0.1886810064315796,0.025045474991202354
1761132262440517600,8.975517578125,-1.2286027669906616,0.02252565510571003,-0.1215621829032898
1761132262450517800,8.985517822265624,-1.202946424484253,-0.14912748336791992,-0.1771509200334549
1761132262460517600,8.995517578125,-1.1809552907943726,-0.2651918828487396,-0.17959438264369965
1761132262470517800,9.005517822265626,-1.1785117387771606,-0.26824620366096497,-0.15332718193531036
1761132262480517600,9.015517578125,-1.1730140447616577,-0.1863902509212494,-0.12461651116609573
1761132262490517800,9.025517822265625,-1.147357702255249,-0.055665094405412674,-0.12950342893600464
1761132262500517600,9.035517578125,-1.0942124128341675,0.08849909901618958,-0.19486601650714874
1761132262510518500,9.0455185546875,-1.011745572090149,0.22288945317268372,-0.31031954288482666
1761132262520518700,9.0555185546875,-0.887739896774292,0.30718886852264404,-0.4434881806373596
1761132262530518500,9.0655185546875,-0.7295258045196533,0.34689509868621826,-0.5632177591323853
1761132262540518700,9.0755185546875,-0.5487096905708313,0.36277759075164795,-0.6591235995292664
1761132262550518500,9.0855185546875,-0.370947927236557,0.3548363447189331,-0.7165449261665344
1761132262560518700,9.0955185546875,-0.22067506611347198,0.31696268916130066,-0.7336491346359253
1761132262570518500,9.1055185546875,-0.10216721147298813,0.23571762442588806,-0.7257078886032104
1761132262580518700,9.1155185546875,-0.003817907767370343,0.16180293262004852,-0.7159340381622314
1761132262590518500,9.1255185546875,0.10491610318422318,0.17585283517837524,-0.7043276429176331
1761132262600518700,9.1355185546875,0.1592831164598465,0.27053695917129517,-0.6389650702476501
1761132262610517800,9.145517822265624,0.2399173229932785,0.8429176807403564,-0.31520646810531616
1761132262620518000,9.155517822265624,0.3168863356113434,1.4953217506408691,0.19792033731937408
1761132262630517800,9.165517822265626,0.43967026472091675,2.1770474910736084,0.769690215587616
1761132262640518000,9.175517822265626,0.6443101167678833,2.666961193084717,1.2082914113998413
1761132262650517800,9.185517822265625,0.8281805515289307,2.5600597858428955,1.377501130104065
1761132262660518000,9.195517822265625,0.8269588351249695,1.948583722114563,1.2107349634170532
1761132262670517800,9.205517822265625,0.6009386777877808,0.9003390073776245,0.750142514705658
1761132262680518000,9.215517822265625,0.25641068816185,-0.68241286277771,0.05619960278272629
1761132262690517800,9.225517822265624,-0.09056077152490616,-2.005547046661377,-0.6872233748435974
1761132262700518000,9.235517822265624,-0.3104722499847412,-2.3757312297821045,-1.2620476484298706
1761132262710518800,9.245518798828124,-0.4069889783859253,-1.4826463460922241,-1.5473216772079468
1761132262720518700,9.2555185546875,-0.46929723024368286,0.07506006956100464,-1.5625933408737183
1761132262730518800,9.265518798828126,-0.5621487498283386,1.2247084379196167,-1.3927727937698364
1761132262740518700,9.2755185546875,-0.6097962260246277,1.8569539785385132,-0.9676105380058289
1761132262750518800,9.285518798828125,-0.5175555944442749,1.8710038661956787,-0.5082398653030396
1761132262760518700,9.2955185546875,-0.3520110845565796,1.3279446363449097,-0.2590068578720093
1761132262770518800,9.305518798828125,-0.27259862422943115,0.725020706653595,-0.3286454975605011
1761132262780518700,9.3155185546875,-0.28725937008857727,0.2289981096982956,-0.694553792476654
1761132262790518800,9.325518798828124,-0.3605632185935974,-0.11858421564102173,-1.1362093687057495
1761132262800518700,9.3355185546875,-0.422871470451355,-0.19372063875198364,-1.313360333442688
1761132262810517800,9.345517822265625,-0.42042800784111023,-0.09353873878717422,-1.2473868131637573
1761132262820518000,9.355517822265625,-0.3923282027244568,0.4354705512523651,-1.19607412815094
1761132262830517800,9.365517822265625,-0.27320948243141174,0.3811035454273224,-1.169806957244873
1761132262840518000,9.375517822265625,-0.24877487123012543,0.25221097469329834,-1.0946705341339111
1761132262850517800,9.385517822265625,-0.28359419107437134,-0.05016730725765228,-0.9517280459403992
1761132262860518000,9.395517822265624,-0.35445454716682434,-0.449062317609787,-0.7568620443344116
1761132262870517800,9.405517822265624,-0.5285511612892151,-0.9249263405799866,-0.5760459303855896
1761132262880518000,9.415517822265626,-0.6934847831726074,-1.2560153007507324,-0.33108896017074585
1761132262890517800,9.425517822265626,-0.956156849861145,-1.367803692817688,-0.05192354694008827
1761132262900518000,9.435517822265625,-1.1516337394714355,-1.1882092952728271,0.25106561183929443
1761132262910518500,9.4455185546875,-1.185231328010559,-0.8901070356369019,0.5112941861152649
1761132262920518700,9.4555185546875,-1.0960450172424316,-0.5858961343765259,0.7330383062362671
1761132262930518800,9.465518798828125,-0.9897544384002686,-0.24992024898529053,0.9920451641082764
1761132262940518700,9.4755185546875,-0.8626944422721863,0.07017314434051514,1.3194689750671387
1761132262950518800,9.485518798828124,-0.7429648637771606,0.43302708864212036,1.6890424489974976
1761132262960518700,9.4955185546875,-0.6146831512451172,0.7292967438697815,2.052507162094116
1761132262970518800,9.505518798828126,-0.4674646258354187,0.8423067927360535,2.3817636966705322
1761132262980518700,9.5155185546875,-0.3049744665622711,0.7610617280006409,2.6749789714813232
1761132262990518800,9.525518798828125,-0.15775595605373383,0.4550182521343231,2.8961122035980225
1761132263000518700,9.5355185546875,-0.12171489745378494,0.12209668755531311,3.023782968521118
1761132263010517800,9.545517822265625,-0.15653422474861145,-0.1851685345172882,3.0799825191497803
1761132263020518000,9.555517822265625,-0.2200642079114914,-0.4527274966239929,3.0757064819335938
1761132263030517800,9.565517822265624,-0.32879820466041565,-0.6475934982299805,3.009732961654663
1761132263040518000,9.575517822265626,-0.3507893681526184,-0.8058075904846191,2.90649676322937
1761132263050517800,9.585517822265626,-0.24266621470451355,-0.9359219074249268,2.6762006282806396
1761132263060518000,9.595517822265625,-0.02825251780450344,-1.0183887481689453,1.9871445894241333
1761132263070517800,9.605517822265625,0.10002918541431427,-0.8100836873054504,1.4178181886672974
1761132263080518000,9.615517822265625,0.19104810059070587,-0.4838816225528717,0.8827002644538879
1761132263090517800,9.625517822265625,0.20815233886241913,-0.20838139951229095,0.394618958234787
1761132263100518000,9.635517822265625,0.154396191239357,0.18929186463356018,-0.04092797264456749
1761132263110518800,9.645518798828125,0.10613783448934555,0.5570327639579773,-0.38240164518356323
1761132263120518700,9.6555185546875,0.12568552792072296,1.021901249885559,-0.607810914516449
1761132263130518800,9.665518798828124,0.2246456891298294,1.3279446363449097,-0.685390830039978
1761132263140518700,9.6755185546875,0.3419318199157715,1.238147497177124,-0.7214318513870239
1761132263150518800,9.685518798828125,0.4024074673652649,1.0109056234359741,-0.6933320760726929
1761132263160518700,9.6955185546875,0.30344730615615845,0.8160396218299866,-0.6017022728919983
1761132263170518800,9.705518798828125,0.014508049935102463,0.6694319248199463,-0.5412266254425049
1761132263180518700,9.7155185546875,-0.3116939961910248,0.5350415706634521,-0.5705481171607971
1761132263190518800,9.725518798828125,-0.5279402732849121,0.1776854246854782,-0.7971791625022888
1761132263200518700,9.7355185546875,-0.6470590233802795,-0.5333617329597473,-1.3811663389205933
1761132263210517800,9.745517822265626,-0.7570147514343262,-1.3122148513793945,-2.22477126121521
1761132263220518000,9.755517822265626,-0.8578075170516968,-1.6817883253097534,-2.959642171859741
1761132263230517800,9.765517822265625,-0.965319812297821,-1.4985288381576538,-3.3157765865325928
1761132263240518000,9.775517822265625,-1.0166324377059937,-0.8736136555671692,-3.26935076713562
1761132263250517800,9.785517822265625,-0.8559749126434326,-0.12102767825126648,-2.9437596797943115
1761132263260518000,9.795517822265625,-0.46929723024368286,0.41775545477867126,-2.512488842010498
1761132263270517800,9.805517822265625,-0.04841107130050659,0.6285039782524109,-2.0647244453430176
1761132263280518000,9.815517822265624,0.21242839097976685,0.552756667137146,-1.652390480041504
1761132263290517800,9.825517822265626,0.2838996350765228,0.2393828183412552,-1.0781772136688232
1761132263300518000,9.835517822265626,0.2539672255516052,0.014584408141672611,-0.7153232097625732
1761132263310518500,9.8455185546875,0.22647829353809357,-0.08804095536470413,-0.42760565876960754
1761132263320518700,9.8555185546875,0.2649627923965454,-0.025121834129095078,-0.26633724570274353
1761132263330518500,9.8655185546875,0.3975205719470978,0.1734093725681305,-0.19364428520202637
1761132263340518700,9.8755185546875,0.5392413139343262,0.5106070041656494,-0.1765400618314743
1761132263350518800,9.885518798828125,0.6479753255844116,0.8777369856834412,-0.19058994948863983
1761132263360518700,9.8955185546875,0.7151705026626587,1.1636219024658203,-0.13072516024112701
1761132263370518800,9.905518798828124,0.5752823352813721,1.3083970546722412,0.25106561183929443
1761132263380518700,9.9155185546875,0.3871358633041382,0.5277112126350403,0.3604104816913605
1761132263390518800,9.925518798828126,0.3663664162158966,-0.6066655516624451,0.30054569244384766
1761132263400518700,9.9355185546875,0.3920227587223053,-1.0843621492385864,0.3982841372489929
1761132263410517800,9.945517822265625,0.2942843437194824,-0.8791114687919617,0.6029239892959595
1761132263420518000,9.955517822265625,0.10552696883678436,-0.5083162188529968,0.9162978529930115
