time,seconds_elapsed,z,y,x
1761131497444622600,0.12562255859375,0.5414556860923767,0.6405685544013977,0.41088324785232544
1761131497474596600,0.1555966796875,0.5414556860923767,0.6405685544013977,0.41088324785232544
1761131497504596700,0.1855966796875,0.9770026206970215,0.606360137462616,-0.042989641427993774
1761131497514596600,0.1955966796875,1.0735193490982056,0.6460663676261902,-0.05276348441839218
1761131497524596700,0.2055966796875,1.1871402263641357,0.7071529030799866,-0.04237877577543259
1761131497534596600,0.2155966796875,1.3013720512390137,0.776180624961853,-0.022831087931990623
1761131497544596700,0.2255966796875,1.4125494956970215,0.8665887117385864,0.010155634954571724
1761131497554596600,0.2355966796875,1.5200618505477905,0.947833776473999,0.06513350456953049
1761131497564596700,0.2455966796875,1.6232980489730835,0.9765444397926331,0.13416127860546112
1761131497574596600,0.2555966796875,1.7198147773742676,0.9765444397926331,0.21357376873493195
1761131497584596700,0.2655966796875,1.815720558166504,0.9600511193275452,0.3070361316204071
1761131497594596600,0.2755966796875,1.911015510559082,0.8959102630615234,0.4023311138153076
1761131497604596700,0.2855966796875,2.0069212913513184,0.834823727607727,0.5000695586204529
1761131497614596600,0.2955966796875,2.162081241607666,0.8171086311340332,0.6124687790870667
1761131497624596700,0.3055966796875,2.251878261566162,0.8574257493019104,0.633849024772644
1761131497634596600,0.3155966796875,2.323349714279175,0.93805992603302,0.6075818538665771
1761131497644596700,0.3255966796875,2.376494884490967,1.043739676475525,0.5324454307556152
1761131497654596600,0.3355966796875,2.4125359058380127,1.1659126281738281,0.42065706849098206
1761131497664595500,0.345595458984375,2.4363596439361572,1.2496012449264526,0.282601535320282
1761131497674595600,0.355595703125,2.4516313076019287,1.2599859237670898,0.130496084690094
1761131497684595500,0.365595458984375,2.4559073448181152,1.231275200843811,-0.019165897741913795
1761131497694595600,0.375595703125,2.447355270385742,1.204397201538086,-0.1480584591627121
1761131497704595500,0.385595458984375,2.416811943054199,1.176908254623413,-0.2677880525588989
1761131497714595600,0.395595703125,2.3673319816589355,1.135980248451233,-0.3795763850212097
1761131497724595500,0.405595458984375,2.320906162261963,1.0388526916503906,-0.47792568802833557
1761131497734595600,0.415595703125,2.29341721534729,0.8635343909263611,-0.544510006904602
1761131497744595500,0.425595458984375,2.2995259761810303,0.6332381963729858,-0.5628359913825989
1761131497754595600,0.435595703125,2.3221278190612793,0.4035528600215912,-0.5231297016143799
1761131497764596500,0.445596435546875,2.3337342739105225,0.16409367322921753,-0.42844560742378235
1761131497774596400,0.455596435546875,2.327014684677124,-0.01794416643679142,-0.27634015679359436
1761131497784596500,0.465596435546875,2.2940280437469482,-0.12362385541200638,-0.08575020730495453
1761131497794596400,0.475596435546875,2.2439370155334473,-0.15172365307807922,0.12622003257274628
1761131497804596500,0.485596435546875,2.1920135021209717,-0.07780896127223969,0.33880114555358887
1761131497814596400,0.495596435546875,2.1376466751098633,0.0846811980009079,0.5354997515678406
1761131497824596500,0.505596435546875,2.084501266479492,0.29542970657348633,0.7016550898551941
1761131497834596400,0.515596435546875,2.044795036315918,0.5306128263473511,0.8390997648239136
1761131497844596500,0.525596435546875,2.025858163833618,0.9172905087471008,0.9759336113929749
1761131497854596400,0.535596435546875,2.0154736042022705,1.1500301361083984,1.0015898942947388
1761131497864595500,0.545595458984375,1.99042809009552,1.3235158920288086,0.967381477355957
1761131497874595600,0.555595703125,1.96843683719635,1.4566845893859863,0.8959102630615234
1761131497884595500,0.565595458984375,1.9586631059646606,1.5440382957458496,0.7945066094398499
1761131497894595600,0.575595703125,1.9629391431808472,1.5666402578353882,0.6582836508750916
1761131497904595500,0.585595458984375,1.9849302768707275,1.5043320655822754,0.48663052916526794
1761131497914595600,0.595595703125,2.014251708984375,1.3479505777359009,0.2709950804710388
1761131497924595500,0.605595458984375,2.0582339763641357,1.1188760995864868,0.019318614155054092
1761131497934595600,0.615595703125,2.1156554222106934,0.8525388240814209,-0.2598468065261841
1761131497944595500,0.625595458984375,2.1883482933044434,0.4780784249305725,-0.5518403649330139
1761131497954595600,0.635595703125,2.2720370292663574,0.013820826075971127,-0.8126798272132874
1761131497964596500,0.645596435546875,2.3453407287597656,-0.32643112540245056,-1.0057132244110107
1761131497974596400,0.655596435546875,2.3752732276916504,-0.4040110111236572,-1.126664638519287
1761131497984596500,0.665596435546875,2.36611008644104,-0.2677880525588989,-1.187751054763794
1761131497994596400,0.675596435546875,2.329458236694336,0.0071013085544109344,-1.1865293979644775
1761131498004596500,0.685596435546875,2.2781455516815186,0.3424663245677948,-1.1284971237182617
1761131498014596400,0.695596435546875,2.2359957695007324,0.6161339282989502,-1.0185414552688599
1761131498024596500,0.705596435546875,2.2146155834198,0.7413613200187683,-0.8572730422019958
1761131498034596400,0.715596435546875,2.2335524559020996,0.6888269186019897,-0.657520055770874
1761131498044596500,0.725596435546875,2.2940280437469482,0.5690973401069641,-0.42294782400131226
1761131498054596400,0.735596435546875,2.3612232208251953,0.5354997515678406,-0.1688278764486313
1761131498064595500,0.745595458984375,2.393599033355713,0.6283512711524963,0.07124216109514236
1761131498074595600,0.755595703125,2.36611008644104,0.7951174974441528,0.26855164766311646
1761131498084595500,0.765595458984375,2.2561545372009277,1.10849130153656,0.48724138736724854
1761131498094595600,0.775595703125,2.1907918453216553,1.3418418169021606,0.5800929069519043
1761131498104595500,0.785595458984375,2.1498639583587646,1.556255578994751,0.6228534579277039
1761131498114595600,0.795595703125,2.1193206310272217,1.7297413349151611,0.6100252866744995
1761131498124595500,0.805595458984375,2.0881664752960205,1.8348101377487183,0.5495496392250061
1761131498134595600,0.815595703125,2.050903797149658,1.8433622121810913,0.4475351572036743
1761131498144595500,0.825595458984375,2.0154736042022705,1.7046958208084106,0.3161991238594055
1761131498154595600,0.835595703125,1.9837085008621216,1.3821589946746826,0.15615242719650269
1761131498164596500,0.845596435546875,1.9433914422988892,0.8733082413673401,-0.036880988627672195
1761131498174596400,0.855596435546875,1.9085720777511597,0.24472789466381073,-0.25557073950767517
1761131498184596500,0.865596435546875,1.920789361000061,-0.2726749777793884,-0.4412737786769867
1761131498194596600,0.8755966796875,1.9751564264297485,-0.4699844419956207,-0.5683337450027466
1761131498204596500,0.885596435546875,2.0105865001678467,-0.4608214795589447,-0.6562983393669128
1761131498214596400,0.895596435546875,2.0319669246673584,-0.26106852293014526,-0.7002806663513184
1761131498224596200,0.90559619140625,2.0313560962677,0.1604284793138504,-0.6782894730567932
1761131498234596000,0.91559619140625,2.013640880584717,0.718759298324585,-0.5988770127296448
1761131498244596200,0.92559619140625,1.9751564264297485,1.2544881105422974,-0.4815908968448639
1761131498254596000,0.93559619140625,1.9244545698165894,1.6155095100402832,-0.3465896546840668
1761131498264595500,0.945595458984375,1.8957439661026,1.7517324686050415,-0.19448421895503998
1761131498274595300,0.95559521484375,1.903685212135315,1.7407368421554565,-0.030161472037434578
1761131498284595500,0.965595458984375,1.9293415546417236,1.672320008277893,0.1298852264881134
1761131498294595300,0.97559521484375,1.9543869495391846,1.5764141082763672,0.26855164766311646
1761131498304595500,0.985595458984375,1.9659934043884277,1.489060401916504,0.3669009506702423
1761131498314595300,0.99559521484375,1.969658613204956,1.384602427482605,0.4292092025279999
1761131498324595200,1.00559521484375,1.9733238220214844,1.3241267204284668,0.4090506434440613
1761131498334595300,1.01559521484375,1.9867628812789917,1.2612076997756958,0.3412446081638336
1761131498344595200,1.02559521484375,2.0093648433685303,1.173853874206543,0.22945626080036163
1761131498354595300,1.03559521484375,2.036242961883545,1.0529025793075562,0.0846811980009079
1761131498364596200,1.04559619140625,2.0765600204467773,0.8989645838737488,-0.07353290170431137
1761131498374596000,1.05559619140625,2.12604022026062,0.6986007690429688,-0.23602305352687836
1761131498384596200,1.06559619140625,2.173076868057251,0.45181119441986084,-0.3997349441051483
1761131498394596000,1.07559619140625,2.215837240219116,0.18975001573562622,-0.5500078201293945
1761131498404596200,1.08559619140625,2.234163284301758,-0.03565925732254982,-0.6807329654693604
1761131498414596000,1.09559619140625,2.1944570541381836,-0.19081902503967285,-0.7858017683029175
1761131498424596200,1.10559619140625,2.0875556468963623,-0.3087160289287567,-0.868268609046936
1761131498434596000,1.11559619140625,1.9360610246658325,-0.4192826449871063,-0.9275225400924683
1761131498454595800,1.135595947265625,1.609248161315918,-0.5829945206642151,-0.9837220907211304
1761131498464595000,1.145594970703125,1.4858533143997192,-0.5384013652801514,-0.9598983526229858
1761131498474594800,1.1555947265625,1.3911691904067993,-0.3698025345802307,-0.8969792723655701
1761131498484595000,1.165594970703125,1.3190871477127075,-0.12423472106456757,-0.7967973351478577
1761131498494594800,1.1755947265625,1.2824351787567139,0.1653154045343399,-0.6709591150283813
1761131498504595000,1.185594970703125,1.278770089149475,0.4377613067626953,-0.5298492312431335
1761131498514594800,1.1955947265625,1.3093132972717285,0.6320164799690247,-0.3765220642089844
1761131498524595200,1.20559521484375,1.3447434902191162,0.7071529030799866,-0.21464277803897858
1761131498534595000,1.215594970703125,1.350852131843567,0.6992116570472717,-0.051541756838560104
1761131498544595200,1.22559521484375,1.2555571794509888,0.6766096353530884,0.17936530709266663
1761131498554595000,1.235594970703125,1.1352167129516602,0.7303657531738281,0.3107013404369354
1761131498564596000,1.245595947265625,0.990441620349884,0.8067238926887512,0.40049853920936584
1761131498574596000,1.25559619140625,0.8438339829444885,0.8397106528282166,0.44142648577690125
1761131498584596000,1.265595947265625,0.7118870615959167,0.8164977431297302,0.4395939111709595
1761131498594596000,1.27559619140625,0.5988770127296448,0.7462482452392578,0.40049853920936584
1761131498604596000,1.285595947265625,0.49869510531425476,0.6521750092506409,0.3180317282676697
1761131498614596000,1.29559619140625,0.40706533193588257,0.5440518856048584,0.1964695304632187
1761131498624596000,1.305595947265625,0.32765284180641174,0.4493677318096161,0.05047274008393288
1761131498634596000,1.31559619140625,0.27634015679359436,0.37606391310691833,-0.102243572473526
1761131498644596000,1.325595947265625,0.2751184403896332,0.321086049079895,-0.24090997874736786
1761131498654596000,1.33559619140625,0.3197115957736969,0.31497737765312195,-0.34231361746788025
1761131498664595200,1.34559521484375,0.3893502354621887,0.38461601734161377,-0.38812851905822754
1761131498674595000,1.355594970703125,0.45410194993019104,0.5000695586204529,-0.37835466861724854
1761131498684595200,1.36559521484375,0.506636381149292,0.6356816291809082,-0.3148246705532074
1761131498694595000,1.375594970703125,0.5481752157211304,0.7664068341255188,-0.20914499461650848
1761131498704595200,1.38559521484375,0.5842162370681763,0.8323802351951599,-0.08025242388248444
1761131498714595000,1.395594970703125,0.6227007508277893,0.8238281607627869,0.05291620269417763
1761131498724595200,1.40559521484375,0.668515682220459,0.7425830364227295,0.18180876970291138
1761131498734595000,1.415594970703125,0.7210500836372375,0.615523099899292,0.29359710216522217
1761131498744595500,1.425595458984375,0.7748062014579773,0.473191499710083,0.3840051591396332
1761131498754595600,1.435595703125,0.820010244846344,0.32475122809410095,0.44081562757492065
1761131498764596500,1.445596435546875,0.8523861169815063,0.18486309051513672,0.463417649269104
1761131498774596400,1.455596435546875,0.8835402131080627,0.04253149405121803,0.4420373737812042
1761131498784596500,1.465596435546875,0.8865945339202881,0.014431691728532314,0.401720255613327
1761131498794596400,1.475596435546875,0.8774315714836121,0.03520110994577408,0.3479641079902649
1761131498804596500,1.485596435546875,0.8560512661933899,0.0645226389169693,0.28015807271003723
1761131498814596400,1.495596435546875,0.828562319278717,0.08101600408554077,0.20257818698883057
1761131498824596500,1.505596435546875,0.8053494691848755,0.0645226389169693,0.12377656996250153
1761131498834596400,1.515596435546875,0.7949647307395935,0.016264287754893303,0.05230533704161644
1761131498844596500,1.525596435546875,0.7931321859359741,-0.013057244941592216,-0.008170322515070438
1761131498854596400,1.535596435546875,0.7851909399032593,-0.0014508049935102463,-0.05276348441839218
1761131498864595700,1.545595703125,0.7607563138008118,0.04680754989385605,-0.08513934165239334
1761131498874595600,1.555595703125,0.7247152328491211,0.0999528244137764,-0.11934779584407806
1761131498884595200,1.56559521484375,0.6892850995063782,0.14271339774131775,-0.1578323096036911
1761131498898187000,1.57918701171875,0.6801220774650574,0.17081318795681,-0.19631682336330414
1761131498908187000,1.589186767578125,0.69661545753479,0.2062433809041977,-0.2280818074941635
1761131498918187000,1.59918701171875,0.7216609120368958,0.23923009634017944,-0.26351198554039
1761131498928187000,1.609186767578125,0.7369325757026672,0.21968241035938263,-0.3197115957736969
1761131498938187000,1.61918701171875,0.7393760085105896,0.11339186131954193,-0.4046218693256378
1761131498948187000,1.629186767578125,0.7570911049842834,-0.04909829422831535,-0.49991685152053833
1761131498958187000,1.63918701171875,0.7986299395561218,-0.24090997874736786,-0.5762749910354614
1761131498968188000,1.64918798828125,0.8652142882347107,-0.44982588291168213,-0.6184247136116028
1761131498978187800,1.659187744140625,0.9458484649658203,-0.5414556860923767,-0.6068182587623596
1761131498988188000,1.66918798828125,1.0142654180526733,-0.4266130030155182,-0.545120894908905
1761131498998187800,1.679187744140625,1.049695611000061,-0.21708624064922333,-0.4669301211833954
1761131499008187600,1.689187744140625,1.0527498722076416,0.11217013001441956,-0.36369389295578003
1761131499018187800,1.699187744140625,1.0435869693756104,0.3168099820613861,-0.3038291037082672
1761131499028188200,1.709188232421875,1.027093529701233,0.4573090076446533,-0.24762949347496033
1761131499038188300,1.719188232421875,1.0026589632034302,0.5269476175308228,-0.2030363380908966
1761131499048188200,1.729188232421875,0.972115695476532,0.5318345427513123,-0.1737148016691208
1761131499058188300,1.739188232421875,0.9366855025291443,0.5049564838409424,-0.16455182433128357
1761131499068187400,1.7491875,0.8969792723655701,0.45486554503440857,-0.1779908537864685
1761131499078187500,1.7591875,0.8639925122261047,0.363235741853714,-0.21097758412361145
1761131499088187400,1.7691875,0.8664360046386719,0.24350616335868835,-0.2500729560852051
1761131499098187300,1.779187255859375,0.9171378016471863,0.11217013001441956,-0.26106852293014526
1761131499108187400,1.7891875,0.9928851127624512,-0.006337726954370737,-0.23174700140953064
1761131499118187300,1.799187255859375,1.0643563270568848,-0.07597636431455612,-0.1731039434671402
1761131499128187400,1.8091875,1.122388482093811,-0.02038762718439102,-0.072311170399189
1761131499138187300,1.819187255859375,1.1639273166656494,0.2056325078010559,0.06696610152721405
1761131499148187400,1.8291875,1.1883620023727417,0.5300019383430481,0.22945626080036163
1761131499158187300,1.839187255859375,1.1932488679885864,0.815886914730072,0.39072468876838684
1761131499168188200,1.849188232421875,1.1718685626983643,0.967381477355957,0.5196172595024109
1761131499178188300,1.859188232421875,1.1272754669189453,0.96799236536026,0.5984188914299011
1761131499188188700,1.869188720703125,1.0704649686813354,0.825049877166748,0.6295729875564575
1761131499198188500,1.8791884765625,1.0081567764282227,0.5452736020088196,0.614912211894989
1761131499208188700,1.889188720703125,0.953178882598877,0.190360888838768,0.5581017732620239
1761131499218188500,1.8991884765625,0.9116400480270386,-0.16699528694152832,0.4683045744895935
1761131499228188400,1.9091884765625,0.8865945339202881,-0.4302782118320465,0.35468363761901855
1761131499238188500,1.9191884765625,0.8615490794181824,-0.5298492312431335,0.2367866337299347
1761131499248188400,1.9291884765625,0.8053494691848755,-0.43821945786476135,0.08651378750801086
1761131499258188500,1.9391884765625,0.761978030204773,-0.29588785767555237,0.01748601719737053
1761131499268188000,1.94918798828125,0.7210500836372375,-0.1431715488433838,-0.025274548679590225
1761131499278187800,1.959187744140625,0.6917285323143005,0.010155634954571724,-0.03260493278503418
1761131499288188000,1.96918798828125,0.6703482270240784,0.1457677185535431,-0.004505131393671036
1761131499298187800,1.979187744140625,0.658130943775177,0.26366472244262695,0.051083605736494064
1761131499308188000,1.98918798828125,0.6465244889259338,0.3516293168067932,0.12316570430994034
1761131499318187800,1.999187744140625,0.6355289220809937,0.40110939741134644,0.19830213487148285
1761131499328187400,2.0091875,0.6245333552360535,0.4121049642562866,0.27343854308128357
1761131499338187500,2.0191875,0.6092617511749268,0.3888920843601227,0.34368807077407837
1761131499348187400,2.0291875,0.5878814458847046,0.3412446081638336,0.4029420018196106
1761131499358187500,2.0391875,0.5585598945617676,0.2813797891139984,0.4524220824241638
1761131499368188200,2.049188232421875,0.524962306022644,0.2154063582420349,0.4841870665550232
1761131499378188300,2.059188232421875,0.48342347145080566,0.130496084690094,0.4982369542121887
1761131499388188200,2.069188232421875,0.44982588291168213,0.05841398984193802,0.4884631335735321
1761131499398188300,2.079188232421875,0.4211152195930481,-0.008170322515070438,0.4475351572036743
1761131499408188200,2.089188232421875,0.3991240859031677,-0.08880453556776047,0.36629006266593933
1761131499418188300,2.099188232421875,0.38690677285194397,-0.17493653297424316,0.25938865542411804
1761131499428188400,2.1091884765625,0.37774381041526794,-0.23296873271465302,0.140269935131073
1761131499438188300,2.119188232421875,0.353920042514801,-0.26351198554039,0.013209961354732513
1761131499448188400,2.1291884765625,0.31115949153900146,-0.27695104479789734,-0.11690433323383331
1761131499458188300,2.139188232421875,0.2604576647281647,-0.2702315151691437,-0.24152085185050964
1761131499468187400,2.1491875,0.20486892759799957,-0.25618159770965576,-0.3557526469230652
1761131499488187400,2.1691875,0.12423472106456757,-0.18532124161720276,-0.47487136721611023
1761131499498187500,2.1791875,0.09491318464279175,-0.12118039280176163,-0.44982588291168213
1761131499508187400,2.1891875,0.05948300287127495,-0.07658722996711731,-0.4040110111236572
1761131499518187500,2.1991875,0.028328875079751015,-0.030772335827350616,-0.34781140089035034
1761131499528187400,2.2091875,0.02099849283695221,0.04069889709353447,-0.27206411957740784
1761131499538187500,2.2191875,0.024052819237113,0.11155926436185837,-0.1938733607530594
1761131499548187400,2.2291875,0.011224648915231228,0.11583532392978668,-0.13950635492801666
1761131499558187500,2.2391875,-0.024205535650253296,0.024205535650253296,-0.13461942970752716
1761131499568188200,2.249188232421875,-0.07735081017017365,-0.17921258509159088,-0.1877647042274475
1761131499578188000,2.25918798828125,-0.13843733072280884,-0.49319732189178467,-0.2952769994735718
1761131499588188200,2.269188232421875,-0.19708040356636047,-0.801073431968689,-0.42905646562576294
1761131499598188000,2.27918798828125,-0.2410627007484436,-0.9733374118804932,-0.5616142153739929
1761131499608188200,2.289188232421875,-0.2771037518978119,-0.9849438667297363,-0.6850090026855469
1761131499618188000,2.29918798828125,-0.30886873602867126,-0.8920923471450806,-0.7992408275604248
1761131499628188200,2.309188232421875,-0.34368807077407837,-0.7528150677680969,-0.8914814591407776
1761131499638188000,2.31918798828125,-0.3675118088722229,-0.6379724144935608,-0.9611201286315918
1761131499648188200,2.329188232421875,-0.38095083832740784,-0.5762749910354614,-0.9996046423912048
1761131499658188000,2.33918798828125,-0.38950294256210327,-0.5292384028434753,-0.9849438667297363
1761131499668187400,2.3491875,-0.39622247219085693,-0.49930599331855774,-0.9372963309288025
1761131499678187300,2.359187255859375,-0.40660718083381653,-0.49319732189178467,-0.8817076086997986
1761131499688187400,2.3691875,-0.41027235984802246,-0.49869510531425476,-0.8255079984664917
1761131499698187300,2.379187255859375,-0.39622247219085693,-0.46876272559165955,-0.7625889182090759
1761131499708187400,2.3891875,-0.32963815331459045,-0.29649871587753296,-0.6343072056770325
1761131499718187300,2.399187255859375,-0.2563343346118927,-0.09002626687288284,-0.506636381149292
1761131499728187100,2.409187255859375,-0.17631098628044128,0.1347721517086029,-0.3502548635005951
1761131499738187300,2.419187255859375,-0.09628763794898987,0.29420796036720276,-0.17127133905887604
1761131499748187100,2.429187255859375,-0.021151209250092506,0.3369685411453247,0.014431691728532314
1761131499758187300,2.439187255859375,0.04360050708055496,0.26916250586509705,0.18913915753364563
1761131499768188200,2.449188232421875,0.08513934165239334,0.11950051039457321,0.3271946907043457
1761131499778188000,2.45918798828125,0.09430231899023056,-0.06253732740879059,0.42554399371147156
1761131499788188200,2.469188232421875,0.06620252132415771,-0.20731239020824432,0.4786892831325531
1761131499798188000,2.47918798828125,-0.011988230049610138,-0.29649871587753296,0.48113274574279785
1761131499808188200,2.489188232421875,-0.13843733072280884,-0.33315062522888184,0.4231005311012268
1761131499818188000,2.49918798828125,-0.292375385761261,-0.29649871587753296,0.31864258646965027
1761131499828187100,2.509187255859375,-0.4432590901851654,-0.18898643553256989,0.17814357578754425
1761131499838187300,2.519187255859375,-0.5648213028907776,-0.03260493278503418,0.02298380434513092
1761131499848187100,2.529187255859375,-0.6326273083686829,0.15798501670360565,-0.11629346758127213
1761131499858187300,2.539187255859375,-0.6509532928466797,0.3571271002292633,-0.2183079719543457
1761131499868186600,2.5491865234375,-0.6381251215934753,0.4982369542121887,-0.2781727612018585
1761131499878186500,2.5591865234375,-0.6039166450500488,0.5715407729148865,-0.2793944776058197
1761131499888186400,2.569186279296875,-0.5501605272293091,0.6173557043075562,-0.22258402407169342
1761131499898186500,2.5791865234375,-0.49090659618377686,0.6369034051895142,-0.12423472106456757
1761131499908186600,2.5891865234375,-0.4371504485607147,0.614912211894989,-0.002672535367310047
1761131499918186500,2.5991865234375,-0.3931681513786316,0.5593234896659851,0.12805262207984924
1761131499938186500,2.6191865234375,-0.32963815331459045,0.4334852397441864,0.4469242990016937
1761131499948186400,2.629186279296875,-0.32475122809410095,0.38522690534591675,0.5293911099433899
1761131499958186500,2.6391865234375,-0.33391422033309937,0.32963815331459045,0.5672647356987
1761131499968187400,2.6491875,-0.34490978717803955,0.282601535320282,0.5605452060699463
1761131499978187300,2.659187255859375,-0.3522401750087738,0.24289529025554657,0.5104542970657349
1761131499988187400,2.6691875,-0.33880114555358887,0.17692184448242188,0.4267657399177551
1761131499998187300,2.679187255859375,-0.292375385761261,0.08834638446569443,0.3326924741268158
1761131500008187400,2.6891875,-0.21968241035938263,-0.00022907447419129312,0.2459496259689331
1761131500018187300,2.699187255859375,-0.14332425594329834,-0.04726569727063179,0.18303050100803375
1761131500028187400,2.7091875,-0.08712465316057205,-0.033826664090156555,0.1408807933330536
1761131500038187300,2.719187255859375,-0.06391177326440811,0.009544769302010536,0.11827878654003143
1761131500048187400,2.7291875,-0.06696610152721405,0.056581392884254456,0.1256091594696045
1761131500058187300,2.739187255859375,-0.08895725011825562,0.09506590664386749,0.14760030806064606
1761131500068187000,2.749186767578125,-0.13110695779323578,0.10117455571889877,0.1549306958913803
1761131500078186800,2.759186767578125,-0.17692184448242188,0.08101600408554077,0.14271339774131775
1761131500088187000,2.769186767578125,-0.20807597041130066,0.06696610152721405,0.1347721517086029
1761131500098186800,2.779186767578125,-0.21235203742980957,0.11888964474201202,0.1457677185535431
1761131500108187000,2.789186767578125,-0.20013472437858582,0.22456933557987213,0.17692184448242188
1761131500118186800,2.799186767578125,-0.17814357578754425,0.3418554663658142,0.2166280895471573
1761131500128187600,2.809187744140625,-0.1451568603515625,0.43531784415245056,0.25816693902015686
1761131500138187500,2.8191875,-0.09873109310865402,0.50251305103302,0.30214923620224
1761131500148187600,2.829187744140625,-0.04130976274609566,0.5226715803146362,0.3412446081638336
1761131500158187500,2.8391875,0.01061378326267004,0.4799109995365143,0.3669009506702423
1761131500168188400,2.8491884765625,0.05642867833375931,0.2703842222690582,0.36445748805999756
1761131500178188300,2.859188232421875,0.05826127156615257,0.060246583074331284,0.33513593673706055
1761131500188188400,2.8691884765625,0.04421137273311615,-0.12423472106456757,0.2777146100997925
1761131500198188300,2.879188232421875,0.016111571341753006,-0.22014056146144867,0.1860848218202591
1761131500208188400,2.8891884765625,-0.016264287754893303,-0.18104518949985504,0.07796167582273483
1761131500218188300,2.899188232421875,-0.03703370690345764,-0.05032002553343773,-0.03443752974271774
1761131500228188400,2.9091884765625,-0.04130976274609566,0.06574437022209167,-0.15905404090881348
1761131500238188300,2.919188232421875,-0.024205535650253296,0.0944550409913063,-0.29588785767555237
1761131500248188400,2.9291884765625,0.02710714563727379,0.08345946669578552,-0.43455424904823303
1761131500258188300,2.939188232421875,0.10896308720111847,0.1256091594696045,-0.5500078201293945
1761131500268187600,2.949187744140625,0.1981494128704071,0.22029328346252441,-0.6349180936813354
1761131500278187500,2.9591875,0.2745075821876526,0.2569451928138733,-0.6886742115020752
1761131500288187600,2.969187744140625,0.34842225909233093,0.20502164959907532,-0.6990588903427124
1761131500298187500,2.9791875,0.4302782118320465,0.16348281502723694,-0.6440810561180115
1761131500308187600,2.989187744140625,0.515799343585968,0.18852828443050385,-0.5194645524024963
1761131500318187500,2.9991875,0.5793293118476868,0.2667190432548523,-0.3514765799045563
1761131500328187400,3.0091875,0.6074291467666626,0.3320816159248352,-0.16210836172103882
1761131500338187500,3.0191875,0.6062073707580566,0.3161991238594055,0.023594669997692108
1761131500348187400,3.0291875,0.5958226919174194,0.20868684351444244,0.18303050100803375
1761131500358187500,3.0391875,0.5946009755134583,0.03214678168296814,0.30947959423065186
1761131500368188200,3.049188232421875,0.6068182587623596,-0.19631682336330414,0.382783442735672
1761131500378188000,3.05918798828125,0.638583242893219,-0.44982588291168213,0.41088324785232544
1761131500388188200,3.069188232421875,0.6819546818733215,-0.6666830778121948,0.4127158224582672
1761131500398188000,3.07918798828125,0.706389307975769,-0.8560512661933899,0.40538543462753296
1761131500408188200,3.089188232421875,0.6862307190895081,-1.169425129890442,0.3815616965293884
1761131500418188000,3.09918798828125,0.6550766229629517,-1.39727783203125,0.3589596748352051
1761131500428188200,3.109188232421875,0.6159812211990356,-1.5719853639602661,0.34002286195755005
1761131500438188000,3.11918798828125,0.5646685361862183,-1.6294066905975342,0.3363576829433441
1761131500448188200,3.129188232421875,0.5023602843284607,-1.562211513519287,0.3430771827697754
1761131500458188000,3.13918798828125,0.43455424904823303,-1.380784511566162,0.3687335252761841
1761131500468187100,3.149187255859375,0.3704134225845337,-1.1101711988449097,0.42004621028900146
1761131500478187300,3.159187255859375,0.3044399619102478,-0.7467064261436462,0.4988478422164917
1761131500488187100,3.169187255859375,0.23174700140953064,-0.33742669224739075,0.5892558693885803
1761131500498187300,3.179187255859375,0.1578323096036911,0.04130976274609566,0.6698901057243347
1761131500508187100,3.189187255859375,0.08269587904214859,0.33452507853507996,0.7273114323616028
1761131500518187300,3.199187255859375,0.02344195358455181,0.49273917078971863,0.7499134540557861
1761131500528187100,3.209187255859375,-0.0022143865935504436,0.4786892831325531,0.7419722080230713
1761131500538187300,3.219187255859375,0.016722436994314194,0.3687335252761841,0.7236462235450745
1761131500548187100,3.229187255859375,0.0619264654815197,0.2410627007484436,0.7059311270713806
1761131500558187300,3.239187255859375,0.11873693019151688,0.10667234659194946,0.6924921274185181
1761131500568188200,3.249188232421875,0.17066048085689545,-0.039324451237916946,0.6705009937286377
1761131500578188000,3.25918798828125,0.20486892759799957,-0.16638441383838654,0.6332381963729858
1761131500588188200,3.269188232421875,0.22624921798706055,-0.23968824744224548,0.5892558693885803
1761131500598188000,3.27918798828125,0.23602305352687836,-0.2433534413576126,0.5379431843757629
1761131500608188200,3.289188232421875,0.2341904640197754,-0.2238057553768158,0.47563496232032776
1761131500618188000,3.29918798828125,0.2244166135787964,-0.20609065890312195,0.4072180390357971
1761131500628188200,3.309188232421875,0.21219931542873383,-0.19142989814281464,0.3369685411453247
1761131500638188000,3.31918798828125,0.18226692080497742,-0.11323914676904678,0.2465604841709137
1761131500648188200,3.329188232421875,0.16394096612930298,-0.012446379289031029,0.19708040356636047
1761131500658188000,3.33918798828125,0.15355625748634338,0.10361801832914352,0.1702023297548294
1761131500668187400,3.3491875,0.15172365307807922,0.22334760427474976,0.1702023297548294
1761131500678187500,3.3591875,0.15355625748634338,0.32475122809410095,0.1860848218202591
1761131500688187400,3.3691875,0.15538884699344635,0.373009592294693,0.21296289563179016
1761131500698187500,3.3791875,0.14989106357097626,0.363235741853714,0.2416735589504242
1761131500708187400,3.3891875,0.12301298975944519,0.31009048223495483,0.26488643884658813
1761131500718187500,3.3991875,0.07047858089208603,0.21968241035938263,0.26855164766311646
1761131500728187400,3.4091875,-0.0016035212902352214,0.05841398984193802,0.23373231291770935
1761131500738187500,3.4191875,-0.0846811980009079,-0.18898643553256989,0.15737415850162506
1761131500748187400,3.4291875,-0.1653154045343399,-0.45898887515068054,0.04986187443137169
1761131500758187500,3.4391875,-0.22762365639209747,-0.6691265106201172,-0.0869719386100769
1761131500768188200,3.449188232421875,-0.2654972970485687,-0.8114581108093262,-0.24274258315563202
1761131500778188300,3.459188232421875,-0.2764928936958313,-0.9305768609046936,-0.3991240859031677
1761131500788188200,3.469188232421875,-0.2673299014568329,-1.0814605951309204,-0.5555055737495422
1761131500798188300,3.479188232421875,-0.23800836503505707,-1.2030227184295654,-0.6715700030326843
1761131500808188200,3.489188232421875,-0.20990857481956482,-1.1486557722091675,-0.7155522704124451
1761131500818188300,3.499188232421875,-0.20929770171642303,-0.9702830910682678,-0.686841607093811
1761131500828188200,3.509188232421875,-0.25328001379966736,-0.8358927369117737,-0.6141486167907715
1761131500838188300,3.519188232421875,-0.3223077654838562,-0.7686975598335266,-0.48831039667129517
1761131500848188200,3.529188232421875,-0.37972912192344666,-0.6807329654693604,-0.3001639246940613
1761131500858188300,3.539188232421875,-0.42554399371147156,-0.524962306022644,-0.08147415518760681
1761131500868187400,3.5491875,-0.46158504486083984,-0.2653445899486542,0.15920674800872803
1761131500878187300,3.559187255859375,-0.5092325210571289,0.2056325078010559,0.48601967096328735
1761131500888187400,3.5691875,-0.5348888635635376,0.444480836391449,0.6362925171852112
1761131500898187300,3.579187255859375,-0.5495496392250061,0.6039166450500488,0.7236462235450745
1761131500908187400,3.5891875,-0.5367214679718018,0.6839399933815002,0.7554112076759338
1761131500918187500,3.5991875,-0.5049564838409424,0.6937138438224792,0.7267005443572998
1761131500928187400,3.6091875,-0.4750240743160248,0.6320164799690247,0.6387359499931335
1761131500938187300,3.619187255859375,-0.4542546570301056,0.5202280879020691,0.5037347674369812
1761131500948187400,3.6291875,-0.4487568736076355,0.3974441885948181,0.34063372015953064
1761131500958187300,3.639187255859375,-0.463417649269104,0.2862667143344879,0.17264579236507416
1761131500968188000,3.64918798828125,-0.4847979247570038,0.22945626080036163,0.023594669997692108
1761131500978188000,3.65918798828125,-0.5086216926574707,0.28993192315101624,-0.08941540122032166
1761131500988188000,3.66918798828125,-0.5397757887840271,0.4475351572036743,-0.15050192177295685
1761131500998188000,3.67918798828125,-0.5849798321723938,0.625296950340271,-0.1676061451435089
1761131501008188000,3.68918798828125,-0.6295729875564575,0.7651850581169128,-0.13400855660438538
1761131501018188000,3.69918798828125,-0.653396725654602,0.8940776586532593,-0.06131559982895851
1761131501028188000,3.70918798828125,-0.6558402180671692,0.9924269318580627,0.0339793786406517
1761131501038188000,3.71918798828125,-0.6430120468139648,1.0223593711853027,0.13721559941768646
1761131501048188000,3.72918798828125,-0.6106361746788025,0.9979247450828552,0.24350616335868835
1761131501058188000,3.73918798828125,-0.5715407729148865,0.9557750225067139,0.3461315333843231
1761131501068187100,3.749187255859375,-0.5245041847229004,0.9069058299064636,0.43043091893196106
1761131501078187300,3.759187255859375,-0.47563496232032776,0.8299368023872375,0.473191499710083
1761131501088187100,3.769187255859375,-0.41454842686653137,0.7022659778594971,0.47013717889785767
1761131501098187300,3.779187255859375,-0.2868776023387909,0.5220606923103333,0.41088324785232544
1761131501108187100,3.789187255859375,-0.20318904519081116,0.36934441328048706,0.35957056283950806
1761131501118187300,3.799187255859375,-0.1347721517086029,0.13721559941768646,0.28932106494903564
1761131501128187100,3.809187255859375,-0.08407033234834671,-0.14866933226585388,0.20257818698883057
1761131501138187300,3.819187255859375,-0.04008803144097328,-0.405843585729599,0.10667234659194946
1761131501148187100,3.829187255859375,-0.0071013085544109344,-0.5994879007339478,-0.006337726954370737
1761131501158187300,3.839187255859375,0.011224648915231228,-0.7234935164451599,-0.1278999149799347
1761131501168188200,3.849188232421875,0.00939205288887024,-0.7570911049842834,-0.24701863527297974
1761131501178188000,3.85918798828125,-0.009544769302010536,-0.7442629337310791,-0.36308303475379944
1761131501188188200,3.869188232421875,-0.03459024429321289,-0.7186065912246704,-0.4718170464038849
1761131501198188000,3.87918798828125,-0.06207918003201485,-0.6404158473014832,-0.5567272901535034
1761131501208188200,3.889188232421875,-0.08590292185544968,-0.48342347145080566,-0.5915466547012329
1761131501218188000,3.89918798828125,-0.11583532392978668,-0.24029912054538727,-0.5591707825660706
1761131501228188200,3.909188232421875,-0.1549306958913803,0.053527068346738815,-0.4712061882019043
1761131501238188000,3.91918798828125,-0.20502164959907532,0.31497737765312195,-0.3502548635005951
1761131501248188200,3.929188232421875,-0.24411702156066895,0.47624582052230835,-0.21036672592163086
1761131501258188000,3.93918798828125,-0.2557234764099121,0.5477170348167419,-0.06986771523952484
1761131501268187400,3.9491875,-0.24472789466381073,0.5532148480415344,0.05169447138905525
1761131501278187300,3.959187255859375,-0.220904141664505,0.5037347674369812,0.1408807933330536
1761131501288187400,3.9691875,-0.19891299307346344,0.39622247219085693,0.18486309051513672
1761131501298187300,3.979187255859375,-0.16959145665168762,0.21846067905426025,0.180587038397789
1761131501308187400,3.9891875,-0.12683089077472687,-0.033826664090156555,0.11644618958234787
1761131501318187300,3.999187255859375,-0.06391177326440811,-0.32826370000839233,0.0022143865935504436
1761131501328187400,4.0091875,0.054596081376075745,-0.5689446330070496,-0.1932624876499176
1761131501338187300,4.019187255859375,0.13400855660438538,-0.5921574831008911,-0.315435528755188
1761131501348187400,4.0291875,0.19998200237751007,-0.6055965423583984,-0.43394339084625244
1761131501358187300,4.039187255859375,0.24640776216983795,-0.5946009755134583,-0.5420665740966797
1761131501368188200,4.049188232421875,0.2781727612018585,-0.5072472095489502,-0.6324746012687683
1761131501378188300,4.059188232421875,0.29649871587753296,-0.42294782400131226,-0.7100545167922974
1761131501388188200,4.069188232421875,0.31787899136543274,-0.4510476291179657,-0.7625889182090759
1761131501398188300,4.079188232421875,0.35697436332702637,-0.5188536643981934,-0.7625889182090759
1761131501408188200,4.089188232421875,0.39729148149490356,-0.4705953001976013,-0.6691265106201172
1761131501418188300,4.099188232421875,0.4107305109500885,-0.22991441190242767,-0.47853657603263855
1761131501428188200,4.109188232421875,0.37713292241096497,0.19708040356636047,-0.22075143456459045
1761131501438188300,4.119188232421875,0.28733575344085693,0.6869943141937256,0.07124216109514236
1761131501448188200,4.129188232421875,0.1627192348241806,1.0767263174057007,0.34979671239852905
1761131501458188300,4.139188232421875,0.036880988627672195,1.317407250404358,0.5782603025436401
1761131501468187400,4.1491875,-0.07673994451761246,1.3852132558822632,0.7157049775123596
1761131501478187300,4.159187255859375,-0.1604284793138504,1.196455955505371,0.7364743947982788
1761131501488187400,4.1691875,-0.19341520965099335,0.747469961643219,0.6301838755607605
1761131501498187300,4.179187255859375,-0.16714800894260406,0.09689849615097046,0.41638103127479553
1761131501508187400,4.1891875,-0.10545061528682709,-0.6239224672317505,0.1152244582772255
1761131501518187300,4.199187255859375,-0.039477165788412094,-1.2726613283157349,-0.22136229276657104
1761131501528187400,4.2091875,0.0014508049935102463,-1.6465109586715698,-0.5041928887367249
1761131501538187300,4.219187255859375,0.000839939690195024,-1.7717382907867432,-0.7051675915718079
1761131501548187400,4.2291875,-0.0339793786406517,-1.6367371082305908,-0.8029059767723083
1761131501558187300,4.239187255859375,-0.1048397496342659,-1.1944706439971924,-0.7778605222702026
1761131501568188200,4.249188232421875,-0.282601535320282,-0.22258402407169342,-0.5475643277168274
1761131501578188000,4.25918798828125,-0.46097418665885925,0.4127158224582672,-0.3105486333370209
1761131501588188200,4.269188232421875,-0.6613379716873169,0.9166796803474426,-0.04604396969079971
1761131501598188000,4.27918798828125,-0.8549822568893433,1.2184470891952515,0.21846067905426025
1761131501608188200,4.289188232421875,-1.0174723863601685,1.316185474395752,0.4738023579120636
1761131501618188000,4.29918798828125,-1.1402562856674194,1.2807554006576538,0.7120398283004761
1761131501628188200,4.309188232421875,-1.2318861484527588,1.1219303607940674,0.9069058299064636
1761131501638188000,4.31918798828125,-1.2990813255310059,0.8855255246162415,1.0467939376831055
1761131501648188200,4.329188232421875,-1.33878755569458,0.6375142335891724,1.1286499500274658
1761131501658188000,4.33918798828125,-1.346728801727295,0.41577014327049255,1.147586703300476
1761131501668187100,4.349187255859375,-1.3241267204284668,0.2154063582420349,1.1060478687286377
1761131501678187300,4.359187255859375,-1.2795336246490479,0.023594669997692108,1.0046442747116089
1761131501688187100,4.369187255859375,-1.222723126411438,-0.1529453843832016,0.8488736152648926
1761131501698187300,4.379187255859375,-1.164080023765564,-0.2934443950653076,0.6546184420585632
1761131501708187100,4.389187255859375,-1.1139891147613525,-0.37713292241096497,0.4334852397441864
1761131501718187300,4.399187255859375,-1.081613302230835,-0.43394339084625244,0.1854739636182785
1761131501728187100,4.409187255859375,-1.0559569597244263,-0.46387580037117004,-0.07414376735687256
1761131501738187300,4.419187255859375,-1.0272462368011475,-0.4724279046058655,-0.3294854462146759
1761131501748187100,4.429187255859375,-0.9924269318580627,-0.4901430010795593,-0.5561164617538452
1761131501758187300,4.439187255859375,-0.9514989852905273,-0.4925864636898041,-0.7412086129188538
1761131501768188200,4.449188232421875,-0.9111818671226501,-0.4369977116584778,-0.8823184967041016
1761131501778188000,4.45918798828125,-0.8794168829917908,-0.35269832611083984,-0.9757808446884155
1761131501788188400,4.4691884765625,-0.8543714284896851,-0.25618159770965576,-1.0228174924850464
1761131501798188300,4.479188232421875,-0.825049877166748,-0.22747094929218292,-0.9996046423912048
1761131501808188400,4.4891884765625,-0.8140543103218079,-0.30077478289604187,-0.9256899356842041
1761131501818188300,4.499188232421875,-0.8244389891624451,-0.4724279046058655,-0.82917320728302
1761131501828188400,4.5091884765625,-0.8739190697669983,-0.7570911049842834,-0.7515933513641357
1761131501838188300,4.519188232421875,-0.9460011720657349,-1.0894018411636353,-0.7112762331962585
1761131501848188400,4.5291884765625,-1.006476879119873,-1.3881149291992188,-0.6935611367225647
1761131501858188300,4.539188232421875,-1.0284680128097534,-1.5829808712005615,-0.6837872862815857
1761131501868187400,4.5491875,-1.0254136323928833,-1.6611716747283936,-0.6752351522445679
1761131501878187500,4.5591875,-1.016250729560852,-1.562211513519287,-0.65874183177948
1761131501888187400,4.5691875,-1.006476879119873,-1.2567788362503052,-0.6104834675788879
1761131501898187500,4.5791875,-1.0015898942947388,-0.8499426245689392,-0.5365687608718872
1761131501908187400,4.5891875,-1.0015898942947388,-0.47975829243659973,-0.44432809948921204
1761131501918187500,4.5991875,-1.0180833339691162,-0.28122708201408386,-0.344757080078125
1761131501928187400,4.6091875,-1.0590112209320068,-0.30688342452049255,-0.27145323157310486
1761131501938187500,4.6191875,-1.106658697128296,-0.4760931134223938,-0.2335795909166336
1761131501948187400,4.6291875,-1.158582329750061,-0.6666830778121948,-0.23480132222175598
1761131501958187500,4.6391875,-1.2080624103546143,-0.801073431968689,-0.2653445899486542
1761131501968188400,4.6491884765625,-1.2465468645095825,-0.7680866718292236,-0.29649871587753296
1761131501978188300,4.659188232421875,-1.271592378616333,-0.554894745349884,-0.3032182455062866
1761131501988188400,4.6691884765625,-1.2838096618652344,-0.20120373368263245,-0.2696206569671631
1761131501998188300,4.679188232421875,-1.2874748706817627,0.24839307367801666,-0.1932624876499176
1761131502008188400,4.6891884765625,-1.2948052883148193,0.6656140685081482,-0.08330674469470978
1761131502018188300,4.699188232421875,-1.3125203847885132,0.9050732254981995,0.04864014685153961
1761131502028188400,4.7091884765625,-1.3363441228866577,0.9209557175636292,0.23923009634017944
1761131502038188300,4.719188232421875,-1.3522266149520874,0.7462482452392578,0.3381902575492859
1761131502048188400,4.7291884765625,-1.374828577041626,0.45547640323638916,0.3888920843601227
1761131502058188300,4.739188232421875,-1.3925436735153198,0.09689849615097046,0.39988765120506287
1761131502068187400,4.7491875,-1.393154501914978,-0.22563834488391876,0.36995527148246765
1761131502078187500,4.7591875,-1.3729959726333618,-0.425391286611557,0.30214923620224
1761131502088187100,4.769187255859375,-1.345507025718689,-0.49930599331855774,0.21235203742980957
1761131502098187300,4.779187255859375,-1.30091392993927,-0.4650975167751312,0.12255483865737915
1761131502108187100,4.789187255859375,-1.2379947900772095,-0.34842225909233093,0.0541379339993
1761131502118187300,4.799187255859375,-1.1622475385665894,-0.1932624876499176,0.01992947794497013
1761131502128187100,4.809187255859375,-1.0858893394470215,-0.02038762718439102,0.02848159149289131
1761131502138187300,4.819187255859375,-1.0205267667770386,0.12805262207984924,0.06635523587465286
1761131502148187100,4.829187255859375,-0.9759336113929749,0.2160172164440155,0.12377656996250153
1761131502158187300,4.839187255859375,-0.9423360228538513,0.22945626080036163,0.19219347834587097
1761131502168188200,4.849188232421875,-0.9148470759391785,0.190360888838768,0.2618321180343628
1761131502178188000,4.85918798828125,-0.8922450542449951,0.11644618958234787,0.32352951169013977
1761131502188188200,4.869188232421875,-0.8757516741752625,0.023594669997692108,0.3723987340927124
1761131502198188000,4.87918798828125,-0.8684213161468506,-0.072311170399189,0.40049853920936584
1761131502208188200,4.889188232421875,-0.8690321445465088,-0.13584116101264954,0.4133267104625702
1761131502218188000,4.89918798828125,-0.8702539205551147,-0.14928019046783447,0.4029420018196106
1761131502228188200,4.909188232421875,-0.8733082413673401,-0.15477798879146576,0.3681226670742035
1761131502238188000,4.91918798828125,-0.8751408457756042,-0.17493653297424316,0.3064252734184265
1761131502248188200,4.929188232421875,-0.870864748954773,-0.22686007618904114,0.22273674607276917
1761131502258188000,4.93918798828125,-0.8604800701141357,-0.38690677285194397,0.0749073475599289
1761131502268187100,4.949187255859375,-0.8513170480728149,-0.5316818356513977,-0.00939205288887024
1761131502278187300,4.959187255859375,-0.8433758020401001,-0.677678644657135,-0.08025242388248444
1761131502288187100,4.969187255859375,-0.8519279360771179,-0.8230645656585693,-0.15477798879146576
1761131502298187300,4.979187255859375,-0.8757516741752625,-0.9452376365661621,-0.2384665161371231
1761131502308187100,4.989187255859375,-0.9130144715309143,-1.0179306268692017,-0.3307071626186371
1761131502318187300,4.999187255859375,-0.948444664478302,-1.0215957164764404,-0.4266130030155182
1761131502328187100,5.009187255859375,-0.9759336113929749,-0.9354637861251831,-0.5078580975532532
1761131502338187300,5.019187255859375,-0.9948704242706299,-0.7949647307395935,-0.5713880658149719
1761131502348187100,5.029187255859375,-1.0009790658950806,-0.6257550716400146,-0.609872579574585
1761131502358187300,5.039187255859375,-0.9783770442008972,-0.4614323377609253,-0.6275876760482788
1761131502368188200,5.049188232421875,-0.9252317547798157,-0.31115949153900146,-0.6220899224281311
1761131502378188000,5.05918798828125,-0.8360454440116882,-0.192651629447937,-0.5921574831008911
1761131502388188200,5.069188232421875,-0.7236462235450745,-0.1321759670972824,-0.5432882905006409
1761131502398188000,5.07918798828125,-0.605749249458313,-0.11446087807416916,-0.4901430010795593
1761131502408188200,5.089188232421875,-0.5000695586204529,-0.11079568415880203,-0.4400520622730255
1761131502418188000,5.09918798828125,-0.4078288972377777,-0.12056952714920044,-0.41256311535835266
1761131502428188200,5.109188232421875,-0.3375793993473053,-0.152334526181221,-0.40706533193588257
1761131502438188300,5.119188232421875,-0.2832123935222626,-0.2244166135787964,-0.42905646562576294
1761131502448188200,5.129188232421875,-0.2215150147676468,-0.40340012311935425,-0.4669301211833954
1761131502458188300,5.139188232421875,-0.130496084690094,-0.6660721898078918,-0.4858669340610504
1761131502468187400,5.1491875,-0.013820826075971127,-0.8621599078178406,-0.4461607038974762
1761131502478187300,5.159187255859375,0.08086328953504562,-0.9385181069374084,-0.3600287139415741
1761131502488187100,5.169187255859375,0.12606731057167053,-0.7876343727111816,-0.17188221216201782
1761131502498187300,5.179187255859375,0.12667818367481232,-0.37224599719047546,0.0022143865935504436
1761131502508187100,5.189187255859375,0.11385001242160797,0.18364135921001434,0.20746511220932007
1761131502518187300,5.199187255859375,0.07536549866199493,0.6375142335891724,0.41088324785232544
1761131502528187100,5.209187255859375,0.02038762718439102,0.8910233378410339,0.5782603025436401
1761131502538187300,5.219187255859375,-0.016264287754893303,0.9270643591880798,0.6949355602264404
1761131502548187100,5.229187255859375,-0.019318614155054092,0.7175375819206238,0.7566329836845398
1761131502558187300,5.239187255859375,0.002672535367310047,0.3229186534881592,0.7755697965621948
1761131502568188200,5.249188232421875,0.033826664090156555,-0.1737148016691208,0.7462482452392578
1761131502578188000,5.25918798828125,0.05948300287127495,-0.6508005857467651,0.6698901057243347
1761131502588188200,5.269188232421875,0.08269587904214859,-1.007545828819275,0.557490885257721
1761131502608188200,5.289188232421875,0.14072808623313904,-1.1633164882659912,0.3571271002292633
1761131502618188000,5.29918798828125,0.16210836172103882,-1.046641230583191,0.3027600944042206
1761131502628188200,5.309188232421875,0.17493653297424316,-0.8450556993484497,0.2874884605407715
1761131502638188000,5.31918798828125,0.14622586965560913,-0.5616142153739929,0.2972623109817505
1761131502648188200,5.329188232421875,0.06375905871391296,-0.27634015679359436,0.3027600944042206
1761131502658188000,5.33918798828125,-0.05780312418937683,-0.024052819237113,0.2880993187427521
1761131502668187400,5.3491875,-0.1811978965997696,0.19341520965099335,0.2716059684753418
1761131502678187300,5.359187255859375,-0.2868776023387909,0.3589596748352051,0.2807689309120178
1761131502688187100,5.369187255859375,-0.36079227924346924,0.4780784249305725,0.3119230568408966
1761131502698187300,5.379187255859375,-0.39988765120506287,0.5697082281112671,0.3571271002292633
1761131502708187100,5.389187255859375,-0.41515928506851196,0.6588945388793945,0.4078288972377777
1761131502718187300,5.399187255859375,-0.41515928506851196,0.7456374168395996,0.4640285074710846
1761131502728187100,5.409187255859375,-0.39988765120506287,0.8427649736404419,0.5513822436332703
1761131502738187300,5.419187255859375,-0.3882812261581421,0.8635343909263611,0.6020840406417847
1761131502748187100,5.429187255859375,-0.38461601734161377,0.8580365777015686,0.63507080078125
1761131502758187300,5.439187255859375,-0.39500072598457336,0.8171086311340332,0.6509532928466797
1761131502768188000,5.44918798828125,-0.41149410605430603,0.7370852828025818,0.6424011588096619
1761131502778188000,5.45918798828125,-0.4273765981197357,0.6369034051895142,0.6100252866744995
1761131502788188000,5.46918798828125,-0.44142648577690125,0.5177846550941467,0.5556582808494568
1761131502798188000,5.47918798828125,-0.453643798828125,0.3626248836517334,0.48113274574279785
1761131502808188000,5.48918798828125,-0.4542546570301056,0.1610393524169922,0.39133554697036743
1761131502818188000,5.49918798828125,-0.43104177713394165,-0.04787656292319298,0.29848402738571167
1761131502828188200,5.509188232421875,-0.3876703679561615,-0.18898643553256989,0.21296289563179016
1761131502838188000,5.51918798828125,-0.3381902575492859,-0.2598468065261841,0.13355042040348053
1761131502848188200,5.529188232421875,-0.2972623109817505,-0.31665727496147156,0.04986187443137169
1761131502858188000,5.53918798828125,-0.26366472244262695,-0.3893502354621887,-0.03565925732254982
1761131502868187100,5.549187255859375,-0.230677992105484,-0.467540979385376,-0.11873693019151688
1761131502878187300,5.559187255859375,-0.20013472437858582,-0.535347044467926,-0.1975385546684265
1761131502888187100,5.569187255859375,-0.17447838187217712,-0.5866597294807434,-0.2793944776058197
1761131502898187300,5.579187255859375,-0.1500437706708908,-0.6404158473014832,-0.36186128854751587
1761131502908187100,5.589187255859375,-0.13232868909835815,-0.6905068159103394,-0.444938987493515
1761131502918187300,5.599187255859375,-0.11766792088747025,-0.7008914947509766,-0.5127450227737427
1761131502928187100,5.609187255859375,-0.11155926436185837,-0.6428593397140503,-0.5591707825660706
1761131502938187300,5.619187255859375,-0.13904820382595062,-0.5335144400596619,-0.5866597294807434
1761131502948187100,5.629187255859375,-0.19952386617660522,-0.45410194993019104,-0.6153703927993774
1761131502958187300,5.639187255859375,-0.3271946907043457,-0.5371796488761902,-0.7088327407836914
1761131502968188000,5.64918798828125,-0.39988765120506287,-0.7320456504821777,-0.8065711855888367
1761131502978188000,5.65918798828125,-0.43653959035873413,-0.9580658078193665,-0.9226356148719788
1761131502988188000,5.66918798828125,-0.4322635233402252,-1.0802388191223145,-1.0277043581008911
1761131502998188000,5.67918798828125,-0.40599632263183594,-1.039921760559082,-1.1156690120697021
1761131503008188000,5.68918798828125,-0.37606391310691833,-0.8322275280952454,-1.1749229431152344
1761131503018188000,5.69918798828125,-0.3320816159248352,-0.4864778220653534,-1.1999684572219849
1761131503028188400,5.7091884765625,-0.2874884605407715,-0.0771980956196785,-1.190805435180664
1761131503038188300,5.719188232421875,-0.2575560510158539,0.25999951362609863,-1.1602622270584106
1761131503048188400,5.7291884765625,-0.23800836503505707,0.42982006072998047,-1.112614631652832
1761131503058188300,5.739188232421875,-0.21723894774913788,0.5043455958366394,-1.0429760217666626
1761131503068187400,5.7491875,-0.17875444889068604,0.5458844304084778,-0.9446267485618591
1761131503078187500,5.7591875,-0.12744176387786865,0.5752059817314148,-0.8224536776542664
1761131503088187400,5.7691875,-0.06757696717977524,0.6033058166503906,-0.6795112490653992
1761131503098187500,5.7791875,-0.0016035212902352214,0.634459912776947,-0.5274057984352112
1761131503108187400,5.7891875,0.07658722996711731,0.6937138438224792,-0.3691916763782501
1761131503118187500,5.7991875,0.17676913738250732,0.7786241173744202,-0.20731239020824432
1761131503128187400,5.8091875,0.28733575344085693,0.8751408457756042,-0.04604396969079971
1761131503138187500,5.8191875,0.3911828398704529,0.9252317547798157,0.10361801832914352
1761131503148187400,5.8291875,0.4718170464038849,0.8867472410202026,0.23739750683307648
1761131503158187500,5.8391875,0.5237405896186829,0.7682393789291382,0.3565162420272827
1761131503168188400,5.8491884765625,0.5536729693412781,0.6301838755607605,0.4597524404525757
1761131503178188300,5.859188232421875,0.5665011405944824,0.521449863910675,0.5477170348167419
1761131503188188400,5.8691884765625,0.5304601192474365,0.46158504486083984,0.6417902708053589
1761131503198188300,5.879188232421875,0.46876272559165955,0.48601967096328735,0.6711118221282959
1761131503208188400,5.8891884765625,0.38201984763145447,0.5373323559761047,0.6741661429405212
1761131503218188300,5.899188232421875,0.2842814028263092,0.5984188914299011,0.6625596880912781
1761131503228188400,5.9091884765625,0.1932624876499176,0.6564510464668274,0.6430120468139648
1761131503238188300,5.919188232421875,0.12118039280176163,0.7022659778594971,0.6185774207115173
1761131503248188400,5.9291884765625,0.06925684958696365,0.7291440367698669,0.5880341529846191
1761131503258188300,5.939188232421875,0.04115704447031021,0.748080849647522,0.557490885257721
1761131503268187600,5.949187744140625,0.03504839166998863,0.7645742297172546,0.5300019383430481
1761131503278187500,5.9591875,0.03443752974271774,0.7615199089050293,0.4988478422164917
1761131503288187600,5.969187744140625,0.036880988627672195,0.7040985822677612,0.4646393656730652
1761131503298187500,5.9791875,0.052152618765830994,0.6222426295280457,0.4322635233402252
1761131503308187600,5.989187744140625,0.08513934165239334,0.566653847694397,0.4139375686645508
1761131503318187500,5.9991875,0.12118039280176163,0.5269476175308228,0.3980550765991211
1761131503328187100,6.009187255859375,0.14683672785758972,0.4683045744895935,0.3785073757171631
1761131503338187300,6.019187255859375,0.15722143650054932,0.3687335252761841,0.3522401750087738
1761131503348187100,6.029187255859375,0.1578323096036911,0.23434318602085114,0.31864258646965027
1761131503358187300,6.039187255859375,0.14622586965560913,0.08407033234834671,0.2722168266773224
1761131503368188200,6.049188232421875,0.12362385541200638,-0.072311170399189,0.20868684351444244
1761131503378188000,6.05918798828125,0.09491318464279175,-0.24029912054538727,0.1249983012676239
1761131503388188200,6.069188232421875,0.0668133869767189,-0.41745004057884216,0.026648996397852898
1761131503398188000,6.07918798828125,0.04421137273311615,-0.5579490661621094,-0.0771980956196785
1761131503408188200,6.089188232421875,0.022831087931990623,-0.6642395853996277,-0.17737999558448792
1761131503418188000,6.09918798828125,-0.014431691728532314,-0.8041277527809143,-0.31665727496147156
1761131503428188200,6.109188232421875,-0.047418415546417236,-0.82917320728302,-0.39240455627441406
1761131503438188000,6.11918798828125,-0.08773551881313324,-0.7949647307395935,-0.4559345543384552
1761131503448188200,6.129188232421875,-0.13171781599521637,-0.7271587252616882,-0.49930599331855774
1761131503458188000,6.13918798828125,-0.17386752367019653,-0.6239224672317505,-0.515188455581665
1761131503468187100,6.149187255859375,-0.20929770171642303,-0.5041928887367249,-0.49502992630004883
1761131503478187300,6.159187255859375,-0.23006711900234222,-0.42722389101982117,-0.43883031606674194
1761131503488187100,6.169187255859375,-0.22456933557987213,-0.4162282943725586,-0.3459787964820862
1761131503498187300,6.179187255859375,-0.1860848218202591,-0.43883031606674194,-0.21464277803897858
1761131503508187100,6.189187255859375,-0.13721559941768646,-0.47487136721611023,-0.0668133869767189
1761131503518187300,6.199187255859375,-0.10361801832914352,-0.534736156463623,0.06207918003201485
1761131503528187100,6.209187255859375,-0.10667234659194946,-0.6013205051422119,0.14698944985866547
1761131503538187300,6.219187255859375,-0.1353830099105835,-0.6318637132644653,0.18425223231315613
1761131503548187100,6.229187255859375,-0.180587038397789,-0.6691265106201172,0.1653154045343399
1761131503558187300,6.239187255859375,-0.22212587296962738,-0.7748062014579773,0.08529205620288849
1761131503568188000,6.24918798828125,-0.23861923813819885,-0.9647852778434753,-0.04054617881774902
1761131503578188000,6.25918798828125,-0.2160172164440155,-1.19202721118927,-0.18471038341522217
1761131503588188000,6.26918798828125,-0.16470454633235931,-1.3551281690597534,-0.32276591658592224
1761131503598188000,6.27918798828125,-0.11278099566698074,-1.3795628547668457,-0.444938987493515
1761131503608188000,6.28918798828125,-0.06879869848489761,-1.2714396715164185,-0.5481752157211304
1761131503618188000,6.29918798828125,-0.026648996397852898,-1.0967321395874023,-0.6355289220809937
1761131503628188000,6.30918798828125,0.03199406713247299,-0.9238573312759399,-0.7094436287879944
1761131503638188000,6.31918798828125,0.1126282811164856,-0.809625506401062,-0.7607563138008118
1761131503648188000,6.32918798828125,0.27756190299987793,-0.7265478372573853,-0.7662540674209595
1761131503658188000,6.33918798828125,0.3807981312274933,-0.6880633234977722,-0.7094436287879944
1761131503668187400,6.3491875,0.43760859966278076,-0.6147595047950745,-0.5976552963256836
1761131503678187300,6.359187255859375,0.4357759952545166,-0.47303876280784607,-0.43883031606674194
1761131503688187400,6.3691875,0.3899610936641693,-0.22014056146144867,-0.24213171005249023
1761131503698187300,6.379187255859375,0.3148246705532074,0.08651378750801086,-0.03565925732254982
1761131503708187400,6.3891875,0.2341904640197754,0.3216969072818756,0.14637859165668488
1761131503718187300,6.399187255859375,0.17676913738250732,0.42493313550949097,0.27466028928756714
1761131503728187400,6.4091875,0.14866933226585388,0.4121049642562866,0.3314707577228546
1761131503738187300,6.419187255859375,0.14378240704536438,0.2832123935222626,0.3168099820613861
1761131503748187400,6.4291875,0.16394096612930298,0.048029281198978424,0.24289529025554657
1761131503758187300,6.439187255859375,0.20486892759799957,-0.2335795909166336,0.13110695779323578
1761131503768188200,6.449188232421875,0.25740334391593933,-0.4516584873199463,0.02298380434513092
1761131503778188300,6.459188232421875,0.2946661114692688,-0.515188455581665,-0.0466548316180706
1761131503788188200,6.469188232421875,0.28611400723457336,-0.4620431959629059,-0.05948300287127495
1761131503798188300,6.479188232421875,0.23113614320755005,-0.30627256631851196,-0.01366810966283083
1761131503808188200,6.489188232421875,0.14866933226585388,-0.057650405913591385,0.09201157838106155
1761131503818188300,6.499188232421875,0.06620252132415771,0.2459496259689331,0.24839307367801666
1761131503828188200,6.509188232421875,-0.015653422102332115,0.5434409976005554,0.43104177713394165
1761131503838188300,6.519188232421875,-0.0944550409913063,0.7731263041496277,0.6228534579277039
1761131503848188200,6.529188232421875,-0.1604284793138504,0.9044623374938965,0.8006152510643005
1761131503858188300,6.539188232421875,-0.20196732878684998,0.9472229480743408,0.9643271565437317
1761131503868187400,6.5491875,-0.2215150147676468,0.9423360228538513,1.1042152643203735
1761131503878187300,6.559187255859375,-0.23923009634017944,0.8800277709960938,1.2068406343460083
1761131503888187400,6.5691875,-0.27832546830177307,0.6882160305976868,1.271592378616333
1761131503898187300,6.579187255859375,-0.3107013404369354,0.5281693339347839,1.253266453742981
1761131503908187400,6.5891875,-0.3363576829433441,0.3791182339191437,1.1811842918395996
1761131503928187400,6.6091875,-0.3620140254497528,0.09506590664386749,0.90018630027771
1761131503938187300,6.619187255859375,-0.3565162420272827,-0.0069485921412706375,0.7175375819206238
1761131503948187400,6.6291875,-0.3479641079902649,-0.0668133869767189,0.5324454307556152
1761131503958187300,6.639187255859375,-0.35407277941703796,-0.12301298975944519,0.3583488166332245
1761131503968188000,6.64918798828125,-0.3785073757171631,-0.18715384602546692,0.19952386617660522
1761131503978188000,6.65918798828125,-0.42004621028900146,-0.27145323157310486,0.0541379339993
1761131503988188000,6.66918798828125,-0.46647197008132935,-0.35819610953330994,-0.072311170399189
1761131503998188000,6.67918798828125,-0.5000695586204529,-0.4357759952545166,-0.17921258509159088
1761131504008188000,6.68918798828125,-0.5196172595024109,-0.5170210599899292,-0.26595544815063477
1761131504018188000,6.69918798828125,-0.5275585055351257,-0.580551028251648,-0.3300963044166565
1761131504028188200,6.709188232421875,-0.5263367891311646,-0.5726097822189331,-0.36858081817626953
1761131504038188000,6.71918798828125,-0.5257259011268616,-0.4956407845020294,-0.37774381041526794
1761131504048188200,6.729188232421875,-0.5354997515678406,-0.38873937726020813,-0.36735907196998596
1761131504058188000,6.73918798828125,-0.5532148480415344,-0.2903900742530823,-0.344757080078125
1761131504068187100,6.749187255859375,-0.5855907201766968,-0.21525363624095917,-0.3197115957736969
1761131504078187300,6.759187255859375,-0.6240752339363098,-0.192651629447937,-0.31787899136543274
1761131504088187100,6.769187255859375,-0.6595053672790527,-0.23113614320755005,-0.3490331172943115
1761131504098187300,6.779187255859375,-0.6869943141937256,-0.3392592966556549,-0.42355868220329285
1761131504108187100,6.789187255859375,-0.7059311270713806,-0.496862530708313,-0.545120894908905
1761131504118187300,6.799187255859375,-0.6717227101325989,-0.6721808314323425,-0.7515933513641357
1761131504128187100,6.809187255859375,-0.6014732122421265,-0.6996697783470154,-0.8701011538505554
1761131504138187300,6.819187255859375,-0.5037347674369812,-0.6092617511749268,-0.9470701813697815
1761131504148187100,6.829187255859375,-0.4023311138153076,-0.3948480188846588,-0.96173095703125
1761131504158187300,6.839187255859375,-0.3168099820613861,-0.11873693019151688,-0.9110291600227356
1761131504178188000,6.85918798828125,-0.27527114748954773,0.18730655312538147,-0.6544657349586487
1761131504188188200,6.869188232421875,-0.3076470196247101,0.18486309051513672,-0.49930599331855774
1761131504198188000,6.87918798828125,-0.33391422033309937,0.16775886714458466,-0.34231361746788025
1761131504208188200,6.889188232421875,-0.35101842880249023,0.17875444889068604,-0.20242546498775482
1761131504218188000,6.89918798828125,-0.37545305490493774,0.18975001573562622,-0.10346530377864838
1761131504228188200,6.909188232421875,-0.41577014327049255,0.18303050100803375,-0.04726569727063179
1761131504238188000,6.91918798828125,-0.46525025367736816,0.17875444889068604,-0.019776761531829834
1761131504248188200,6.929188232421875,-0.5067890882492065,0.23251058161258698,0.0009926559869199991
1761131504258188000,6.93918798828125,-0.5434409976005554,0.3412446081638336,0.024816401302814484
1761131504268187100,6.949187255859375,-0.5678756237030029,0.48113274574279785,0.06085744872689247
1761131504278187300,6.959187255859375,-0.5843689441680908,0.6124687790870667,0.1152244582772255
1761131504288187100,6.969187255859375,-0.5892558693885803,0.6992116570472717,0.18303050100803375
1761131504298187300,6.979187255859375,-0.5807037949562073,0.7358635663986206,0.25328001379966736
1761131504308187100,6.989187255859375,-0.5568800568580627,0.7224245071411133,0.3223077654838562
1761131504318187300,6.999187255859375,-0.5348888635635376,0.653396725654602,0.38095083832740784
1761131504328187100,7.009187255859375,-0.5257259011268616,0.5275585055351257,0.4218788146972656
1761131504338187300,7.019187255859375,-0.5257259011268616,0.3785073757171631,0.43531784415245056
1761131504348187100,7.029187255859375,-0.5226715803146362,0.16898059844970703,0.3986659348011017
1761131504358187300,7.039187255859375,-0.5006804466247559,0.07368562370538712,0.34063372015953064
1761131504368188000,7.04918798828125,-0.46586111187934875,0.03214678168296814,0.28504499793052673
1761131504378188000,7.05918798828125,-0.42493313550949097,0.0492510087788105,0.25328001379966736
1761131504388188000,7.06918798828125,-0.39133554697036743,0.11888964474201202,0.2557234764099121
1761131504398188000,7.07918798828125,-0.3723987340927124,0.2215150147676468,0.2832123935222626
1761131504408188000,7.08918798828125,-0.3620140254497528,0.3430771827697754,0.3369685411453247
1761131504418188000,7.09918798828125,-0.3638466000556946,0.443869948387146,0.4035528600215912
1761131504428188200,7.109188232421875,-0.37606391310691833,0.5012912750244141,0.47013717889785767
1761131504438188000,7.11918798828125,-0.39011383056640625,0.5354997515678406,0.5269476175308228
1761131504448188200,7.129188232421875,-0.40966150164604187,0.5318345427513123,0.5654321312904358
1761131504458188000,7.13918798828125,-0.4292092025279999,0.46158504486083984,0.5733733773231506
1761131504468187100,7.149187255859375,-0.4395939111709595,0.3284164369106293,0.5538256764411926
1761131504478187300,7.159187255859375,-0.43165266513824463,0.16898059844970703,0.5073999166488647
1761131504488187100,7.169187255859375,-0.40599632263183594,-0.008170322515070438,0.43470698595046997
1761131504498187000,7.17918701171875,-0.3778965175151825,-0.15416711568832397,0.3381902575492859
1761131504508187100,7.189187255859375,-0.3528510332107544,-0.2598468065261841,0.2215150147676468
1761131504518187000,7.19918701171875,-0.3326924741268158,-0.3490331172943115,0.08712465316057205
1761131504528187100,7.209187255859375,-0.31009048223495483,-0.4308890700340271,-0.06131559982895851
1761131504538187000,7.21918701171875,-0.2777146100997925,-0.516410231590271,-0.21769709885120392
1761131504548187100,7.229187255859375,-0.23434318602085114,-0.6049856543540955,-0.36796995997428894
1761131504558187000,7.23918701171875,-0.18669569492340088,-0.7088327407836914,-0.506636381149292
1761131504568188000,7.24918798828125,-0.1359938681125641,-0.7858017683029175,-0.6141486167907715
1761131504578188000,7.25918798828125,-0.09140071272850037,-0.7204391956329346,-0.6789003610610962
1761131504588188000,7.26918798828125,-0.08590292185544968,-0.5939900875091553,-0.648357093334198
1761131504598188000,7.27918798828125,-0.09567677229642868,-0.4162282943725586,-0.5634468197822571
1761131504608188000,7.28918798828125,-0.11155926436185837,-0.2036471962928772,-0.4308890700340271
1761131504618188000,7.29918798828125,-0.1347721517086029,-0.005115996580570936,-0.27634015679359436
1761131504628188000,7.30918798828125,-0.16287194192409515,0.13782647252082825,-0.13095423579216003
1761131504638188000,7.31918798828125,-0.1860848218202591,0.17753271758556366,-0.022220224142074585
1761131504648188000,7.32918798828125,-0.19708040356636047,0.10850493609905243,0.0339793786406517
1761131504658188000,7.33918798828125,-0.19708040356636047,-0.027718011289834976,0.036422841250896454
1761131504668187100,7.349187255859375,-0.19341520965099335,-0.19570595026016235,-0.0038942659739404917
1761131504678187000,7.35918701171875,-0.18364135921001434,-0.353920042514801,-0.06803511828184128
1761131504688187100,7.369187255859375,-0.1757001131772995,-0.4302782118320465,-0.12545645236968994
1761131504698187000,7.37918701171875,-0.18486309051513672,-0.36858081817626953,-0.17066048085689545
1761131504708187100,7.389187255859375,-0.20013472437858582,-0.18898643553256989,-0.19570595026016235
1761131504718187000,7.39918701171875,-0.20929770171642303,0.053527068346738815,-0.2030363380908966
1761131504728187100,7.409187255859375,-0.19402606785297394,0.2520582675933838,-0.19998200237751007
1761131504738187000,7.41918701171875,-0.14332425594329834,0.29481884837150574,-0.19692768156528473
1761131504748187100,7.429187255859375,-0.05841398984193802,0.17631098628044128,-0.19448421895503998
1761131504758187000,7.43918701171875,0.03810271993279457,-0.008170322515070438,-0.18715384602546692
1761131504768188000,7.44918798828125,0.12362385541200638,-0.18715384602546692,-0.1682170182466507
1761131504778188000,7.45918798828125,0.18471038341522217,-0.3300963044166565,-0.12301298975944519
1761131504788188000,7.46918798828125,0.2238057553768158,-0.3942371606826782,-0.036880988627672195
1761131504798188000,7.47918798828125,0.24640776216983795,-0.3362049460411072,0.09873109310865402
1761131504808188000,7.48918798828125,0.25190556049346924,-0.07108944654464722,0.38461601734161377
1761131504818188000,7.49918798828125,0.22747094929218292,0.16226108372211456,0.6039166450500488
1761131504828188000,7.50918798828125,0.1682170182466507,0.2862667143344879,0.8024478554725647
1761131504838188000,7.51918798828125,0.09491318464279175,0.25389087200164795,0.9405034184455872
1761131504848188000,7.52918798828125,0.01794416643679142,0.09140071272850037,0.9960921406745911
1761131504858188000,7.53918798828125,-0.04619668424129486,-0.16088663041591644,0.9655488729476929
1761131504868187100,7.549187255859375,-0.09384417533874512,-0.44371724128723145,0.8586474657058716
1761131504878187300,7.559187255859375,-0.13293954730033875,-0.7027240991592407,0.6973790526390076
1761131504888187100,7.569187255859375,-0.16287194192409515,-0.8621599078178406,0.5232824683189392
1761131504898187300,7.579187255859375,-0.2007455974817276,-0.8792641758918762,0.37972912192344666
1761131504908187100,7.589187255859375,-0.25816693902015686,-0.7564802765846252,0.28015807271003723
1761131504918187300,7.599187255859375,-0.32475122809410095,-0.5732206702232361,0.22945626080036163
1761131504928187100,7.609187255859375,-0.3980550765991211,-0.32643112540245056,0.23495404422283173
1761131504938187300,7.619187255859375,-0.48052188754081726,-0.057039543986320496,0.29970577359199524
1761131504948187100,7.629187255859375,-0.5660430192947388,0.16653713583946228,0.4041637182235718
1761131504958187300,7.639187255859375,-0.6466771960258484,0.3284164369106293,0.5391649603843689
1761131504968188200,7.649188232421875,-0.7126506567001343,0.44631341099739075,0.6863834857940674
1761131504978188000,7.65918798828125,-0.767017662525177,0.5293911099433899,0.8274933099746704
1761131504988188200,7.669188232421875,-0.8048913478851318,0.5843689441680908,0.9545533061027527
1761131504998188000,7.67918798828125,-0.8274933099746704,0.6002514362335205,1.0596221685409546
1761131505008188200,7.689188232421875,-0.8390997648239136,0.5831472277641296,1.137812852859497
1761131505018188000,7.69918798828125,-0.8470410108566284,0.5354997515678406,1.1811842918395996
1761131505028188200,7.709188232421875,-0.844597578048706,0.4683045744895935,1.195845127105713
1761131505038188000,7.71918798828125,-0.8397106528282166,0.3778965175151825,1.1707996129989624
1761131505048188200,7.729188232421875,-0.8397106528282166,0.1860848218202591,1.044350504875183
1761131505058188000,7.73918798828125,-0.8403214812278748,0.030314188450574875,0.9130144715309143
1761131505068187400,7.7491875,-0.8317694067955017,-0.12423472106456757,0.7621307373046875
1761131505078187300,7.759187255859375,-0.815886914730072,-0.2482403665781021,0.596586287021637
1761131505088187400,7.7691875,-0.8030587434768677,-0.353920042514801,0.41149410605430603
1761131505098187300,7.779187255859375,-0.7914522886276245,-0.42416954040527344,0.22029328346252441
1761131505108187400,7.7891875,-0.7731263041496277,-0.44371724128723145,0.03703370690345764
1761131505118187300,7.799187255859375,-0.757243812084198,-0.46876272559165955,-0.13523028790950775
1761131505128187100,7.809187255859375,-0.7456374168395996,-0.5274057984352112,-0.29710957407951355
1761131505138187300,7.819187255859375,-0.7260897159576416,-0.5964335799217224,-0.43821945786476135
1761131505148187100,7.829187255859375,-0.6986007690429688,-0.6721808314323425,-0.5597816109657288
1761131505158187300,7.839187255859375,-0.6680575013160706,-0.7503715753555298,-0.658130943775177
1761131505168188200,7.849188232421875,-0.6301838755607605,-0.809625506401062,-0.7296021580696106
1761131505178188000,7.85918798828125,-0.577038586139679,-0.8426122665405273,-0.7686975598335266
1761131505188188200,7.869188232421875,-0.5238932967185974,-0.8609381914138794,-0.7900778651237488
1761131505198188000,7.87918798828125,-0.4933500289916992,-0.8536078333854675,-0.8077929019927979
1761131505208188200,7.889188232421875,-0.49273917078971863,-0.8499426245689392,-0.8407796621322632
1761131505218188000,7.89918798828125,-0.5226715803146362,-0.9317985773086548,-0.9000335931777954
1761131505228188200,7.909188232421875,-0.5733733773231506,-1.1462122201919556,-0.9989937543869019
1761131505238188000,7.91918798828125,-0.6277403831481934,-1.4327080249786377,-1.1242210865020752
1761131505248188200,7.929188232421875,-0.644844651222229,-1.6825519800186157,-1.2500593662261963
1761131505258188000,7.93918798828125,-0.6191883087158203,-1.7967838048934937,-1.350852131843567
1761131505268187100,7.949187255859375,-0.5752059817314148,-1.741805911064148,-1.4125494956970215
1761131505278187300,7.959187255859375,-0.48052188754081726,-1.3380240201950073,-1.3978887796401978
1761131505288187100,7.969187255859375,-0.42004621028900146,-0.8829293251037598,-1.2977068424224854
1761131505298187300,7.979187255859375,-0.4084397852420807,-0.4009566605091095,-1.1272754669189453
1761131505308187100,7.989187255859375,-0.463417649269104,-0.08086328953504562,-0.9128617644309998
1761131505318187300,7.999187255859375,-0.5544365644454956,0.05597052723169327,-0.6880633234977722
1761131505328187100,8.009187255859375,-0.6485098004341125,0.048029281198978424,-0.4815908968448639
1761131505338187300,8.019187255859375,-0.7358635663986206,-0.10957395285367966,-0.32093334197998047
1761131505348187100,8.029187255859375,-0.7829001545906067,-0.33131805062294006,-0.19631682336330414
1761131505358187300,8.039187255859375,-0.7829001545906067,-0.45471280813217163,-0.082085020840168
1761131505368188000,8.04918798828125,-0.7712937593460083,-0.42355868220329285,0.035811975598335266
1761131505378188000,8.05918798828125,-0.7804567217826843,-0.2586250603199005,0.16653713583946228
1761131505388188000,8.06918798828125,-0.8146651387214661,0.03764457255601883,0.3070361316204071
1761131505398188000,8.07918798828125,-0.8678104281425476,0.40477457642555237,0.44631341099739075
1761131505408188000,8.08918798828125,-0.9460011720657349,0.7260897159576416,0.5678756237030029
1761131505418188000,8.09918798828125,-1.0419070720672607,0.8977428078651428,0.6601162552833557
1761131505428188400,8.1091884765625,-1.1310933828353882,0.8946884870529175,0.7034876942634583
1761131505438188300,8.119188232421875,-1.2086732387542725,0.7340309619903564,0.6967681646347046
1761131505448188400,8.1291884765625,-1.26304030418396,0.47074803709983826,0.6417902708053589
1761131505458188300,8.139188232421875,-1.2709815502166748,0.17692184448242188,0.5471062064170837
1761131505468187400,8.1491875,-1.2117276191711426,-0.05398521572351456,0.43653959035873413
1761131505478187500,8.1591875,-1.0950523614883423,-0.1578323096036911,0.3528510332107544
1761131505488187400,8.1691875,-0.9631054401397705,-0.12484558671712875,0.311312198638916
1761131505498187300,8.179187255859375,-0.8274933099746704,-0.004505131393671036,0.321086049079895
1761131505508187400,8.1891875,-0.6356816291809082,0.2661081850528717,0.45181119441986084
1761131505518187300,8.199187255859375,-0.5336671471595764,0.4231005311012268,0.6008623242378235
1761131505528187400,8.2091875,-0.4640285074710846,0.4933500289916992,0.7743480801582336
1761131505538187500,8.2191875,-0.43043091893196106,0.4487568736076355,0.9398925304412842
1761131505548187400,8.2291875,-0.42493313550949097,0.30031663179397583,1.0785589218139648
1761131505558187500,8.2391875,-0.4389830231666565,0.10117455571889877,1.1811842918395996
1761131505568188200,8.249188232421876,-0.4683045744895935,-0.09980010986328125,1.2386056184768677
1761131505578188300,8.259188232421875,-0.5208389759063721,-0.2580142021179199,1.2465468645095825
1761131505588188200,8.269188232421875,-0.595364511013031,-0.3453679382801056,1.205618977546692
1761131505598188300,8.279188232421875,-0.6906595230102539,-0.38385245203971863,1.1115456819534302
1761131505608188200,8.289188232421875,-0.7951174974441528,-0.4046218693256378,0.9741010069847107
1761131505618188300,8.299188232421875,-0.8940776586532593,-0.42844560742378235,0.7969500422477722
1761131505628188200,8.309188232421874,-0.9783770442008972,-0.4803691506385803,0.586812436580658
1761131505638188300,8.319188232421874,-1.0400744676589966,-0.5634468197822571,0.363235741853714
1761131505648188200,8.329188232421876,-1.0675634145736694,-0.6636287569999695,0.1451568603515625
1761131505658188300,8.339188232421876,-1.0596221685409546,-0.7595345973968506,-0.04237877577543259
1761131505668187400,8.3491875,-1.0309114456176758,-0.8529969453811646,-0.1883755773305893
1761131505678187500,8.3591875,-0.9905943274497986,-0.9464593529701233,-0.29772046208381653
1761131505688187400,8.3691875,-0.9514989852905273,-1.0606911182403564,-0.36247217655181885
1761131505698187500,8.3791875,-0.9087384343147278,-1.1510992050170898,-0.3698025345802307
1761131505708187400,8.3891875,-0.8592583537101746,-1.1969140768051147,-0.31238120794296265
1761131505718187500,8.3991875,-0.8128325939178467,-1.1944706439971924,-0.19570595026016235
1761131505728187100,8.409187255859376,-0.7883979678153992,-1.124832034111023,-0.03749185428023338
1761131505738187000,8.41918701171875,-0.8268824815750122,-0.9580658078193665,0.22029328346252441
1761131505748187100,8.429187255859375,-0.9111818671226501,-0.8401687741279602,0.36445748805999756
1761131505758187000,8.43918701171875,-1.0186941623687744,-0.716163158416748,0.48174360394477844
1761131505768188000,8.44918798828125,-1.1249847412109375,-0.5842162370681763,0.5733733773231506
1761131505778188000,8.45918798828125,-1.2196688652038574,-0.44799330830574036,0.6369034051895142
1761131505788188000,8.46918798828125,-1.3143529891967773,-0.3398701548576355,0.663781464099884
1761131505798188000,8.47918798828125,-1.4114805459976196,-0.2690097689628601,0.6497315168380737
1761131505808188000,8.48918798828125,-1.497612476348877,-0.18409951031208038,0.6081926822662354
1761131505818188000,8.49918798828125,-1.556255578994751,-0.06803511828184128,0.5519931316375732
1761131505828188200,8.509188232421875,-1.5788575410842896,0.07307475805282593,0.49762609601020813
1761131505838188000,8.51918798828125,-1.5788575410842896,0.18180876970291138,0.4420373737812042
1761131505848188200,8.529188232421875,-1.5641968250274658,0.21357376873493195,0.38033998012542725
1761131505858188000,8.53918798828125,-1.5330426692962646,0.12927435338497162,0.3058144152164459
1761131505868187100,8.549187255859374,-1.481119155883789,-0.0924697294831276,0.21846067905426025
1761131505878187300,8.559187255859374,-1.394376277923584,-0.39240455627441406,0.13232868909835815
1761131505888187100,8.569187255859376,-1.2758684158325195,-0.6416375637054443,0.06879869848489761
1761131505908187100,8.589187255859375,-1.0828349590301514,-0.7876343727111816,0.04253149405121803
1761131505918187300,8.599187255859375,-1.0712286233901978,-0.7186065912246704,0.08651378750801086
1761131505928187100,8.609187255859375,-1.1091022491455078,-0.6049856543540955,0.16470454633235931
1761131505938187300,8.619187255859375,-1.1793516874313354,-0.5145776271820068,0.25999951362609863
1761131505948187100,8.629187255859375,-1.2660945653915405,-0.5005277395248413,0.3571271002292633
1761131505958187300,8.639187255859374,-1.3729959726333618,-0.5689446330070496,0.4432590901851654
1761131505968188000,8.64918798828125,-1.5586990118026733,-0.9941068291664124,0.49701523780822754
1761131505978188000,8.65918798828125,-1.6747634410858154,-1.4540883302688599,0.46036332845687866
1761131505988188000,8.66918798828125,-1.7786104679107666,-1.9214003086090088,0.38033998012542725
1761131505998188000,8.67918798828125,-1.8543578386306763,-2.226832866668701,0.27893635630607605
1761131506008188000,8.68918798828125,-1.9160552024841309,-2.3001368045806885,0.18669569492340088
1761131506018188000,8.69918798828125,-1.9801959991455078,-2.128483533859253,0.12622003257274628
1761131506028188000,8.70918798828125,-2.06449556350708,-1.7479145526885986,0.10850493609905243
1761131506038188000,8.71918798828125,-2.165288209915161,-1.247615933418274,0.14760030806064606
1761131506048188000,8.72918798828125,-2.281963586807251,-0.7039458155632019,0.24900394678115845
1761131506058188000,8.73918798828125,-2.4120776653289795,-0.26106852293014526,0.3888920843601227
1761131506068187100,8.749187255859376,-2.536694288253784,-0.014278975315392017,0.5483279228210449
1761131506078187300,8.759187255859375,-2.625880718231201,0.06574437022209167,0.7114289402961731
1761131506088187100,8.769187255859375,-2.672917127609253,0.05597052723169327,0.8647561073303223
1761131506098187300,8.779187255859375,-2.686967134475708,-0.021609358489513397,0.9924269318580627
1761131506108187100,8.789187255859375,-2.6796367168426514,-0.17676913738250732,1.0871111154556274
1761131506118187300,8.799187255859374,-2.650926113128662,-0.38385245203971863,1.1372020244598389
1761131506128187100,8.809187255859374,-2.6020569801330566,-0.6141486167907715,1.135980248451233
1761131506138187000,8.81918701171875,-2.5544092655181885,-0.857883870601654,1.0693960189819336
1761131506148187100,8.829187255859376,-2.5293638706207275,-1.104062557220459,0.9356164932250977
1761131506158187000,8.83918701171875,-2.5397486686706543,-1.3276392221450806,0.7609090209007263
1761131506168188000,8.84918798828125,-2.6038894653320312,-1.514564037322998,0.5623778104782104
1761131506178188000,8.85918798828125,-2.723008155822754,-1.6739999055862427,0.35407277941703796
1761131506188188200,8.869188232421875,-2.8842766284942627,-1.8138879537582397,0.13232868909835815
1761131506198188000,8.87918798828125,-3.077920913696289,-1.920789361000061,-0.10407616943120956
1761131506208188200,8.889188232421875,-3.351588487625122,-1.997758388519287,-0.4553236961364746
1761131506218188000,8.89918798828125,-3.4957528114318848,-2.041740655899048,-0.6825655698776245
1761131506228188000,8.90918798828125,-3.597156286239624,-2.114433765411377,-0.9024770259857178
1761131506238188000,8.91918798828125,-3.6631298065185547,-2.2250003814697266,-1.1211668252944946
1761131506248188000,8.92918798828125,-3.7071120738983154,-2.3758840560913086,-1.3465760946273804
1761131506258188000,8.93918798828125,-3.7608683109283447,-2.553035020828247,-1.5817592144012451
1761131506268187100,8.949187255859375,-3.8250091075897217,-2.7613399028778076,-1.8120553493499756
1761131506278187300,8.959187255859375,-3.8805978298187256,-2.9781970977783203,-2.019138813018799
1761131506288187100,8.969187255859374,-3.909919261932373,-3.1150310039520264,-2.184072256088257
1761131506298187300,8.979187255859374,-3.895258665084839,-3.128469944000244,-2.2781455516815186
1761131506308187100,8.989187255859376,-3.840280771255493,-3.0288989543914795,-2.290973663330078
1761131506318187300,8.999187255859376,-3.7578139305114746,-2.8248698711395264,-2.2225568294525146
1761131506328187100,9.009187255859375,-3.685731887817383,-2.5628087520599365,-2.0826687812805176
1761131506338187300,9.019187255859375,-3.644192934036255,-2.3221278190612793,-1.882915735244751
1761131506348187100,9.029187255859375,-3.6289212703704834,-2.161470413208008,-1.6330718994140625
1761131506358187300,9.039187255859375,-3.6179258823394775,-2.089388132095337,-1.35940420627594
1761131506368188000,9.04918798828125,-3.602043390274048,-2.100383758544922,-1.074741005897522
1761131506378188000,9.05918798828125,-3.577608585357666,-2.154139995574951,-0.7961865067481995
1761131506388188000,9.06918798828125,-3.5543956756591797,-2.2274436950683594,-0.5426774024963379
1761131506398188000,9.07918798828125,-3.5427894592285156,-2.3025801181793213,-0.3392592966556549
1761131506408188000,9.08918798828125,-3.540956735610962,-2.349005937576294,-0.1987602859735489
1761131506418188000,9.09918798828125,-3.526906967163086,-2.3086888790130615,-0.10407616943120956
1761131506428188200,9.109188232421875,-3.493920087814331,-2.2017874717712402,-0.039324451237916946
1761131506438188000,9.11918798828125,-3.4310009479522705,-1.8987982273101807,0.07368562370538712
1761131506448188200,9.129188232421875,-3.415729284286499,-1.5768722295761108,0.18730655312538147
1761131506458188000,9.13918798828125,-3.451770544052124,-1.1999684572219849,0.3180317282676697
1761131506468187100,9.149187255859376,-3.5452327728271484,-0.781525731086731,0.45120033621788025
1761131506478187300,9.159187255859376,-3.672292709350586,-0.3355940878391266,0.5568800568580627
1761131506488187100,9.169187255859375,-3.7993526458740234,0.10056369006633759,0.6271295547485352
1761131506498187300,9.179187255859375,-3.915417194366455,0.49090659618377686,0.6607271432876587
1761131506508187100,9.189187255859375,-4.003992557525635,0.748691737651825,0.6387359499931335
1761131506518187300,9.199187255859375,-4.060802936553955,0.7664068341255188,0.5440518856048584
1761131506528187100,9.209187255859375,-4.058359622955322,0.5599343776702881,0.3772856593132019
1761131506538187300,9.219187255859374,-4.003992557525635,0.13171781599521637,0.13660474121570587
1761131506548187100,9.229187255859374,-3.881208658218384,-0.5084689855575562,-0.17004960775375366
1761131506558187300,9.239187255859376,-3.6814558506011963,-1.1181124448776245,-0.4956407845020294
1761131506568188000,9.24918798828125,-3.407788038253784,-1.6141350269317627,-0.7992408275604248
1761131506578188000,9.25918798828125,-3.0931925773620605,-1.9366718530654907,-1.0478630065917969
1761131506588188000,9.26918798828125,-2.770655632019043,-1.8890243768692017,-1.1846967935562134
1761131506598188000,9.27918798828125,-2.446897029876709,-1.4699708223342896,-1.162705659866333
1761131506608188000,9.28918798828125,-2.1549034118652344,-0.8591055870056152,-0.991052508354187
1761131506618188000,9.29918798828125,-1.927661657333374,-0.3044399619102478,-0.7076110243797302
1761131506628188000,9.30918798828125,-1.7834974527359009,0.12255483865737915,-0.3600287139415741
1761131506638188000,9.31918798828125,-1.7010306119918823,0.43531784415245056,0.021762074902653694
1761131506648188000,9.32918798828125,-1.6747634410858154,0.605749249458313,0.3888920843601227
1761131506658188000,9.33918798828125,-1.6765960454940796,0.6197991371154785,0.7065420150756836
1761131506668187100,9.349187255859375,-1.690035104751587,0.4829653203487396,1.0761154890060425
1761131506678187300,9.359187255859375,-1.6747634410858154,0.3357468247413635,1.243492603302002
1761131506688187100,9.369187255859375,-1.6289485692977905,0.17447838187217712,1.33878755569458
1761131506698187300,9.379187255859375,-1.5489251613616943,0.038866300135850906,1.3595569133758545
1761131506708187100,9.389187255859374,-1.4371368885040283,-0.04237877577543259,1.3125203847885132
1761131506718187000,9.39918701171875,-1.3119094371795654,-0.07658722996711731,1.2086732387542725
1761131506728187100,9.409187255859376,-1.1860712766647339,-0.05826127156615257,1.0626764297485352
1761131506738187000,9.41918701171875,-1.0614547729492188,-0.03627012297511101,0.8934667706489563
1761131506748187100,9.429187255859375,-0.9368382096290588,-0.05642867833375931,0.7114289402961731
1761131506758187000,9.43918701171875,-0.806113064289093,-0.15050192177295685,0.5269476175308228
1761131506768188000,9.44918798828125,-0.6643922924995422,-0.32704198360443115,0.3412446081638336
1761131506778188000,9.45918798828125,-0.5147303342819214,-0.4809800088405609,0.17631098628044128
1761131506788188000,9.46918798828125,-0.36567920446395874,-0.5316818356513977,0.04680754989385605
1761131506798188000,9.47918798828125,-0.2355649173259735,-0.47364965081214905,-0.04482223838567734
1761131506808188000,9.48918798828125,-0.1298852264881134,-0.3850741684436798,-0.11507174372673035
1761131506818188000,9.49918798828125,-0.036422841250896454,-0.32765284180641174,-0.17982345819473267
1761131506828188000,9.50918798828125,0.05520694702863693,-0.3856850564479828,-0.23602305352687836
1761131506838188000,9.51918798828125,0.182877779006958,-0.5982661247253418,-0.26717719435691833
1761131506848188000,9.52918798828125,0.32643112540245056,-0.8566621541976929,-0.2500729560852051
1761131506858188000,9.53918798828125,0.4400520622730255,-1.019152283668518,-0.15722143650054932
1761131506868187100,9.549187255859374,0.5029711723327637,-1.0032697916030884,0.010155634954571724
1761131506878187000,9.55918701171875,0.49808424711227417,-0.8450556993484497,0.22456933557987213
1761131506888187100,9.569187255859376,0.42416954040527344,-0.5836054086685181,0.44509169459342957
1761131506898187000,9.57918701171875,0.24701863527297974,-0.0014508049935102463,0.7340309619903564
1761131506908187100,9.589187255859375,0.12545645236968994,0.4432590901851654,0.8763625621795654
1761131506918187000,9.59918701171875,0.024663684889674187,0.6937138438224792,0.9502772688865662
1761131506928187100,9.609187255859375,-0.03520110994577408,0.6992116570472717,0.9551641941070557
1761131506938187000,9.61918701171875,-0.05169447138905525,0.5073999166488647,0.8934667706489563
1761131506948187100,9.629187255859375,-0.0290924571454525,0.17631098628044128,0.7511351704597473
1761131506958187000,9.63918701171875,0.011835514567792416,-0.20914499461650848,0.5452736020088196
1761131506968188000,9.64918798828125,0.048487428575754166,-0.5029711723327637,0.3271946907043457
1761131506978188000,9.65918798828125,0.08269587904214859,-0.5762749910354614,0.1359938681125641
1761131506988188000,9.66918798828125,0.11201741546392441,-0.45349109172821045,-0.000839939690195024
1761131506998188000,9.67918798828125,0.1529453843832016,-0.17676913738250732,-0.08147415518760681
1761131507008188000,9.68918798828125,0.1877647042274475,0.19891299307346344,-0.11568260937929153
1761131507018188000,9.69918798828125,0.1981494128704071,0.5263367891311646,-0.14133894443511963
1761131507028188000,9.70918798828125,0.18226692080497742,0.6894378066062927,-0.18715384602546692
1761131507038188000,9.71918798828125,0.15355625748634338,0.6802747845649719,-0.2580142021179199
1761131507048188000,9.72918798828125,0.14133894443511963,0.5556582808494568,-0.3404810130596161
1761131507058188000,9.73918798828125,0.1480584591627121,0.3791182339191437,-0.4308890700340271
1761131507068187100,9.749187255859376,0.17127133905887604,0.1854739636182785,-0.5286275148391724
1761131507078187000,9.75918701171875,0.19204075634479523,0.041920628398656845,-0.62880939245224
1761131507088187100,9.769187255859375,0.20914499461650848,-0.028939740732312202,-0.7253261208534241
1761131507098187000,9.77918701171875,0.21952970325946808,-0.04726569727063179,-0.8169559240341187
1761131507108187100,9.789187255859375,0.20547980070114136,-0.04482223838567734,-0.8933140635490417
1761131507118187300,9.799187255859374,0.1578323096036911,-0.07536549866199493,-0.9464593529701233
1761131507128187100,9.809187255859374,0.08513934165239334,-0.23480132222175598,-0.9446267485618591
1761131507138187000,9.81918701171875,0.08513934165239334,-0.32093334197998047,-0.8725446462631226
1761131507148187100,9.829187255859376,0.12667818367481232,-0.37224599719047546,-0.7448738217353821
1761131507158187000,9.83918701171875,0.19692768156528473,-0.33742669224739075,-0.5622251033782959
1761131507168188000,9.84918798828125,0.2726749777793884,-0.1938733607530594,-0.34292447566986084
1761131507178188000,9.85918798828125,0.3136029541492462,-0.030161472037434578,-0.12423472106456757
1761131507188188200,9.869188232421875,0.3099377453327179,0.07551821321249008,0.06330090761184692
1761131507198188000,9.87918798828125,0.2751184403896332,0.09323330968618393,0.21235203742980957
1761131507208188200,9.889188232421875,0.23113614320755005,0.02298380434513092,0.3357468247413635
1761131507218188000,9.89918798828125,0.18409951031208038,-0.030772335827350616,0.44081562757492065
1761131507228188000,9.90918798828125,0.11995866149663925,-0.07047858089208603,0.5159520506858826
1761131507238188000,9.91918798828125,0.04237877577543259,-0.08880453556776047,0.5403866767883301
1761131507248188000,9.92918798828125,-0.04375322163105011,-0.05276348441839218,0.5128977298736572
1761131507258188000,9.93918798828125,-0.12622003257274628,0.011988230049610138,0.43653959035873413
1761131507268187100,9.949187255859375,-0.18730655312538147,0.060246583074331284,0.32536208629608154
1761131507278187300,9.959187255859375,-0.22212587296962738,0.047418415546417236,0.20013472437858582
1761131507288187100,9.969187255859374,-0.22701279819011688,-0.05337435007095337,0.07307475805282593
1761131507298187300,9.979187255859374,-0.20318904519081116,-0.19509509205818176,-0.039324451237916946
1761131507308187100,9.989187255859376,-0.15920674800872803,-0.3105486333370209,-0.1321759670972824
1761131507318187300,9.999187255859376,-0.11339186131954193,-0.3942371606826782,-0.2036471962928772
1761131507328187100,10.009187255859375,-0.08101600408554077,-0.45471280813217163,-0.2604576647281647
1761131507338187300,10.019187255859375,-0.06391177326440811,-0.5035820603370667,-0.29161179065704346
1761131507348187100,10.029187255859375,-0.059635721147060394,-0.49502992630004883,-0.2793944776058197
1761131507358187300,10.039187255859375,-0.06818783283233643,-0.4162282943725586,-0.21281017363071442
1761131507368188000,10.04918798828125,-0.11705705523490906,-0.2781727612018585,-0.05948300287127495
1761131507378188000,10.05918798828125,-0.1653154045343399,-0.2244166135787964,0.04069889709353447
1761131507388188000,10.06918798828125,-0.20318904519081116,-0.1987602859735489,0.12866349518299103
1761131507398188000,10.07918798828125,-0.2264019250869751,-0.19020816683769226,0.19463694095611572
1761131507408188000,10.08918798828125,-0.23739750683307648,-0.21586450934410095,0.2312888503074646
1761131507418188000,10.09918798828125,-0.23373231291770935,-0.2726749777793884,0.23312145471572876
1761131507428188200,10.109188232421875,-0.21357376873493195,-0.33253976702690125,0.19891299307346344
1761131507438188000,10.11918798828125,-0.1757001131772995,-0.3557526469230652,0.1353830099105835
1761131507448188200,10.129188232421875,-0.12805262207984924,-0.3300963044166565,0.07185302674770355
1761131507458188000,10.13918798828125,-0.07002042979001999,-0.27572929859161377,0.021151209250092506
1761131507468187100,10.149187255859376,-0.018707748502492905,-0.23724478483200073,-0.016722436994314194
1761131507478187300,10.159187255859376,0.011835514567792416,-0.26656633615493774,-0.04909829422831535
1761131507488187100,10.169187255859375,0.010002918541431427,-0.36369389295578003,-0.08636107295751572
1761131507498187000,10.17918701171875,-0.024816401302814484,-0.47975829243659973,-0.132786825299263
1761131507508187100,10.189187255859375,-0.0797942727804184,-0.600098729133606,-0.2085341215133667
1761131507518187000,10.19918701171875,-0.14271339774131775,-0.6379724144935608,-0.31299206614494324
1761131507528187100,10.209187255859375,-0.2013564556837082,-0.6117051839828491,-0.4571562707424164
1761131507538187000,10.21918701171875,-0.23251058161258698,-0.5701663494110107,-0.6153703927993774
1761131507548187100,10.229187255859374,-0.2062433809041977,-0.45471280813217163,-0.7296021580696106
1761131507558187300,10.239187255859376,-0.1152244582772255,-0.2335795909166336,-0.7735844850540161
1761131507568188000,10.24918798828125,0.015500705689191818,0.06269004940986633,-0.7296021580696106
1761131507578188000,10.25918798828125,0.15477798879146576,0.330859899520874,-0.6007096171379089
1761131507588188000,10.26918798828125,0.18898643553256989,0.5733733773231506,-0.18959729373455048
1761131507598188000,10.27918798828125,0.09002626687288284,0.03764457255601883,0.34918585419654846
1761131507608188000,10.28918798828125,0.10835222154855728,-0.5206862688064575,0.5043455958366394
1761131507618188000,10.29918798828125,0.18959729373455048,-1.007545828819275,0.5055673718452454
1761131507628188000,10.30918798828125,0.22258402407169342,-1.2024118900299072,0.47685667872428894
1761131507638188000,10.31918798828125,0.11873693019151688,-1.2048553228378296,0.41149410605430603
1761131507648188000,10.32918798828125,-0.03703370690345764,-0.991052508354187,0.31986430287361145
