time,seconds_elapsed,z,y,x
1761131485156738300,0.11773828125,0.42078113555908203,-0.9538834095001221,-0.3594719171524048
1761131485216737000,0.177737060546875,-0.8473882675170898,-0.7686352729797363,-0.5816695094108582
1761131485226736600,0.187736572265625,-1.2789835929870605,-0.6862654685974121,-0.658881425857544
1761131485236736500,0.197736572265625,-1.628150463104248,-0.6110811233520508,-0.7460840940475464
1761131485246736100,0.207736083984375,-1.8867511749267578,-0.6074233055114746,-0.781120777130127
1761131485256736000,0.217736083984375,-2.149960517883301,-0.6396439075469971,-0.7886286973953247
1761131485266733300,0.2277333984375,-2.1321487426757812,-0.6822168827056885,-0.7846466898918152
1761131485276733200,0.237733154296875,-2.397122383117676,-0.6509919166564941,-0.7272429466247559
1761131485286733300,0.2477333984375,-2.4213500022888184,-0.5897889137268066,-0.690072238445282
1761131485296733200,0.257733154296875,-2.413724422454834,-0.6076478958129883,-0.6917910575866699
1761131485306733000,0.267733154296875,-2.297919273376465,-0.5030155181884766,-0.6839110255241394
1761131485316733000,0.27773291015625,-2.0329856872558594,-0.40103578567504883,-0.477691113948822
1761131485326733000,0.287733154296875,-1.8310375213623047,-0.4187030792236328,-0.40282130241394043
1761131485336733000,0.29773291015625,-1.537989616394043,-0.37592339515686035,-0.39023563265800476
1761131485346677200,0.30767724609375,-1.2609763145446777,-0.39858317375183105,-0.5226618051528931
1761131485356624600,0.317624755859375,-1.2696871757507324,-0.3785135746002197,-0.5398311614990234
1761131485366574600,0.32757470703125,-0.875706672668457,-0.5101978778839111,-0.5796250104904175
1761131485376526800,0.33752685546875,-0.7748441696166992,-0.5515882968902588,-0.5551822781562805
1761131485386481400,0.3474814453125,-0.7608985900878906,-0.5273702144622803,-0.5732718706130981
1761131485396438000,0.35743798828125,-0.7833652496337891,-0.45490169525146484,-0.6367875337600708
1761131485406396200,0.367396240234375,-0.7419052124023438,-0.35764551162719727,-0.6810644268989563
1761131485416356000,0.377356201171875,-0.6534242630004883,-0.24248981475830078,-0.7038969397544861
1761131485426317600,0.387317626953125,-0.6473855972290039,-0.17362689971923828,-0.6778136491775513
1761131485436280600,0.397280517578125,-0.6064577102661133,-0.13904905319213867,-0.635417640209198
1761131485446244900,0.407244873046875,-0.5954208374023438,-0.0928642749786377,-0.5718477964401245
1761131485456210400,0.41721044921875,-0.5691099166870117,-0.01992058753967285,-0.5256866216659546
1761131485466176300,0.42717626953125,-0.4706554412841797,0.05965876579284668,-0.4794345796108246
1761131485476142800,0.437142822265625,-0.3389263153076172,0.12566494941711426,-0.34211206436157227
1761131485486109400,0.447109375,-0.16501522064208984,0.1365811824798584,-0.24812157452106476
1761131485496076000,0.457075927734375,0.13916969299316406,0.13913369178771973,-0.14149025082588196
1761131485506043000,0.46704296875,0.4988994598388672,0.06763935089111328,0.006600633263587952
1761131485516009500,0.477009521484375,0.7235984802246094,-0.08134317398071289,0.06329372525215149
1761131485525976000,0.48697607421875,0.8720855712890625,-0.22512435913085938,0.12183627486228943
1761131485535943000,0.49694287109375,1.013479232788086,-0.20748066902160645,0.11295586824417114
1761131485545909500,0.506909423828125,1.2191343307495117,-0.044019222259521484,0.11833351850509644
1761131485555876400,0.51687646484375,1.6515617370605469,0.08640551567077637,0.18217650055885315
1761131485565843700,0.52684375,1.999821662902832,0.11421799659729004,0.38440728187561035
1761131485575810600,0.536810546875,2.229022979736328,0.12885093688964844,0.6503128409385681
1761131485585777200,0.546777099609375,2.2112550735473633,0.17959022521972656,0.6086448431015015
1761131485595743700,0.55674365234375,2.3687944412231445,0.17749667167663574,1.158949375152588
1761131485605710300,0.56671044921875,2.261782646179199,0.225358247756958,1.3597986698150635
1761131485615677200,0.57667724609375,2.2036705017089844,0.2986874580383301,1.5290625095367432
1761131485625643000,0.58664306640625,2.265658378601074,0.466292142868042,1.4249894618988037
1761131485635609600,0.596609619140625,2.4493465423583984,0.5110042095184326,1.0587742328643799
1761131485645609500,0.606609375,2.64422607421875,0.39371514320373535,0.7871898412704468
1761131485655609600,0.616609619140625,2.711742401123047,0.0981895923614502,0.6491213440895081
1761131485665608700,0.626608642578125,2.6286468505859375,-0.16144466400146484,0.5542528629302979
1761131485675608800,0.63660888671875,2.49666690826416,-0.2054145336151123,0.4568023681640625
1761131485685608700,0.646608642578125,2.285994529724121,0.017510652542114258,0.3178069591522217
1761131485695608800,0.65660888671875,2.0581283569335938,0.2498626708984375,0.3064846396446228
1761131485705608700,0.666608642578125,1.811966896057129,0.4727628231048584,0.48149919509887695
1761131485715608800,0.67660888671875,1.466374397277832,0.6103148460388184,0.7940690517425537
1761131485725608700,0.686608642578125,1.109395980834961,0.727435827255249,1.247743844985962
1761131485735608800,0.69660888671875,0.7972993850708008,0.7822468280792236,1.6031427383422852
1761131485745608700,0.706608642578125,0.4615821838378906,0.7627577781677246,1.7816152572631836
1761131485755608800,0.71660888671875,0.1919403076171875,0.6324658393859863,1.7138235569000244
1761131485765609500,0.726609375,0.0050716400146484375,0.4019782543182373,1.4168224334716797
1761131485775609600,0.736609619140625,-0.1340322494506836,0.13914895057678223,0.9755247235298157
1761131485785609500,0.746609375,-0.13249683380126953,0.13414621353149414,0.9804325103759766
1761131485795609600,0.756609619140625,-0.2600831985473633,-0.5277416706085205,0.28206777572631836
1761131485805609500,0.766609375,-0.3189506530761719,-0.719923734664917,-0.04546293616294861
1761131485815609600,0.776609619140625,-0.42226505279541016,-0.8581411838531494,-0.3543420732021332
1761131485825609200,0.786609130859375,-0.5824642181396484,-0.9736292362213135,-0.5562843084335327
1761131485835609300,0.796609375,-0.8384866714477539,-1.0207934379577637,-0.7398524284362793
1761131485845609200,0.806609130859375,-1.1195850372314453,-0.9816899299621582,-0.8492299318313599
1761131485855609300,0.816609375,-1.4295759201049805,-0.8469865322113037,-0.7300794720649719
1761131485865608400,0.8266083984375,-1.830190658569336,-0.6538040637969971,-0.38353827595710754
1761131485875608300,0.8366083984375,-2.165616512298584,-0.46227431297302246,0.0689479410648346
1761131485885608400,0.8466083984375,-2.527026653289795,-0.3078176975250244,0.5411273241043091
1761131485895608300,0.8566083984375,-2.8144640922546387,-0.18834590911865234,0.8740203380584717
1761131485905608400,0.8666083984375,-3.043311595916748,0.021264076232910156,1.0411499738693237
1761131485915608300,0.8766083984375,-3.171630382537842,0.1661853790283203,0.9871569275856018
1761131485925609200,0.886609130859375,-3.1958131790161133,0.24011921882629395,0.8649568557739258
1761131485935609300,0.896609375,-3.217434883117676,0.23622941970825195,0.7305173873901367
1761131485945609200,0.906609130859375,-3.290266990661621,0.20510196685791016,0.6370840668678284
1761131485955609300,0.916609375,-3.307821750640869,0.1326770782470703,0.5027692914009094
1761131485965610000,0.92660986328125,-3.2283477783203125,0.05240988731384277,0.3953523337841034
1761131485975610000,0.936610107421875,-3.020226001739502,0.05448627471923828,0.19880205392837524
1761131485995610000,0.956610107421875,-2.1725025177001953,0.03609657287597656,-0.2780417203903198
1761131486005610000,0.96660986328125,-1.6811604499816895,-0.0013713836669921875,-0.4906805157661438
1761131486015610000,0.976610107421875,-1.244753360748291,-0.07100582122802734,-0.5712757706642151
1761131486025610200,0.9866103515625,-0.8233375549316406,-0.16485977172851562,-0.600418210029602
1761131486035610000,0.996610107421875,-0.8342008590698242,-0.14108014106750488,-0.5938239693641663
1761131486045610200,1.0066103515625,-0.10770130157470703,-0.1417222023010254,-0.8483893871307373
1761131486055610000,1.016610107421875,0.009395599365234375,-0.02587270736694336,-1.081624984741211
1761131486065609200,1.026609130859375,0.0832681655883789,0.15848064422607422,-1.2758588790893555
1761131486075609300,1.036609375,0.09568595886230469,0.4024484157562256,-1.401771903038025
1761131486085609200,1.046609130859375,0.17651653289794922,0.7507519721984863,-1.416603446006775
1761131486095609300,1.056609375,0.2579631805419922,0.9831745624542236,-1.2958478927612305
1761131486105609200,1.066609130859375,0.3917827606201172,1.161123275756836,-1.0678213834762573
1761131486115609300,1.076609375,0.6151409149169922,1.2992362976074219,-0.7982820272445679
1761131486125609500,1.086609375,0.7844753265380859,1.421532392501831,-0.7135809063911438
1761131486135609600,1.096609619140625,1.0785331726074219,1.4871513843536377,-0.6664708852767944
1761131486145609500,1.106609375,1.4911279678344727,1.3390204906463623,-0.6292733550071716
1761131486155609600,1.116609619140625,1.8781423568725586,1.1891536712646484,-0.5441553592681885
1761131486165610500,1.126610595703125,1.8588438034057617,1.234323263168335,-0.5700661540031433
1761131486175610400,1.1366103515625,2.5693931579589844,1.1342835426330566,-0.6139954328536987
1761131486185610500,1.146610595703125,3.024825096130371,1.1394879817962646,-0.7205690145492554
1761131486195610400,1.1566103515625,2.994656562805176,1.2132432460784912,-0.7151767015457153
1761131486205610500,1.166610595703125,4.008416175842285,0.9607818126678467,-0.9426385164260864
1761131486215610400,1.1766103515625,4.186643600463867,0.7116138935089111,-0.9500916600227356
1761131486225610500,1.186610595703125,3.897693634033203,0.3378875255584717,-0.8415220975875854
1761131486235610400,1.1966103515625,3.375849723815918,-0.01407313346862793,-0.7199387550354004
1761131486245610500,1.206610595703125,2.871434211730957,0.0021753311157226562,-0.8197169303894043
1761131486255610400,1.2166103515625,2.4424524307250977,0.4037344455718994,-1.0768166780471802
1761131486265609700,1.226609619140625,1.98089599609375,0.9868392944335938,-1.4036924839019775
1761131486275609600,1.236609619140625,1.7271108627319336,1.475048542022705,-1.5206691026687622
1761131486285609500,1.246609375,1.5181379318237305,1.8705754280090332,-1.5074232816696167
1761131486295609600,1.256609619140625,1.4583282470703125,2.042970657348633,-1.3492786884307861
1761131486305609700,1.266609619140625,1.5345115661621094,1.9782710075378418,-1.0372987985610962
1761131486315609600,1.276609619140625,1.6458349227905273,1.5958609580993652,-0.5471096038818359
1761131486325609500,1.286609375,1.8015403747558594,1.0258822441101074,0.2151007056236267
1761131486335609600,1.296609619140625,2.096689224243164,0.39791226387023926,0.6866847276687622
1761131486345609500,1.306609375,2.3394479751586914,-0.09354615211486816,0.8845565319061279
1761131486355609600,1.316609619140625,2.4719133377075195,-0.4742705821990967,0.9497435092926025
1761131486365610500,1.326610595703125,2.4907712936401367,-0.6976537704467773,1.0127158164978027
1761131486375610400,1.3366103515625,2.3375329971313477,-0.8900649547576904,1.0983670949935913
1761131486385610500,1.346610595703125,2.343440055847168,-0.897122859954834,1.025305986404419
1761131486395610400,1.3566103515625,1.520503044128418,-1.287630319595337,1.1876977682113647
1761131486405610500,1.366610595703125,0.813075065612793,-1.4283430576324463,1.171525001525879
1761131486415610400,1.3766103515625,-0.06970787048339844,-1.5208311080932617,1.1387367248535156
1761131486425610500,1.386610595703125,-0.944767951965332,-1.607405424118042,1.1095778942108154
1761131486435610400,1.3966103515625,-1.9078011512756348,-1.643117904663086,0.9616403579711914
1761131486445610500,1.406610595703125,-2.680115222930908,-1.6755375862121582,0.7418116331100464
1761131486455610400,1.4166103515625,-3.358071804046631,-1.7570066452026367,0.5252385139465332
1761131486465609500,1.426609375,-3.9588022232055664,-1.8553199768066406,0.3494070768356323
1761131486475609600,1.436609619140625,-4.511094570159912,-2.034420967102051,0.250905305147171
1761131486485609500,1.446609375,-4.970294952392578,-2.199570655822754,0.12113063037395477
1761131486495609600,1.456609619140625,-5.360069274902344,-2.3232221603393555,-0.04758314788341522
1761131486505609500,1.466609375,-5.5917744636535645,-2.3779220581054688,-0.20202377438545227
1761131486515609600,1.476609619140625,-5.727456092834473,-2.3871188163757324,-0.3757197856903076
1761131486525609500,1.486609375,-5.723814010620117,-2.386488199234009,-0.49904125928878784
1761131486535609600,1.496609619140625,-5.656761169433594,-2.3312265872955322,-0.5883767604827881
1761131486545609500,1.506609375,-5.424596309661865,-2.2394661903381348,-0.63841712474823
1761131486555609600,1.516609619140625,-5.0613861083984375,-2.2500147819519043,-0.6287486553192139
1761131486565610500,1.526610595703125,-4.741837501525879,-2.2654080390930176,-0.5761159062385559
1761131486575610400,1.5366103515625,-4.2571330070495605,-2.193429946899414,-0.5884785652160645
1761131486585610500,1.546610595703125,-3.6327261924743652,-2.0787017345428467,-0.6133981943130493
1761131486595610400,1.5566103515625,-2.972442626953125,-1.9590446949005127,-0.7975914478302002
1761131486608966400,1.56996630859375,-2.1838974952697754,-1.7728891372680664,-0.9941825866699219
1761131486618966300,1.57996630859375,-2.2034106254577637,-1.7410483360290527,-1.0038889646530151
1761131486628966400,1.58996630859375,-1.475234031677246,-1.4930222034454346,-1.1387403011322021
1761131486638966500,1.599966552734375,-1.274075984954834,-1.4021961688995361,-1.0512588024139404
1761131486648966400,1.60996630859375,-0.9388260841369629,-1.1554594039916992,-1.0610642433166504
1761131486658966500,1.619966552734375,-0.4632854461669922,-0.7631001472473145,-1.0885952711105347
1761131486668965600,1.629965576171875,0.07176876068115234,-0.2507047653198242,-1.1751989126205444
1761131486678965800,1.6399658203125,0.6570940017700195,0.2273392677307129,-1.2372589111328125
1761131486688965600,1.649965576171875,1.2143926620483398,0.40410423278808594,-1.2154921293258667
1761131486698965500,1.659965576171875,1.7738571166992188,0.3614659309387207,-1.1764349937438965
1761131486708965600,1.669965576171875,2.432826042175293,0.15197038650512695,-1.1804077625274658
1761131486718965500,1.679965576171875,3.1142005920410156,-0.0013132095336914062,-1.318733811378479
1761131486728965600,1.689965576171875,4.117910385131836,-0.1002206802368164,-1.6650667190551758
1761131486738965500,1.699965576171875,4.902962684631348,-0.14224624633789062,-2.1040453910827637
1761131486748965600,1.709965576171875,5.5688066482543945,-0.25566554069519043,-2.377828598022461
1761131486758965500,1.719965576171875,6.021515846252441,-0.3193979263305664,-2.5052990913391113
1761131486768966400,1.72996630859375,6.160966873168945,-0.36783790588378906,-2.4240474700927734
1761131486778966500,1.739966552734375,5.8945722579956055,-0.35641956329345703,-2.1792407035827637
1761131486788966400,1.74996630859375,5.2710371017456055,-0.3093414306640625,-1.8068714141845703
1761131486798966500,1.759966552734375,4.590089797973633,-0.20541048049926758,-1.4692635536193848
1761131486808966400,1.76996630859375,4.209540367126465,-0.004334688186645508,-1.3269453048706055
1761131486818966500,1.779966552734375,4.295614242553711,0.2212526798248291,-1.45777428150177
1761131486828966400,1.78996630859375,4.286646842956543,0.3197627067565918,-1.5411332845687866
1761131486838966500,1.799966552734375,4.268463134765625,0.3790576457977295,-1.5504131317138672
1761131486848966400,1.80996630859375,4.102782249450684,0.2122178077697754,-1.3452060222625732
1761131486858966500,1.819966552734375,3.1195993423461914,-0.3672323226928711,-0.0037634968757629395
1761131486868965600,1.829965576171875,2.4368553161621094,-0.3876194953918457,0.665324330329895
1761131486878965500,1.839965576171875,1.8576278686523438,-0.26262688636779785,1.13931405544281
1761131486888965600,1.849965576171875,1.376093864440918,0.01980304718017578,1.3346588611602783
1761131486898965500,1.859965576171875,0.8811864852905273,0.3056626319885254,1.4248281717300415
1761131486908966000,1.8699658203125,0.27764034271240234,0.3150756359100342,1.6114628314971924
1761131486918966000,1.879966064453125,-0.2476034164428711,0.2251293659210205,1.7336432933807373
1761131486928966000,1.8899658203125,-0.7796964645385742,0.1113593578338623,1.7009975910186768
1761131486938965800,1.8999658203125,-1.233790397644043,0.048462867736816406,1.527775764465332
1761131486948966000,1.9099658203125,-1.5799140930175781,-0.01442265510559082,1.3293079137802124
1761131486958965800,1.9199658203125,-1.9887995719909668,-0.12873315811157227,1.0837886333465576
1761131486968966700,1.929966552734375,-2.3718409538269043,-0.27338314056396484,0.8586922883987427
1761131486978966500,1.939966552734375,-2.7237424850463867,-0.48412585258483887,0.7167636752128601
1761131486988966700,1.949966552734375,-3.001063823699951,-0.6313648223876953,0.5588582754135132
1761131486998966800,1.959966796875,-3.2196741104125977,-0.6683838367462158,0.3539222478866577
1761131487008966700,1.969966552734375,-3.3088173866271973,-0.5506033897399902,0.16433334350585938
1761131487018966800,1.979966796875,-3.386995315551758,-0.3942587375640869,-0.023660778999328613
1761131487028966700,1.989966552734375,-3.44858455657959,-0.28913450241088867,-0.10266122221946716
1761131487038966800,1.999966796875,-3.5626325607299805,-0.259814977645874,-0.06953063607215881
1761131487048966700,2.009966552734375,-3.5472769737243652,-0.22234225273132324,-0.034063100814819336
1761131487058966800,2.019966796875,-3.542065143585205,-0.18966054916381836,0.0794619619846344
1761131487068966000,2.0299658203125,-3.488041400909424,-0.17895293235778809,0.15262532234191895
1761131487078966000,2.039966064453125,-3.398015022277832,-0.18369150161743164,0.24938902258872986
1761131487088966000,2.0499658203125,-3.330416679382324,-0.12993407249450684,0.3212559223175049
1761131487098966000,2.059966064453125,-3.123318672180176,-0.10437893867492676,0.34759214520454407
1761131487108966000,2.0699658203125,-2.8927087783813477,-0.023314476013183594,0.2737479507923126
1761131487118965800,2.0799658203125,-2.6536865234375,0.03127932548522949,0.11755567789077759
1761131487128966000,2.0899658203125,-2.272582530975342,0.0963752269744873,0.05250859260559082
1761131487138965800,2.0999658203125,-1.7042241096496582,0.21504712104797363,-0.07302343845367432
1761131487148966000,2.1099658203125,-1.1281633377075195,0.25974035263061523,-0.130967378616333
1761131487158965800,2.1199658203125,-1.13983154296875,0.29633092880249023,-0.1841006577014923
1761131487168966700,2.129966552734375,0.04800128936767578,0.19537663459777832,-0.0360909104347229
1761131487178966800,2.139966796875,0.5931596755981445,0.11588788032531738,0.09809952974319458
1761131487188966700,2.149966552734375,0.9231328964233398,0.055773258209228516,0.24638605117797852
1761131487198966800,2.159966796875,1.1157703399658203,0.028987646102905273,0.3420425057411194
1761131487208966700,2.169966552734375,1.2482271194458008,0.045603275299072266,0.31537342071533203
1761131487218966800,2.179966796875,1.315627098083496,0.18309259414672852,0.13719117641448975
1761131487228966700,2.189966552734375,1.2726221084594727,0.44167280197143555,-0.21783292293548584
1761131487238966800,2.199966796875,1.2298202514648438,0.6902945041656494,-0.6091436147689819
1761131487248966700,2.209966552734375,1.1471023559570312,0.9537992477416992,-0.8246734738349915
1761131487258966800,2.219966796875,1.1129264831542969,1.0313351154327393,-0.8712632060050964
1761131487268966000,2.2299658203125,1.1144065856933594,1.0750298500061035,-0.7635071277618408
1761131487278965800,2.2399658203125,1.164505958557129,1.127323865890503,-0.6262549757957458
1761131487288966000,2.2499658203125,1.3287029266357422,1.1725993156433105,-0.4914587140083313
1761131487298965800,2.2599658203125,1.5719175338745117,1.1774308681488037,-0.41377294063568115
1761131487308966000,2.2699658203125,1.8308486938476562,1.214869499206543,-0.4131539463996887
1761131487318965800,2.2799658203125,2.0046939849853516,1.270658254623413,-0.3790247440338135
1761131487328966000,2.2899658203125,2.239461898803711,1.3449997901916504,-0.3305002748966217
1761131487338965800,2.2999658203125,2.6144113540649414,1.3921382427215576,-0.27812913060188293
1761131487348966000,2.3099658203125,3.065927505493164,1.3917651176452637,-0.2791976034641266
1761131487358965800,2.3199658203125,3.4354753494262695,1.2170581817626953,-0.25604307651519775
1761131487368966700,2.329966552734375,3.7679920196533203,0.6972060203552246,0.010670185089111328
1761131487378966500,2.339966552734375,3.656588554382324,0.1702582836151123,0.27879446744918823
1761131487388966700,2.349966552734375,3.2703561782836914,-0.3173189163208008,0.5162715315818787
1761131487398966800,2.359966796875,2.8671741485595703,-0.5947239398956299,0.5416644811630249
1761131487408966700,2.369966552734375,2.460606575012207,-0.4954664707183838,0.2831577658653259
1761131487418966800,2.379966796875,2.0293827056884766,-0.2100212574005127,-0.11505824327468872
1761131487428966700,2.389966552734375,1.7387752532958984,0.20296525955200195,-0.642964243888855
1761131487438966800,2.399966796875,1.6984186172485352,0.5119526386260986,-1.0747898817062378
1761131487448966700,2.409966552734375,1.7231159210205078,0.5940432548522949,-1.4569391012191772
1761131487458966800,2.419966796875,1.7543716430664062,0.35433292388916016,-1.625436782836914
1761131487468966000,2.4299658203125,1.7436399459838867,-0.08710289001464844,-1.3221198320388794
1761131487478965800,2.4399658203125,1.6887121200561523,-0.6498208045959473,-0.6728404760360718
1761131487488966000,2.4499658203125,1.6018562316894531,-1.0732762813568115,-0.08945828676223755
1761131487498965800,2.4599658203125,1.4952611923217773,-1.260606288909912,0.28265881538391113
1761131487508966000,2.4699658203125,1.4914569854736328,-1.23030686378479,0.22078937292099
1761131487518965800,2.4799658203125,0.8726158142089844,-1.1306930780410767,0.5639579892158508
1761131487528966000,2.4899658203125,0.3480186462402344,-0.9981813430786133,0.5413482189178467
1761131487538965800,2.4999658203125,-0.35195446014404297,-0.9685056209564209,0.38402241468429565
1761131487548966000,2.5099658203125,-1.101822853088379,-1.0076682567596436,0.28492850065231323
1761131487558965800,2.5199658203125,-1.877413272857666,-1.0757430791854858,0.15301614999771118
1761131487568966700,2.529966552734375,-2.580333709716797,-1.1353858709335327,0.0018498897552490234
1761131487578966800,2.539966796875,-3.1921892166137695,-1.1778312921524048,-0.20834451913833618
1761131487588966700,2.549966552734375,-3.7909302711486816,-1.167675256729126,-0.4163745939731598
1761131487598966800,2.559966796875,-4.2864766120910645,-1.127812147140503,-0.6457582712173462
1761131487608966700,2.569966552734375,-4.6580281257629395,-1.1021735668182373,-0.7626122832298279
1761131487618966500,2.579966552734375,-4.90980863571167,-1.0882351398468018,-0.9220141172409058
1761131487638966800,2.599966796875,-5.054806709289551,-0.8361485004425049,-1.2163163423538208
1761131487648966700,2.609966552734375,-5.02821159362793,-0.9041533470153809,-1.2084013223648071
1761131487658966800,2.619966796875,-5.113762378692627,-0.75925612449646,-1.1933605670928955
1761131487668966000,2.6299658203125,-4.773542881011963,-0.5010256767272949,-0.7774771451950073
1761131487678965800,2.6399658203125,-4.278635025024414,-0.41584348678588867,-0.6320649981498718
1761131487688966000,2.6499658203125,-4.273209571838379,-0.4220466613769531,-0.6862906813621521
1761131487698965800,2.6599658203125,-2.996717929840088,-0.6045794486999512,-0.3655708432197571
1761131487708966000,2.6699658203125,-2.3522610664367676,-0.9154932498931885,-0.19170525670051575
1761131487718965800,2.6799658203125,-1.634373664855957,-1.2816765308380127,-0.025665223598480225
1761131487728966000,2.6899658203125,-1.1289281845092773,-1.4345982074737549,0.03986680507659912
1761131487738965800,2.6999658203125,-0.6316728591918945,-1.3988182544708252,-0.08636975288391113
1761131487748966000,2.7099658203125,-0.1280040740966797,-1.3198566436767578,-0.3958960771560669
1761131487758965800,2.7199658203125,0.3628387451171875,-1.1979892253875732,-0.718654453754425
1761131487768966700,2.729966552734375,0.8098392486572266,-1.1645026206970215,-0.8933166265487671
1761131487778966500,2.739966552734375,1.2153148651123047,-1.2087068557739258,-0.9836490154266357
1761131487788966700,2.749966552734375,1.4784297943115234,-1.351057529449463,-1.034060001373291
1761131487798966500,2.759966552734375,1.718632698059082,-1.4714977741241455,-1.1077572107315063
1761131487808966700,2.769966552734375,2.0687999725341797,-1.4021527767181396,-1.3171257972717285
1761131487818966800,2.779966796875,2.5217103958129883,-1.0747556686401367,-1.720056176185608
1761131487828966700,2.789966552734375,3.0541934967041016,-0.7090280055999756,-2.111370086669922
1761131487838966800,2.799966796875,3.4730958938598633,-0.5132055282592773,-2.4428062438964844
1761131487848966700,2.809966552734375,3.9131345748901367,-0.42051053047180176,-2.462721109390259
1761131487858966800,2.819966796875,4.214900016784668,-0.4094359874725342,-2.2800228595733643
1761131487868966000,2.8299658203125,4.522068023681641,-0.3114340305328369,-1.9480009078979492
1761131487878965800,2.8399658203125,4.791553497314453,-0.09973764419555664,-1.7061247825622559
1761131487888966000,2.8499658203125,5.220471382141113,0.16536855697631836,-1.6868854761123657
1761131487898965800,2.8599658203125,5.733724594116211,0.3976874351501465,-1.853708267211914
1761131487908966000,2.8699658203125,6.2414960861206055,0.5276336669921875,-1.9911859035491943
1761131487918965800,2.8799658203125,6.771903038024902,0.5046329498291016,-2.0307719707489014
1761131487928966000,2.8899658203125,6.8634796142578125,0.2769637107849121,-1.9329125881195068
1761131487938965800,2.8999658203125,6.460965156555176,-0.16108322143554688,-1.5811834335327148
1761131487948966000,2.9099658203125,5.378791809082031,-0.7593835592269897,-0.9132250547409058
1761131487958965800,2.9199658203125,4.128290176391602,-1.1300628185272217,-0.4300636053085327
1761131487968966700,2.929966552734375,2.87371826171875,-1.1272716522216797,-0.10287106037139893
1761131487978966500,2.939966552734375,1.7060022354125977,-0.7954009771347046,0.03598201274871826
1761131487988966700,2.949966552734375,1.710312843322754,-0.8676565885543823,0.20588505268096924
1761131487998966500,2.959966552734375,-0.15936946868896484,0.006844282150268555,0.4448179304599762
1761131488008966700,2.969966552734375,-0.8724126815795898,0.4569888114929199,0.6415742635726929
1761131488018966500,2.979966552734375,-1.3122310638427734,0.7453262805938721,0.8388906121253967
1761131488028966700,2.989966552734375,-1.6234431266784668,0.9265413284301758,1.0551780462265015
1761131488038966500,2.999966552734375,-1.8523764610290527,0.899101972579956,1.3000372648239136
1761131488048966700,3.009966552734375,-1.8990931510925293,0.645458459854126,1.525146722793579
1761131488058966800,3.019966796875,-1.8715887069702148,0.4171569347381592,1.5489819049835205
1761131488068966000,3.0299658203125,-1.7498478889465332,0.25003504753112793,1.5709670782089233
1761131488078965800,3.0399658203125,-1.50199556350708,-0.02693963050842285,1.641674280166626
1761131488088966000,3.0499658203125,-1.458735466003418,-0.2882883548736572,1.630897879600525
1761131488098965800,3.0599658203125,-1.578148365020752,-0.501821756362915,1.481289267539978
1761131488108966000,3.0699658203125,-1.7355751991271973,-0.5719406604766846,1.065929889678955
1761131488118965800,3.0799658203125,-1.8606610298156738,-0.632080078125,0.5656452178955078
1761131488128966000,3.0899658203125,-1.9502463340759277,-0.6054439544677734,0.046990856528282166
1761131488138965800,3.0999658203125,-2.126546859741211,-0.5816516876220703,-0.3227844536304474
1761131488148966000,3.1099658203125,-2.2041163444519043,-0.6138067245483398,-0.47764381766319275
1761131488158965800,3.1199658203125,-2.2596335411071777,-0.6311779022216797,-0.5391485691070557
1761131488168966700,3.129966552734375,-2.3418169021606445,-0.6358680725097656,-0.5414861440658569
1761131488178966500,3.139966552734375,-2.3968167304992676,-0.633779764175415,-0.45651888847351074
1761131488188966700,3.149966552734375,-2.3155651092529297,-0.6782903671264648,-0.26065686345100403
1761131488198966800,3.159966796875,-2.2642335891723633,-0.6952230930328369,-0.00984656810760498
1761131488208966700,3.169966552734375,-2.224483013153076,-0.7082176208496094,0.2967168390750885
1761131488218966800,3.179966796875,-2.179989814758301,-0.7101068496704102,0.5987644195556641
1761131488228966700,3.189966552734375,-2.1097240447998047,-0.6455183029174805,0.8301217555999756
1761131488238966800,3.199966796875,-1.883033275604248,-0.5133543014526367,0.9056745767593384
1761131488248966700,3.209966552734375,-1.6114134788513184,-0.40564560890197754,0.8620902299880981
1761131488258966800,3.219966796875,-1.353459358215332,-0.39386820793151855,0.7508401870727539
1761131488268966000,3.2299658203125,-0.9996118545532227,-0.44328808784484863,0.6781601905822754
1761131488278965800,3.2399658203125,-0.9998588562011719,-0.44419145584106445,0.6515406370162964
1761131488288966000,3.2499658203125,-0.6830778121948242,-0.5853269100189209,0.65643310546875
1761131488298965800,3.2599658203125,-0.0972442626953125,-0.6051502227783203,0.578125536441803
1761131488308966000,3.2699658203125,0.09485626220703125,-0.5326926708221436,0.4480997920036316
1761131488318965800,3.2799658203125,0.2536945343017578,-0.39522886276245117,0.2634025812149048
1761131488328966000,3.2899658203125,0.3013153076171875,-0.27457427978515625,0.008514031767845154
1761131488338965800,3.2999658203125,0.224334716796875,-0.10659432411193848,-0.19558021426200867
1761131488348966000,3.3099658203125,0.10747146606445312,0.02692413330078125,-0.2806597650051117
1761131488358965800,3.3199658203125,0.10905933380126953,0.026493549346923828,-0.24131238460540771
1761131488368966700,3.329966552734375,-0.20244121551513672,0.39576244354248047,-0.1981290578842163
1761131488378966500,3.339966552734375,-0.1958904266357422,0.3800995349884033,-0.1787818968296051
1761131488388966700,3.349966552734375,-0.20288848876953125,0.758204460144043,0.006722807884216309
1761131488398966500,3.359966552734375,0.05286121368408203,0.9901540279388428,0.09260216355323792
1761131488408966700,3.369966552734375,0.5170984268188477,1.2402863502502441,0.019577890634536743
1761131488418966500,3.379966552734375,1.0547113418579102,1.4254262447357178,-0.054346948862075806
1761131488428966700,3.389966552734375,1.4877080917358398,1.585137128829956,0.024239644408226013
1761131488438966500,3.399966552734375,1.8789615631103516,1.5967075824737549,0.18943871557712555
1761131488448966700,3.409966552734375,2.0211944580078125,1.5451619625091553,0.45060068368911743
1761131488458966500,3.419966552734375,2.0498790740966797,1.5368309020996094,0.7319778800010681
1761131488468966000,3.4299658203125,2.0382814407348633,1.7297682762145996,0.9020555019378662
1761131488478965800,3.4399658203125,2.0878686904907227,2.1779675483703613,0.9690394997596741
1761131488488966000,3.4499658203125,1.9618911743164062,2.4206082820892334,0.9410735964775085
1761131488498965800,3.4599658203125,1.8349294662475586,2.357710599899292,0.8504546880722046
1761131488508966000,3.4699658203125,1.752263069152832,2.0185964107513428,0.7350897789001465
1761131488518965800,3.4799658203125,1.666274070739746,1.5386145114898682,0.4838588535785675
1761131488528966000,3.4899658203125,1.551152229309082,1.0581145286560059,0.0992087572813034
1761131488538965800,3.4999658203125,1.4781513214111328,0.7751493453979492,-0.2386520802974701
1761131488548966000,3.5099658203125,1.2137250900268555,0.5497574806213379,-0.47980546951293945
1761131488558965800,3.5199658203125,0.8558349609375,0.3369746208190918,-0.606368899345398
1761131488568966700,3.529966552734375,0.43058300018310547,0.20456981658935547,-0.6989553570747375
1761131488578966800,3.539966796875,0.088592529296875,0.19667553901672363,-0.7601277828216553
1761131488588966700,3.549966552734375,-0.2495708465576172,0.3102602958679199,-0.9105772972106934
1761131488598966800,3.559966796875,-0.4671974182128906,0.4227149486541748,-1.0063387155532837
1761131488608966700,3.569966552734375,-0.5197219848632812,0.5505540370941162,-1.0408145189285278
1761131488618966800,3.579966796875,-0.39624977111816406,0.5833559036254883,-0.9810665249824524
1761131488628966700,3.589966552734375,-0.08836078643798828,0.5426070690155029,-0.9637107253074646
1761131488638966800,3.599966796875,0.35957908630371094,0.41973400115966797,-0.9124877452850342
1761131488648966700,3.609966552734375,0.9468374252319336,0.23253846168518066,-0.6572489738464355
1761131488658966800,3.619966796875,1.5179691314697266,-0.09586977958679199,-0.3053209185600281
1761131488668966000,3.6299658203125,1.8968219757080078,-0.5063340663909912,0.05970156192779541
1761131488678965800,3.6399658203125,2.0441646575927734,-0.8639965057373047,0.46741044521331787
1761131488688966000,3.6499658203125,1.9278984069824219,-1.14442777633667,0.794646680355072
1761131488698965800,3.6599658203125,1.4909791946411133,-1.4113609790802002,0.9408526420593262
1761131488708966000,3.6699658203125,0.9421844482421875,-1.4983186721801758,0.9348125457763672
1761131488718965800,3.6799658203125,0.9383373260498047,-1.4908289909362793,0.9485347867012024
1761131488728966000,3.6899658203125,-0.5233869552612305,-1.4620883464813232,0.3053482174873352
1761131488738965800,3.6999658203125,-1.351926326751709,-1.4440860748291016,-0.0443650484085083
1761131488748966000,3.7099658203125,-2.140267848968506,-1.4730079174041748,-0.3179687261581421
1761131488758965800,3.7199658203125,-2.929348945617676,-1.566216230392456,-0.5224995017051697
1761131488768966700,3.729966552734375,-3.5588583946228027,-1.6821680068969727,-0.6325348615646362
1761131488778966800,3.739966796875,-4.1098408699035645,-1.7562921047210693,-0.6573454737663269
1761131488788966700,3.749966552734375,-4.082154750823975,-1.8256733417510986,-0.5755394697189331
1761131488798966800,3.759966796875,-4.7494049072265625,-1.627849817276001,-0.8318460583686829
1761131488808966700,3.769966552734375,-4.856019973754883,-1.544701337814331,-0.9013949036598206
1761131488818966800,3.779966796875,-4.899466037750244,-1.504265546798706,-0.9296373128890991
1761131488828966700,3.789966552734375,-4.883288860321045,-1.5407371520996094,-0.9169374704360962
1761131488838966800,3.799966796875,-4.834570407867432,-1.4613893032073975,-0.8894926905632019
1761131488848966700,3.809966552734375,-4.65576696395874,-1.4086658954620361,-0.9147762656211853
1761131488858966800,3.819966796875,-4.359323501586914,-1.3119752407073975,-0.9507223963737488
1761131488868966000,3.8299658203125,-3.904508113861084,-1.1942548751831055,-0.972403883934021
1761131488878965800,3.8399658203125,-3.921633243560791,-1.1552519798278809,-1.027564287185669
1761131488888966000,3.8499658203125,-2.279155731201172,-0.9099538326263428,-0.8114590644836426
1761131488898965800,3.8599658203125,-2.3092336654663086,-0.8367390632629395,-0.8826249837875366
1761131488908966000,3.8699658203125,-0.5888214111328125,-0.7827022075653076,-0.6608753800392151
1761131488918965800,3.8799658203125,0.13132858276367188,-0.7294878959655762,-0.5482559204101562
1761131488928965600,3.889965576171875,0.7992210388183594,-0.560844898223877,-0.48208144307136536
1761131488938965800,3.8999658203125,1.4737119674682617,-0.3574063777923584,-0.3919782340526581
1761131488948965600,3.909965576171875,1.4419984817504883,-0.2628295421600342,-0.4480900764465332
1761131488958965800,3.9199658203125,1.836709976196289,-0.0661311149597168,-0.25514769554138184
1761131488968966700,3.929966552734375,2.2286739349365234,-0.23043107986450195,0.31622314453125
1761131488978966500,3.939966552734375,2.3250598907470703,-0.26207900047302246,0.36007148027420044
1761131488988966700,3.949966552734375,2.4202146530151367,-0.1342923641204834,0.13016986846923828
1761131488998966500,3.959966552734375,2.529125213623047,0.04112553596496582,-0.18748119473457336
1761131489008966700,3.969966552734375,2.8073225021362305,0.14145135879516602,-0.40849238634109497
1761131489018966500,3.979966552734375,3.271023750305176,0.1768653392791748,-0.6215943098068237
1761131489028966000,3.9899658203125,3.742701530456543,0.20716047286987305,-0.9122533798217773
1761131489038965800,3.9999658203125,4.085688591003418,0.23612642288208008,-1.177474856376648
1761131489048966000,4.0099658203125,4.455305099487305,0.24318289756774902,-1.428209662437439
1761131489058965800,4.0199658203125,4.633415222167969,0.23740911483764648,-1.5229426622390747
1761131489068965000,4.029965087890625,4.691603660583496,0.21069121360778809,-1.4895459413528442
1761131489078965000,4.039965087890625,4.6727190017700195,0.28879261016845703,-1.5117568969726562
1761131489088965000,4.049965087890625,4.385119438171387,0.11841559410095215,-1.0439331531524658
1761131489098965000,4.059965087890625,4.272039413452148,0.2275712490081787,-0.9247515797615051
1761131489108965000,4.069965087890625,4.283512115478516,0.3845040798187256,-1.074524164199829
1761131489118965000,4.079965087890625,4.427204132080078,0.4601857662200928,-1.2292182445526123
1761131489128965000,4.089965087890625,4.409266471862793,0.5363454818725586,-1.191420078277588
1761131489138965000,4.099965087890625,4.335751533508301,-0.0612795352935791,-1.0127915143966675
1761131489148965000,4.109965087890625,3.860245704650879,-0.46152210235595703,-0.6723626255989075
1761131489158965000,4.119965087890625,3.1822471618652344,-0.6984920501708984,-0.18471243977546692
1761131489168966000,4.1299658203125,2.4126110076904297,-0.7432008981704712,0.3614557385444641
1761131489178966000,4.139966064453125,1.7601432800292969,-0.5613447427749634,0.7444525361061096
1761131489188966000,4.1499658203125,1.1342811584472656,-0.38536536693573,1.1105397939682007
1761131489198966000,4.159966064453125,0.5302829742431641,-0.2045423984527588,1.4562578201293945
1761131489208966000,4.1699658203125,-0.08346366882324219,-0.06419682502746582,1.7737317085266113
1761131489218966000,4.179966064453125,-0.6265058517456055,0.05888175964355469,1.9720932245254517
1761131489228966000,4.1899658203125,-1.2910480499267578,0.05619549751281738,2.162811756134033
1761131489238966000,4.199966064453125,-1.825338363647461,-0.0656440258026123,2.2942724227905273
1761131489248966000,4.2099658203125,-2.2881407737731934,-0.19496417045593262,2.285654306411743
1761131489258966000,4.219966064453125,-2.699948787689209,-0.28324055671691895,2.1663644313812256
1761131489268965000,4.229965087890625,-3.0108304023742676,-0.31716012954711914,1.9806710481643677
1761131489278965000,4.239965087890625,-3.2564759254455566,-0.2827937602996826,1.7709563970565796
1761131489288965000,4.249965087890625,-3.382162570953369,-0.31046581268310547,1.4843686819076538
1761131489298965000,4.259965087890625,-3.4432692527770996,-0.2917025089263916,1.2262895107269287
1761131489308965000,4.269965087890625,-3.394068717956543,-0.3161509037017822,0.8884238600730896
1761131489318965000,4.279965087890625,-3.26029634475708,-0.3887450695037842,0.6068813800811768
1761131489328966000,4.2899658203125,-3.218494415283203,-0.4958610534667969,0.3616577982902527
1761131489338965800,4.2999658203125,-3.179537773132324,-0.5138499736785889,0.159737229347229
1761131489348966000,4.3099658203125,-3.159834861755371,-0.49762654304504395,0.1116335391998291
1761131489358965800,4.3199658203125,-3.13515567779541,-0.4131317138671875,0.1781022548675537
1761131489368966700,4.329966552734375,-3.0287938117980957,-0.3113102912902832,0.23761504888534546
1761131489378966500,4.339966552734375,-2.814396858215332,-0.21872973442077637,0.20472395420074463
1761131489388966700,4.349966552734375,-2.652836322784424,-0.13718056678771973,0.11814969778060913
1761131489398966500,4.359966552734375,-2.5417566299438477,-0.13670778274536133,0.06782805919647217
1761131489408966700,4.369966552734375,-2.5358314514160156,-0.14940404891967773,0.09015476703643799
1761131489418966500,4.379966552734375,-2.4605813026428223,-0.01729869842529297,0.1347661018371582
1761131489428966400,4.38996630859375,-2.4557433128356934,-0.03505349159240723,0.13265275955200195
1761131489438966300,4.39996630859375,-2.3904242515563965,0.08962845802307129,0.15750044584274292
1761131489448966400,4.40996630859375,-1.822309970855713,0.2039475440979004,0.160442054271698
1761131489458966300,4.41996630859375,-1.8256468772888184,0.20029878616333008,0.11674648523330688
1761131489468965600,4.429965576171875,-1.0799970626831055,0.39324069023132324,0.20768249034881592
1761131489478965500,4.439965576171875,-0.7222528457641602,0.4888646602630615,0.27693116664886475
1761131489488965600,4.449965576171875,-0.3088512420654297,0.602034330368042,0.31625473499298096
1761131489498965500,4.459965576171875,0.08884334564208984,0.7369649410247803,0.30532291531562805
1761131489508965600,4.469965576171875,0.43789196014404297,0.8061971664428711,0.3049681782722473
1761131489518965500,4.479965576171875,0.425933837890625,0.8419349193572998,0.2743414044380188
1761131489528965600,4.489965576171875,0.7705469131469727,0.7092370986938477,0.16038945317268372
1761131489538965500,4.499965576171875,0.7423563003540039,0.725761890411377,-0.07569682598114014
1761131489548965600,4.509965576171875,0.6625986099243164,0.8509337902069092,-0.42914295196533203
1761131489558965500,4.519965576171875,0.6632261276245117,0.8574860095977783,-0.3952810764312744
1761131489568966400,4.52996630859375,0.2816324234008789,1.100407361984253,-0.9210065603256226
1761131489578966500,4.539966552734375,0.07295703887939453,1.234950065612793,-1.015254259109497
1761131489588966400,4.54996630859375,-0.03071880340576172,1.440366268157959,-1.1014773845672607
1761131489598966500,4.559966552734375,-0.03320598602294922,1.6723787784576416,-1.156137228012085
1761131489608966400,4.56996630859375,0.14284992218017578,1.8395874500274658,-1.1240103244781494
1761131489618966500,4.579966552734375,0.38567352294921875,1.891681432723999,-0.9888970851898193
1761131489628966400,4.58996630859375,0.6437892913818359,1.8617165088653564,-0.690568745136261
1761131489638966500,4.599966552734375,0.6418390274047852,1.860102891921997,-0.7190389633178711
1761131489648966400,4.60996630859375,1.0367441177368164,1.528804063796997,-0.41113215684890747
1761131489658966500,4.619966552734375,1.4004793167114258,1.4797143936157227,-0.7370081543922424
1761131489668965600,4.629965576171875,2.0085792541503906,1.5672812461853027,-1.3273162841796875
1761131489678965500,4.639965576171875,2.624349594116211,1.6675374507904053,-1.9480071067810059
1761131489688965600,4.649965576171875,3.34110164642334,1.6031897068023682,-2.3885257244110107
1761131489698965500,4.659965576171875,3.962308883666992,1.4363367557525635,-2.5722129344940186
1761131489708965600,4.669965576171875,4.457890510559082,1.1841316223144531,-2.5259487628936768
1761131489718965500,4.679965576171875,4.747108459472656,0.77764892578125,-2.2844741344451904
1761131489728965600,4.689965576171875,4.896392822265625,0.3283569812774658,-1.926428198814392
1761131489738965800,4.6999658203125,4.795299530029297,-0.047102928161621094,-1.4790844917297363
1761131489748965600,4.709965576171875,4.380620956420898,-0.3576622009277344,-1.065393090248108
1761131489758965800,4.7199658203125,3.813617706298828,-0.39019060134887695,-0.7695621848106384
1761131489768966700,4.729966552734375,3.116495132446289,-0.31371915340423584,-0.5431686043739319
1761131489778966500,4.739966552734375,2.3324899673461914,-0.2143540382385254,-0.364570677280426
1761131489788966700,4.749966552734375,1.6041908264160156,-0.08858919143676758,-0.3086555004119873
1761131489798966500,4.759966552734375,1.013493537902832,-0.0074787139892578125,-0.26266616582870483
1761131489808966700,4.769966552734375,0.5919160842895508,0.027882099151611328,-0.21636611223220825
1761131489818966500,4.779966552734375,0.3779888153076172,-0.006856203079223633,-0.1832592487335205
1761131489828966400,4.78996630859375,0.2759828567504883,-0.11932039260864258,-0.13185018301010132
1761131489838966500,4.799966552734375,0.3750925064086914,-0.27953219413757324,-0.06453722715377808
1761131489848966400,4.80996630859375,0.6364336013793945,-0.5434463024139404,0.12591183185577393
1761131489858966500,4.819966552734375,0.8859844207763672,-0.9389822483062744,0.2924836575984955
1761131489868965600,4.829965576171875,0.9722490310668945,-1.2967008352279663,0.5547288656234741
1761131489878965500,4.839965576171875,0.8537759780883789,-1.6977150440216064,0.6536883115768433
1761131489888965600,4.849965576171875,0.6710348129272461,-1.9347748756408691,0.6258403062820435
1761131489898965500,4.859965576171875,0.3873023986816406,-2.1264638900756836,0.5827930569648743
1761131489908965600,4.869965576171875,-0.09427928924560547,-2.194307804107666,0.4689095616340637
1761131489918965500,4.879965576171875,-0.08533954620361328,-2.2220115661621094,0.492023229598999
1761131489928965600,4.889965576171875,-1.4536504745483398,-2.1777725219726562,0.47502273321151733
1761131489938965500,4.899965576171875,-2.1113333702087402,-2.180629014968872,0.5734936594963074
1761131489948965600,4.909965576171875,-2.846496105194092,-2.1780364513397217,0.5815300941467285
1761131489958965500,4.919965576171875,-3.475050449371338,-2.155319929122925,0.5833462476730347
1761131489968966400,4.92996630859375,-4.006570816040039,-2.1208109855651855,0.5020383596420288
1761131489978966500,4.939966552734375,-4.517409801483154,-2.052311420440674,0.36161044239997864
1761131489988966400,4.94996630859375,-4.81001615524292,-1.9810047149658203,0.18387609720230103
1761131489998966500,4.959966552734375,-5.001850605010986,-1.8970403671264648,0.021617352962493896
1761131490008966400,4.96996630859375,-5.200625419616699,-1.7811579704284668,-0.10451966524124146
1761131490018966500,4.979966552734375,-5.152092933654785,-1.895418405532837,-0.10471475124359131
1761131490028966400,4.98996630859375,-5.458560466766357,-1.7437500953674316,-0.12480634450912476
1761131490038966500,4.999966552734375,-5.434098243713379,-1.6827611923217773,-0.1804748773574829
1761131490048966400,5.00996630859375,-5.262422561645508,-1.5392725467681885,-0.32822948694229126
1761131490058966500,5.019966552734375,-4.9714531898498535,-1.3944885730743408,-0.5040484666824341
1761131490068965600,5.029965576171875,-4.964571475982666,-1.4094202518463135,-0.5059866905212402
1761131490078965800,5.0399658203125,-3.922459602355957,-1.2367839813232422,-0.9155372381210327
1761131490088965600,5.049965576171875,-3.0782413482666016,-1.147963523864746,-1.1461989879608154
1761131490098965800,5.0599658203125,-2.1548643112182617,-1.0784063339233398,-1.4500491619110107
1761131490108965600,5.069965576171875,-1.4227795600891113,-1.109419822692871,-1.6703122854232788
1761131490118965800,5.0799658203125,-0.8139009475708008,-1.120664119720459,-1.8419337272644043
1761131490128965600,5.089965576171875,-0.3249969482421875,-1.0609490871429443,-1.9744439125061035
1761131490138965800,5.0999658203125,0.19267654418945312,-0.9214239120483398,-2.010038375854492
1761131490148965600,5.109965576171875,0.6838006973266602,-0.7645153999328613,-1.9140074253082275
1761131490158965800,5.1199658203125,0.8525190353393555,-0.6883375644683838,-1.737058162689209
1761131490168966700,5.129966552734375,0.8852682113647461,-0.6190981864929199,-1.6989496946334839
1761131490178966500,5.139966552734375,1.1710901260375977,-0.3465893268585205,-1.9120988845825195
1761131490188966700,5.149966552734375,1.6735544204711914,0.0657505989074707,-2.3707079887390137
1761131490198966500,5.159966552734375,2.2576704025268555,0.5061471462249756,-2.983529567718506
1761131490208966700,5.169966552734375,2.815056800842285,0.715134859085083,-3.6437463760375977
1761131490218966500,5.179966552734375,3.241337776184082,0.5228261947631836,-3.883742094039917
1761131490228966700,5.189966552734375,3.873101234436035,0.10325264930725098,-3.960454225540161
1761131490238966500,5.199966552734375,3.8406896591186523,0.17453622817993164,-4.032473564147949
1761131490248966700,5.209966552734375,5.056967735290527,-0.4547538757324219,-3.909646511077881
1761131490258966500,5.219966552734375,5.657543182373047,-0.4691188335418701,-3.777492046356201
1761131490268966100,5.229966064453125,6.2921600341796875,-0.4386882781982422,-3.574078321456909
1761131490278966000,5.239966064453125,6.8465728759765625,-0.3857576847076416,-3.3562164306640625
1761131490288966000,5.2499658203125,7.3474884033203125,-0.4182868003845215,-3.171243190765381
1761131490298966000,5.259966064453125,7.520566940307617,-0.6997268199920654,-2.8906924724578857
1761131490308966100,5.269966064453125,7.274511337280273,-1.1562561988830566,-2.463430166244507
1761131490318966000,5.279966064453125,6.460618019104004,-1.6000347137451172,-1.8433868885040283
1761131490328966000,5.2899658203125,5.149736404418945,-1.9195103645324707,-1.1445163488388062
1761131490338966000,5.299966064453125,3.831833839416504,-1.8876067399978638,-0.749863862991333
1761131490348966000,5.3099658203125,2.617070198059082,-1.6177327632904053,-0.7295686602592468
1761131490358966000,5.319966064453125,1.562520980834961,-1.2771658897399902,-0.8250223398208618
1761131490368967000,5.329966796875,0.6738929748535156,-0.995161771774292,-0.8219271898269653
1761131490378966800,5.339966796875,-0.09189414978027344,-0.8435962200164795,-0.7652519941329956
1761131490388967000,5.349966796875,-0.6986217498779297,-0.7374799251556396,-0.5945297479629517
1761131490398966800,5.359966796875,-0.6310853958129883,-0.9025924205780029,-0.6200439929962158
1761131490408967000,5.369966796875,-1.2237114906311035,-0.7402393817901611,-0.011820554733276367
1761131490418966800,5.379966796875,-1.2723755836486816,-0.8764045238494873,0.17497576773166656
1761131490428967000,5.389966796875,-1.1678681373596191,-0.9430282115936279,0.2661442756652832
1761131490438966800,5.399966796875,-0.9353790283203125,-1.0414063930511475,0.2764882445335388
1761131490448967000,5.409966796875,-0.9096612930297852,-1.0926477909088135,0.16502970457077026
1761131490458966800,5.419966796875,-0.5660419464111328,-1.561357021331787,0.14673517644405365
1761131490468966000,5.4299658203125,-0.5319137573242188,-1.8843193054199219,-0.10549259185791016
1761131490478966000,5.439966064453125,-0.5945949554443359,-2.1679513454437256,-0.4982609152793884
1761131490488966000,5.4499658203125,-0.5869283676147461,-2.182537317276001,-0.5055336356163025
1761131490498966000,5.459966064453125,-0.9880728721618652,-2.322310209274292,-1.4196137189865112
1761131490508966000,5.4699658203125,-1.2550921440124512,-2.343273878097534,-1.7032287120819092
1761131490518966000,5.479966064453125,-1.2411513328552246,-2.372889757156372,-1.648280382156372
1761131490528966000,5.4899658203125,-1.7793779373168945,-2.3362128734588623,-2.2774720191955566
1761131490538966000,5.499966064453125,-2.0943398475646973,-2.414153814315796,-2.492753267288208
1761131490548966000,5.5099658203125,-2.3588457107543945,-2.512488603591919,-2.6528830528259277
1761131490558966000,5.519966064453125,-2.5876407623291016,-2.5492026805877686,-2.726734161376953
1761131490568966700,5.529966552734375,-2.800947666168213,-2.5440666675567627,-2.7102320194244385
1761131490578966500,5.539966552734375,-3.0119667053222656,-2.5405757427215576,-2.6642236709594727
1761131490588966700,5.549966552734375,-3.061488628387451,-2.541550874710083,-2.603959798812866
1761131490598966500,5.559966552734375,-3.02762508392334,-2.6114284992218018,-2.6179990768432617
1761131490608966700,5.569966552734375,-2.842902183532715,-2.686959981918335,-2.726872205734253
1761131490618966500,5.579966552734375,-2.4313411712646484,-2.7706339359283447,-2.8027737140655518
1761131490628966700,5.589966552734375,-1.9981136322021484,-2.893996238708496,-2.8273210525512695
1761131490638966500,5.599966552734375,-1.3578457832336426,-2.9363999366760254,-2.780977725982666
1761131490648966700,5.609966552734375,-0.8944158554077148,-2.962411403656006,-2.740571975708008
1761131490658966500,5.619966552734375,-0.6564083099365234,-3.0631096363067627,-2.614272117614746
1761131490668965600,5.629965576171875,-0.553412914276123,-3.194025993347168,-2.382038116455078
1761131490678965800,5.6399658203125,-0.37622737884521484,-3.3098535537719727,-2.070204496383667
1761131490688965600,5.649965576171875,-0.33797645568847656,-3.2513017654418945,-1.9837275743484497
1761131490698965800,5.6599658203125,-0.28095054626464844,-3.121615409851074,-2.221163272857666
1761131490708965600,5.669965576171875,-0.1359262466430664,-3.10056734085083,-2.6451644897460938
1761131490728965600,5.689965576171875,0.733424186706543,-3.1881847381591797,-3.7137861251831055
1761131490738965800,5.6999658203125,1.400803565979004,-3.162156105041504,-4.212788105010986
1761131490748965600,5.709965576171875,1.7382287979125977,-3.2010059356689453,-4.508810997009277
1761131490758965800,5.7199658203125,2.195079803466797,-3.272343397140503,-4.658501625061035
1761131490768966700,5.729966552734375,2.5506811141967773,-3.2952229976654053,-4.740106582641602
1761131490778966500,5.739966552734375,2.904515266418457,-3.174043655395508,-4.886632919311523
1761131490788966700,5.749966552734375,3.460871696472168,-2.749896764755249,-5.065853118896484
1761131490798966500,5.759966552734375,3.8287353515625,-2.1651031970977783,-5.341254234313965
1761131490808966700,5.769966552734375,3.8155107498168945,-2.145171880722046,-5.2711896896362305
1761131490818966500,5.779966552734375,3.889089584350586,-0.5390443801879883,-5.397207260131836
1761131490828966700,5.789966552734375,3.878493309020996,-0.5230717658996582,-5.288521766662598
1761131490838966500,5.799966552734375,3.8545303344726562,1.8689584732055664,-6.613629341125488
1761131490848966700,5.809966552734375,3.8629493713378906,3.171607494354248,-7.440601825714111
1761131490858966500,5.819966552734375,3.860881805419922,3.175990581512451,-7.425594329833984
1761131490868966000,5.8299658203125,3.5638885498046875,3.173210620880127,-7.345013618469238
1761131490878965800,5.8399658203125,3.6823034286499023,2.3184385299682617,-6.394869804382324
1761131490888966000,5.8499658203125,3.770050048828125,1.5344367027282715,-5.212176322937012
1761131490898965800,5.8599658203125,3.989193916320801,0.6782140731811523,-4.0391106605529785
1761131490908966000,5.8699658203125,4.03870964050293,-0.7104716300964355,-2.7079453468322754
1761131490918965800,5.8799658203125,3.6327991485595703,-1.8797810077667236,-1.9625418186187744
1761131490928966000,5.8899658203125,3.374617576599121,-2.814540386199951,-1.401381492614746
1761131490938965800,5.8999658203125,3.2715320587158203,-3.3399651050567627,-1.017659068107605
1761131490948966000,5.9099658203125,2.7814435958862305,-3.658419132232666,-0.8782007694244385
1761131490958965800,5.9199658203125,2.268437385559082,-3.7643942832946777,-0.7136504650115967
1761131490968966700,5.929966552734375,1.9757699966430664,-3.7482783794403076,-0.5363266468048096
1761131490978966800,5.939966796875,1.8478164672851562,-3.5127434730529785,-0.31999659538269043
1761131490988966700,5.949966552734375,1.5102806091308594,-3.177208662033081,-0.23922300338745117
1761131490998966800,5.959966796875,1.1042022705078125,-2.969400644302368,0.0016913414001464844
1761131491008966700,5.969966552734375,0.4697227478027344,-2.899960994720459,0.2694580554962158
1761131491018966800,5.979966796875,-0.3911142349243164,-2.7792344093322754,0.45299839973449707
1761131491028966700,5.989966552734375,-1.1630115509033203,-2.4855380058288574,0.4440579414367676
1761131491038966800,5.999966796875,-1.914316177368164,-2.0813660621643066,0.24624872207641602
1761131491048966700,6.009966552734375,-2.5745463371276855,-1.633528232574463,-0.037372589111328125
1761131491058966800,6.019966796875,-3.156668186187744,-1.271397590637207,-0.39698874950408936
1761131491068966000,6.0299658203125,-3.653712272644043,-0.8097989559173584,-0.7692819833755493
1761131491078966000,6.039966064453125,-3.6068668365478516,-0.9647395610809326,-0.5749202966690063
1761131491088966000,6.0499658203125,-4.249464511871338,0.4777851104736328,-1.6534485816955566
1761131491098966000,6.059966064453125,-4.300732135772705,1.1486701965332031,-2.0990617275238037
1761131491108966000,6.0699658203125,-4.280733108520508,1.4454994201660156,-2.188654661178589
1761131491118966000,6.079966064453125,-4.158977031707764,1.7429966926574707,-2.2336935997009277
1761131491128966000,6.0899658203125,-4.144362926483154,1.7049827575683594,-2.1306774616241455
1761131491138966000,6.099966064453125,-3.158703327178955,2.3365163803100586,-2.6693692207336426
1761131491148966000,6.1099658203125,-3.1710333824157715,2.353158473968506,-2.6309866905212402
1761131491158966000,6.119966064453125,-1.6212620735168457,1.4883370399475098,-1.6367952823638916
1761131491168966700,6.129966552734375,-0.6201949119567871,1.3066020011901855,-1.168734073638916
1761131491178966500,6.139966552734375,0.27786922454833984,1.1613259315490723,-0.6964321136474609
1761131491188966700,6.149966552734375,0.8470630645751953,1.036059856414795,-0.12565264105796814
1761131491198966800,6.159966796875,1.5812368392944336,1.1914734840393066,0.3413219451904297
1761131491208966700,6.169966552734375,2.3487510681152344,1.5006794929504395,0.5805653929710388
1761131491218966800,6.179966796875,2.802639961242676,1.7455568313598633,0.8840000033378601
1761131491228966700,6.189966552734375,2.767451286315918,1.8196492195129395,0.8560590147972107
1761131491238966800,6.199966796875,2.340662956237793,1.5594968795776367,1.914795160293579
1761131491248966700,6.209966552734375,1.6957712173461914,1.3254990577697754,2.4313700199127197
1761131491268966000,6.2299658203125,1.1620368957519531,1.4231839179992676,2.6982128620147705
1761131491278965800,6.2399658203125,0.38033390045166016,2.3370866775512695,2.3160452842712402
1761131491288966000,6.2499658203125,-0.25434303283691406,2.5647149085998535,2.3130054473876953
1761131491298965800,6.2599658203125,-0.9934959411621094,2.5269522666931152,2.586215019226074
1761131491308966000,6.2699658203125,-1.6511449813842773,2.381652355194092,2.748079538345337
1761131491318965800,6.2799658203125,-1.6797242164611816,2.4516100883483887,2.6321849822998047
1761131491328966000,6.2899658203125,-1.6568655967712402,2.4064993858337402,2.769266128540039
1761131491338965800,6.2999658203125,-1.5054430961608887,2.532492160797119,1.6682533025741577
1761131491348966000,6.3099658203125,-1.5206756591796875,2.430011749267578,1.4187288284301758
1761131491358965800,6.3199658203125,-1.3361024856567383,2.5213370323181152,1.4646575450897217
1761131491368966700,6.329966552734375,-1.1058297157287598,2.7805118560791016,1.7702897787094116
1761131491378966500,6.339966552734375,-0.8330039978027344,2.8486132621765137,2.025332450866699
1761131491388966700,6.349966552734375,-0.24396991729736328,2.7981133460998535,2.0752642154693604
1761131491398966500,6.359966552734375,0.5253763198852539,2.7283153533935547,1.9753353595733643
1761131491408966700,6.369966552734375,1.2793083190917969,2.5389208793640137,1.9440250396728516
1761131491418966500,6.379966552734375,1.723184585571289,2.2035598754882812,2.0651979446411133
1761131491428966700,6.389966552734375,1.9144220352172852,1.7107362747192383,2.502218723297119
1761131491438966500,6.399966552734375,1.9148368835449219,1.347823143005371,2.8573150634765625
1761131491448966700,6.409966552734375,2.0672178268432617,1.1824555397033691,2.8111157417297363
1761131491458966500,6.419966552734375,2.566136360168457,1.247262954711914,2.485956907272339
1761131491468966000,6.4299658203125,3.0754919052124023,1.1959114074707031,1.9841232299804688
1761131491478965800,6.4399658203125,3.411165237426758,0.8594064712524414,1.8698798418045044
1761131491488965600,6.449965576171875,3.4383935928344727,0.8091740608215332,1.8377642631530762
1761131491498965800,6.4599658203125,3.269944190979004,-0.19500732421875,2.578965902328491
1761131491508965600,6.469965576171875,2.907984733581543,-0.5618314743041992,2.7404632568359375
1761131491518965800,6.4799658203125,2.4567346572875977,-0.7178316116333008,2.520754337310791
1761131491528965600,6.489965576171875,2.1490631103515625,-0.8587899208068848,1.900994062423706
1761131491538965800,6.4999658203125,1.9554214477539062,-1.048079013824463,1.2687947750091553
1761131491548965600,6.509965576171875,1.7710819244384766,-1.2538847923278809,0.8325702548027039
1761131491558965800,6.5199658203125,1.3830862045288086,-1.492114782333374,0.7440328598022461
1761131491568966700,6.529966552734375,0.8520536422729492,-1.9080641269683838,0.8044047355651855
1761131491578966500,6.539966552734375,0.2897977828979492,-2.204772472381592,0.9877638220787048
1761131491588966700,6.549966552734375,-0.1783123016357422,-2.342336893081665,1.075085163116455
1761131491598966500,6.559966552734375,-0.2819938659667969,-2.3534224033355713,0.972173810005188
1761131491608966700,6.569966552734375,-0.45642995834350586,-2.2892091274261475,0.7275850772857666
1761131491618966500,6.579966552734375,-0.7536659240722656,-2.1443135738372803,0.45062512159347534
1761131491628966700,6.589966552734375,-0.987299919128418,-2.081087350845337,0.4237228035926819
1761131491638966500,6.599966552734375,-1.0313458442687988,-1.8565988540649414,0.6239708065986633
1761131491648966700,6.609966552734375,-1.0535187721252441,-1.478088140487671,0.6696850061416626
1761131491658966500,6.619966552734375,-1.1793022155761719,-1.209618091583252,0.6489763855934143
1761131491668966000,6.6299658203125,-1.3458733558654785,-1.2502241134643555,0.594244122505188
1761131491678965800,6.6399658203125,-1.6755290031433105,-1.376434326171875,0.4962500333786011
1761131491688966000,6.6499658203125,-2.1234707832336426,-1.479508638381958,0.3051612079143524
1761131491698965800,6.6599658203125,-2.4651145935058594,-1.355534553527832,0.03341566026210785
1761131491708966000,6.6699658203125,-2.6944751739501953,-1.0792639255523682,-0.22359967231750488
1761131491718965800,6.6799658203125,-2.975759983062744,-0.6341748237609863,-0.29531407356262207
1761131491728966000,6.6899658203125,-3.226284980773926,-0.37290143966674805,-0.1687624305486679
1761131491738965800,6.6999658203125,-3.2192330360412598,-0.3159341812133789,-0.1550464779138565
1761131491748966000,6.7099658203125,-3.1854238510131836,-0.48535633087158203,-0.3041856288909912
1761131491758965800,6.7199658203125,-3.0772976875305176,-0.6722331047058105,-0.5089178085327148
1761131491768966700,6.729966552734375,-2.9779162406921387,-0.8657512664794922,-0.6588212251663208
1761131491778966500,6.739966552734375,-2.987325668334961,-0.8585247993469238,-0.8226644396781921
1761131491788966700,6.749966552734375,-2.967620372772217,-0.7080869674682617,-0.8710063099861145
1761131491798966500,6.759966552734375,-2.9444947242736816,-0.5831713676452637,-0.839218258857727
1761131491808966700,6.769966552734375,-2.7986044883728027,-0.42810726165771484,-0.8312501907348633
1761131491818966500,6.779966552734375,-2.727485179901123,-0.1737227439880371,-0.8609471321105957
1761131491828966700,6.789966552734375,-2.7754764556884766,-0.17688751220703125,-0.8945366740226746
1761131491838966500,6.799966552734375,-2.718447685241699,0.2465205192565918,-1.1048638820648193
1761131491848966700,6.809966552734375,-2.768044948577881,0.725156307220459,-1.0673034191131592
1761131491858966500,6.819966552734375,-2.4624385833740234,0.7682557106018066,-0.7414703965187073
1761131491868965600,6.829965576171875,-2.094705104827881,0.8524794578552246,-0.5211464762687683
1761131491878965800,6.8399658203125,-1.7289934158325195,1.1948847770690918,-0.3829246759414673
1761131491888965600,6.849965576171875,-1.2508883476257324,1.3705410957336426,-0.19489654898643494
1761131491898965800,6.8599658203125,-0.7366390228271484,1.2953267097473145,0.02261880785226822
1761131491908965600,6.869965576171875,-0.1541290283203125,1.2691755294799805,0.02704012393951416
1761131491918965800,6.8799658203125,0.2413644790649414,1.189650058746338,0.057603463530540466
1761131491928965600,6.889965576171875,0.4828062057495117,1.0622549057006836,0.019995614886283875
1761131491938965800,6.8999658203125,0.6105327606201172,1.0113334655761719,-0.03717909753322601
1761131491948965600,6.909965576171875,0.8173856735229492,1.0621147155761719,-0.06184373050928116
1761131491958965800,6.9199658203125,0.8506317138671875,1.1595215797424316,-0.0782112181186676
1761131491968966400,6.92996630859375,0.7861490249633789,1.2170538902282715,0.0379972867667675
1761131491978966500,6.939966552734375,0.8668127059936523,1.1589770317077637,0.10394115000963211
1761131491988966700,6.949966552734375,0.8657207489013672,1.161571979522705,0.14404606819152832
1761131491998966500,6.959966552734375,1.3743181228637695,0.9828600883483887,-0.2248065322637558
1761131492008966700,6.969966552734375,1.4642677307128906,0.9137349128723145,-0.48327264189720154
1761131492018966500,6.979966552734375,1.3972148895263672,0.7663931846618652,-0.7365991473197937
1761131492028966700,6.989966552734375,1.0936594009399414,0.6740703582763672,-1.0576660633087158
1761131492038966500,6.999966552734375,0.8227252960205078,0.6606860160827637,-1.3261253833770752
1761131492048966700,7.009966552734375,0.7748794555664062,0.7406215667724609,-1.3692249059677124
1761131492058966500,7.019966552734375,0.8789653778076172,0.9634838104248047,-1.177633285522461
1761131492068965600,7.029965576171875,1.3229713439941406,1.3699817657470703,-1.2056502103805542
1761131492078965800,7.0399658203125,1.8243722915649414,1.5703628063201904,-1.2466844320297241
1761131492088965600,7.049965576171875,2.1596479415893555,1.2854769229888916,-0.934567928314209
1761131492098965800,7.0599658203125,2.167719841003418,0.7200498580932617,-0.4975099563598633
1761131492108965600,7.069965576171875,1.9964313507080078,0.20477938652038574,-0.2861253619194031
1761131492118965800,7.0799658203125,1.8125286102294922,-0.11223721504211426,-0.5089082717895508
1761131492128965600,7.089965576171875,1.674809455871582,-0.05168485641479492,-0.968459963798523
1761131492138965800,7.0999658203125,1.5270471572875977,0.22314453125,-1.2194455862045288
1761131492158965800,7.1199658203125,1.1578760147094727,0.649043083190918,-0.9438765048980713
1761131492168966700,7.129966552734375,1.117513656616211,0.7317638397216797,-0.5338970422744751
1761131492178966500,7.139966552734375,1.4973764419555664,0.7583255767822266,-0.2801434397697449
1761131492188966700,7.149966552734375,2.062594413757324,0.7292320728302002,-0.3652232587337494
1761131492198966500,7.159966552734375,2.5762510299682617,0.5609393119812012,-0.30445292592048645
1761131492208966700,7.169966552734375,2.8541154861450195,0.07433390617370605,0.12886857986450195
1761131492218966500,7.179966552734375,2.9592161178588867,-0.3746054172515869,0.6961185932159424
1761131492228966700,7.189966552734375,2.712984085083008,-0.7495312690734863,1.322184443473816
1761131492238966500,7.199966552734375,2.2452869415283203,-0.9042141437530518,1.8042572736740112
1761131492248966700,7.209966552734375,2.241535186767578,-0.8948912620544434,1.7988677024841309
1761131492258966500,7.219966552734375,1.0904045104980469,-0.7141106128692627,1.6571414470672607
1761131492268965600,7.229965576171875,1.0992794036865234,-0.733959436416626,1.6926910877227783
1761131492278965800,7.2399658203125,-0.031229019165039062,-0.5116274356842041,0.8766274452209473
1761131492288965600,7.249965576171875,-0.7048540115356445,-0.5938866138458252,0.7604981660842896
1761131492298965800,7.2599658203125,-1.4225687980651855,-0.7301082611083984,0.8107051253318787
1761131492308965600,7.269965576171875,-2.082958221435547,-0.7344868183135986,0.9296182990074158
1761131492318965800,7.2799658203125,-2.6724557876586914,-0.6672649383544922,0.9995424747467041
1761131492328965600,7.289965576171875,-2.643843650817871,-0.7294425964355469,1.0379035472869873
1761131492338965800,7.2999658203125,-3.355745315551758,-0.4369494915008545,0.9269951581954956
1761131492348965600,7.309965576171875,-3.5414342880249023,-0.34827566146850586,0.9193000793457031
1761131492358965800,7.3199658203125,-3.5136919021606445,-0.4057767391204834,0.9465965032577515
1761131492368966700,7.329966552734375,-3.8239922523498535,-0.25384044647216797,1.1759521961212158
1761131492378966500,7.339966552734375,-3.874171733856201,-0.17899036407470703,1.28141188621521
1761131492388966700,7.349966552734375,-3.808072566986084,-0.10149192810058594,1.2882211208343506
1761131492398966500,7.359966552734375,-3.695363998413086,0.003173351287841797,1.2174896001815796
1761131492408966700,7.369966552734375,-3.521963119506836,0.08735466003417969,1.0349082946777344
1761131492418966500,7.379966552734375,-3.192403793334961,0.1441512107849121,0.8638318777084351
1761131492428966700,7.389966552734375,-3.1905384063720703,0.14030122756958008,0.8641111254692078
1761131492438966500,7.399966552734375,-2.84121036529541,0.2478928565979004,0.7420008778572083
1761131492448966700,7.409966552734375,-2.1841163635253906,0.4172024726867676,0.8243715763092041
1761131492458966500,7.419966552734375,-1.8501825332641602,0.5434165000915527,0.7739322781562805
1761131492468965600,7.429965576171875,-1.4098401069641113,0.7132463455200195,0.6396589875221252
1761131492478965800,7.4399658203125,-1.0636019706726074,0.7462921142578125,0.5538062453269958
1761131492488965600,7.449965576171875,-0.8885040283203125,0.6734743118286133,0.605635404586792
1761131492498965800,7.4599658203125,-0.8089475631713867,0.6723403930664062,0.6856070160865784
1761131492508965600,7.469965576171875,-0.7717056274414062,0.7363944053649902,0.6659885048866272
1761131492518965800,7.4799658203125,-0.7219657897949219,0.7558445930480957,0.5697064399719238
1761131492528965600,7.489965576171875,-0.7826108932495117,0.7632484436035156,0.443147748708725
1761131492538965800,7.4999658203125,-0.8108177185058594,0.6715831756591797,0.4139735698699951
1761131492548965600,7.509965576171875,-0.8311738967895508,0.5180120468139648,0.3614442050457001
1761131492558965800,7.5199658203125,-0.8066978454589844,0.40580034255981445,0.21001002192497253
1761131492568966700,7.529966552734375,-0.7126178741455078,0.3789095878601074,0.11424297094345093
1761131492578966500,7.539966552734375,-0.5212526321411133,0.4325261116027832,0.0431709885597229
1761131492588966700,7.549966552734375,-0.21643733978271484,0.5681314468383789,-0.005306899547576904
1761131492598966500,7.559966552734375,-0.05713176727294922,0.7006282806396484,0.04094517230987549
1761131492608966700,7.569966552734375,0.06461429595947266,0.7079668045043945,0.3151708245277405
1761131492618966500,7.579966552734375,0.36212730407714844,0.686103343963623,0.6345016360282898
1761131492628967000,7.589966796875,0.9593448638916016,0.7800421714782715,0.8430736660957336
1761131492638966800,7.599966796875,1.7564640045166016,0.9506950378417969,0.8557742834091187
1761131492648967000,7.609966796875,2.5599231719970703,0.9444129467010498,0.9498918056488037
1761131492658966800,7.619966796875,2.516770362854004,1.0430426597595215,0.8575965762138367
1761131492668966100,7.629966064453125,3.7444934844970703,0.189316987991333,1.4561188220977783
1761131492678966000,7.639966064453125,3.6985702514648438,0.3064689636230469,1.3733806610107422
1761131492688966100,7.649966064453125,4.169189453125,0.12809348106384277,1.2931926250457764
1761131492698966000,7.659966064453125,4.631295204162598,0.0557398796081543,0.9702954292297363
1761131492708966100,7.669966064453125,4.389682769775391,0.07988309860229492,0.8958169221878052
1761131492718966000,7.679966064453125,3.9039764404296875,0.1528773307800293,0.8514515161514282
1761131492728966100,7.689966064453125,3.2085933685302734,0.3068084716796875,0.6660242080688477
1761131492738966000,7.699966064453125,2.377224922180176,0.4546623229980469,0.552652895450592
1761131492748966100,7.709966064453125,1.6404781341552734,0.5776941776275635,0.47401294112205505
1761131492758966000,7.719966064453125,1.115677833557129,0.5634946823120117,0.4013419449329376
1761131492768967000,7.729966796875,0.6449270248413086,0.42601490020751953,0.3714972734451294
1761131492778966800,7.739966796875,0.22601604461669922,0.1598217487335205,0.39154791831970215
1761131492788967000,7.749966796875,-0.05425834655761719,-0.18914127349853516,0.6521978974342346
1761131492798966800,7.759966796875,-0.22513961791992188,-0.4111011028289795,0.8742035627365112
1761131492808967000,7.769966796875,-0.3366546630859375,-0.4469268321990967,0.9701235890388489
1761131492818966800,7.779966796875,-0.289794921875,-0.28230977058410645,0.9677432179450989
1761131492828967000,7.789966796875,-0.33254241943359375,-0.1786489486694336,0.8086326718330383
1761131492838967000,7.799967041015625,-0.45175838470458984,-0.20624566078186035,0.5441048741340637
1761131492848967000,7.809966796875,-0.7297077178955078,-0.22126245498657227,0.3457344174385071
1761131492858966800,7.819966796875,-1.0573511123657227,-0.19685697555541992,0.1985677182674408
1761131492868966100,7.829966064453125,-1.4482097625732422,-0.08102941513061523,0.08256562054157257
1761131492878966000,7.839966064453125,-1.947418212890625,0.08685755729675293,-0.09206980466842651
1761131492888966100,7.849966064453125,-2.4448390007019043,0.16365361213684082,-0.26981061697006226
1761131492898966000,7.859966064453125,-2.850059986114502,0.19261455535888672,-0.4068108797073364
1761131492908966100,7.869966064453125,-3.1256370544433594,0.21771836280822754,-0.5623064041137695
1761131492918966000,7.879966064453125,-3.1792726516723633,0.31435680389404297,-0.7630254626274109
1761131492928965600,7.889965576171875,-3.215697765350342,0.4023861885070801,-0.9541229605674744
1761131492938965800,7.8999658203125,-3.21566104888916,0.46506667137145996,-1.1268359422683716
1761131492948965600,7.909965576171875,-3.110219955444336,0.4428439140319824,-1.1989552974700928
1761131492958965800,7.9199658203125,-2.993462562561035,0.40854692459106445,-1.1697533130645752
1761131492968966700,7.929966552734375,-2.8035130500793457,0.32670164108276367,-1.1424458026885986
1761131492978966500,7.939966552734375,-2.635842800140381,0.1849651336669922,-1.1277806758880615
1761131492988966700,7.949966552734375,-2.271458148956299,0.12288594245910645,-1.1283608675003052
1761131492998966500,7.959966552734375,-1.968144416809082,0.15307116508483887,-1.2590018510818481
1761131493008966700,7.969966552734375,-1.6943235397338867,0.23752450942993164,-1.306685209274292
1761131493018966500,7.979966552734375,-1.427443504333496,0.41091084480285645,-1.1652472019195557
1761131493028965600,7.989965576171875,-1.4301872253417969,0.41924166679382324,-1.1664726734161377
1761131493038965800,7.9999658203125,-1.130305290222168,0.7242250442504883,-0.7987654805183411
1761131493048965600,8.009965576171876,-1.0446767807006836,0.7685232162475586,-0.7373910546302795
1761131493058965800,8.0199658203125,-1.105794906616211,0.7252616882324219,-0.9385834336280823
1761131493068964900,8.02996484375,-1.0550575256347656,0.7059690952301025,-1.296450138092041
1761131493078965000,8.039965087890625,-0.9452438354492188,0.7163712978363037,-1.7062702178955078
1761131493088964900,8.04996484375,-0.8895635604858398,0.745070219039917,-2.0042433738708496
1761131493098965000,8.059965087890625,-0.9287204742431641,0.7877652645111084,-2.146937847137451
1761131493108964900,8.06996484375,-0.9910306930541992,0.8532626628875732,-2.2605366706848145
1761131493118965000,8.079965087890624,-1.0026884078979492,0.9497060775756836,-2.369878053665161
1761131493128964900,8.08996484375,-0.8925600051879883,1.1124546527862549,-2.399127960205078
1761131493138965000,8.099965087890626,-0.606379508972168,1.214270830154419,-2.303929328918457
1761131493148964900,8.10996484375,-0.23363494873046875,1.2355482578277588,-2.0531508922576904
1761131493158965000,8.119965087890625,0.10042667388916016,1.0411601066589355,-1.7887558937072754
1761131493168965600,8.129965576171875,0.5631189346313477,0.6394321918487549,-1.558340311050415
1761131493178965800,8.1399658203125,0.9254665374755859,0.3294103145599365,-1.6172001361846924
1761131493188966000,8.1499658203125,1.039520263671875,0.27594470977783203,-1.8774805068969727
1761131493198965800,8.1599658203125,1.137354850769043,0.32192516326904297,-2.0215649604797363
1761131493208966000,8.1699658203125,1.1915102005004883,0.47142553329467773,-2.0232293605804443
1761131493218965800,8.1799658203125,1.4617719650268555,0.7281911373138428,-1.9265100955963135
1761131493228966100,8.189966064453126,1.7114925384521484,0.9567620754241943,-1.659652829170227
1761131493238966300,8.19996630859375,2.0001955032348633,1.0404009819030762,-1.3505628108978271
1761131493248966100,8.209966064453125,2.4624900817871094,0.9593894481658936,-1.0224000215530396
1761131493258966300,8.21996630859375,2.9449071884155273,0.7359440326690674,-0.8337282538414001
1761131493268965400,8.22996533203125,3.353574752807617,0.37564587593078613,-0.8805398941040039
1761131493278965500,8.239965576171874,3.4620065689086914,-0.07772469520568848,-0.9144617319107056
1761131493288965400,8.24996533203125,3.387843132019043,-0.569800853729248,-0.6947267055511475
1761131493298965500,8.259965576171876,3.123781204223633,-0.809173583984375,-0.5415331721305847
1761131493308965400,8.26996533203125,2.6108951568603516,-0.9623514413833618,-0.4249309003353119
1761131493318965500,8.279965576171875,2.148893356323242,-0.7862792015075684,-0.38594117760658264
1761131493328966400,8.28996630859375,1.8565349578857422,-0.18857908248901367,-0.5756075978279114
1761131493338966300,8.29996630859375,1.624363899230957,0.43634033203125,-0.5033319592475891
1761131493348966400,8.30996630859375,1.4628009796142578,0.7252919673919678,-0.05359751731157303
1761131493358966300,8.31996630859375,1.3391304016113281,0.7822794914245605,0.48319825530052185
1761131493368967200,8.32996728515625,1.2661876678466797,0.6373732089996338,0.9645755290985107
1761131493378967000,8.339967041015624,1.132887840270996,0.280198335647583,1.1814765930175781
1761131493388967200,8.34996728515625,1.0822677612304688,-0.18965530395507812,1.1036219596862793
1761131493398967000,8.359967041015626,1.1307058334350586,-0.6247920989990234,0.7736443281173706
1761131493408967200,8.36996728515625,1.0806884765625,-0.9305987358093262,0.3962651491165161
1761131493418967000,8.379967041015625,0.7946243286132812,-1.127463698387146,0.11920887231826782
1761131493428967200,8.38996728515625,0.34177494049072266,-1.172178030014038,0.10893642902374268
1761131493438967000,8.399967041015625,0.3369913101196289,-1.1589138507843018,0.12101060152053833
1761131493448967200,8.40996728515625,-1.0912065505981445,-0.9266071319580078,0.3399725556373596
1761131493458967000,8.419967041015624,-1.917149543762207,-0.6568820476531982,0.4074147343635559
1761131493468966400,8.42996630859375,-2.4761509895324707,-0.37722039222717285,0.5188345313072205
1761131493478966300,8.43996630859375,-2.465881824493408,-0.414583683013916,0.5521931052207947
1761131493488966100,8.449966064453125,-3.35495662689209,-0.14743661880493164,0.7064306139945984
1761131493498966300,8.45996630859375,-3.7654824256896973,-0.21798419952392578,0.8426989316940308
1761131493508966100,8.469966064453125,-3.7489724159240723,-0.27018284797668457,0.8653697371482849
1761131493518966300,8.47996630859375,-4.156808376312256,-0.2735869884490967,0.6671078205108643
1761131493528966000,8.4899658203125,-4.080374240875244,-0.3304882049560547,0.36165934801101685
1761131493538965800,8.4999658203125,-3.9705963134765625,-0.40050721168518066,0.10396760702133179
1761131493548966000,8.5099658203125,-3.5979151725769043,-0.42563676834106445,0.10623526573181152
1761131493558965800,8.5199658203125,-3.1852474212646484,-0.38369321823120117,0.2206687033176422
1761131493568966700,8.529966552734376,-2.8259496688842773,-0.31276559829711914,0.4645574390888214
1761131493578966500,8.539966552734375,-2.548168182373047,-0.3369312286376953,0.7969843149185181
1761131493588966700,8.549966552734375,-2.296140193939209,-0.35361313819885254,0.9062307476997375
1761131493598966500,8.559966552734375,-2.0315184593200684,-0.3134603500366211,0.806708812713623
1761131493608966700,8.569966552734375,-1.7923107147216797,-0.2033388614654541,0.5395287871360779
1761131493618966500,8.579966552734374,-1.563492774963379,-0.07064557075500488,0.22010549902915955
1761131493628966400,8.58996630859375,-1.1456632614135742,0.10226607322692871,-0.09707777202129364
1761131493638966300,8.59996630859375,-0.6196365356445312,0.20712685585021973,-0.3172175884246826
1761131493648966400,8.60996630859375,-0.16025352478027344,0.20916223526000977,-0.35732004046440125
1761131493658966300,8.61996630859375,0.17980003356933594,0.11113357543945312,-0.14746727049350739
1761131493668965600,8.629965576171875,0.5367193222045898,-0.03837180137634277,0.197165846824646
1761131493678965500,8.639965576171875,0.9095582962036133,-0.14096951484680176,0.5131022930145264
1761131493688965400,8.64996533203125,0.9022884368896484,-0.11480259895324707,0.47578462958335876
1761131493698965500,8.659965576171874,2.101217269897461,-0.18871450424194336,0.91005539894104
1761131493708965400,8.66996533203125,2.542848587036133,-0.3781435489654541,1.0763509273529053
1761131493718965500,8.679965576171876,2.739893913269043,-0.655977725982666,1.360212802886963
1761131493728965600,8.689965576171875,2.8151683807373047,-0.8291299343109131,1.5152297019958496
1761131493738965500,8.699965576171875,2.914944648742676,-0.7795376777648926,1.4505308866500854
1761131493748965400,8.70996533203125,3.0463905334472656,-0.5215263366699219,1.1857528686523438
1761131493758965500,8.719965576171875,3.023435592651367,-0.4446425437927246,1.1959538459777832
1761131493768966400,8.72996630859375,3.42415714263916,-0.05797147750854492,0.927646815776825
1761131493778966300,8.73996630859375,3.6175127029418945,-0.040740251541137695,0.9538909792900085
1761131493788966400,8.74996630859375,3.754998207092285,-0.10149288177490234,0.9804123640060425
1761131493798966500,8.759966552734374,3.7169065475463867,-0.2213594913482666,0.880304217338562
1761131493808966400,8.76996630859375,3.6109724044799805,-0.3666658401489258,0.7365796566009521
1761131493818966500,8.779966552734376,3.4733810424804688,-0.36630022525787354,0.5486240983009338
1761131493828966400,8.78996630859375,3.2086639404296875,-0.2876582145690918,0.43990272283554077
1761131493838966500,8.799966552734375,2.7717599868774414,-0.14003801345825195,0.46921485662460327
1761131493848966400,8.80996630859375,2.2851810455322266,0.03400731086730957,0.6930530071258545
1761131493858966500,8.819966552734375,1.7085256576538086,0.19767332077026367,1.0874981880187988
1761131493868965600,8.829965576171874,1.0265169143676758,0.3674025535583496,1.704432725906372
1761131493878965500,8.839965576171876,0.4525012969970703,0.544684886932373,2.2510969638824463
1761131493888965600,8.849965576171876,0.10991764068603516,0.8136069774627686,2.6233713626861572
1761131493898965500,8.859965576171875,-0.11772918701171875,0.9965732097625732,2.780503511428833
1761131493908965600,8.869965576171875,-0.18656158447265625,1.0091798305511475,2.7122409343719482
1761131493918965500,8.879965576171875,-0.2656698226928711,0.7350747585296631,2.434356927871704
1761131493928965600,8.889965576171875,-0.28902339935302734,0.3211343288421631,1.950302004814148
1761131493938965800,8.8999658203125,-0.4506254196166992,-0.0591580867767334,1.489184856414795
1761131493948965600,8.909965576171874,-0.5557107925415039,-0.32426977157592773,1.0395777225494385
1761131493958965800,8.9199658203125,-0.6772336959838867,-0.3858743906021118,0.6287997961044312
1761131493968966700,8.929966552734374,-0.9043254852294922,-0.276577353477478,0.2697675824165344
1761131493978966500,8.939966552734376,-1.227773666381836,-0.056329965591430664,0.034128338098526
1761131493988966700,8.949966552734375,-1.2365226745605469,-0.016846776008605957,0.11954598128795624
1761131493998966500,8.959966552734375,-2.069610595703125,0.181196928024292,0.14583562314510345
1761131494008966700,8.969966552734375,-2.536797523498535,0.31531214714050293,0.2841646671295166
1761131494018966500,8.979966552734375,-2.987915515899658,0.48185062408447266,0.42155885696411133
1761131494028967200,8.98996728515625,-3.3205766677856445,0.7043899297714233,0.45867109298706055
1761131494038967000,8.999967041015625,-3.7342076301574707,0.8711177110671997,0.47378823161125183
1761131494048967200,9.00996728515625,-4.0691351890563965,0.9187759160995483,0.5020009279251099
1761131494058967000,9.019967041015626,-4.237504482269287,0.9760398864746094,0.5323886871337891
1761131494068966100,9.029966064453125,-4.180504322052002,1.021651029586792,0.4512123465538025
1761131494078966300,9.03996630859375,-4.00023889541626,1.1019392013549805,0.3069155216217041
1761131494088966100,9.049966064453125,-3.712575912475586,1.0777168273925781,0.18514129519462585
1761131494098966300,9.05996630859375,-3.277104377746582,0.9554829597473145,0.2918572425842285
1761131494108966100,9.069966064453125,-2.7470340728759766,0.8656978607177734,0.44907116889953613
1761131494118966300,9.07996630859375,-2.181748867034912,0.8288500308990479,0.6204376220703125
1761131494128966100,9.089966064453124,-1.7072734832763672,0.7441771030426025,0.803199052810669
1761131494138966000,9.099966064453126,-1.3341712951660156,0.6623342037200928,0.9229944944381714
1761131494148966100,9.109966064453126,-1.3390522003173828,0.6851241588592529,0.9282865524291992
1761131494158966000,9.119966064453125,-0.6247043609619141,0.6018033027648926,0.5574052929878235
1761131494168967000,9.129966796875,-0.4116668701171875,0.670891284942627,0.17231911420822144
1761131494178967000,9.139967041015625,-0.41231727600097656,0.6846508979797363,0.21287989616394043
1761131494188967000,9.149966796875,-0.12383270263671875,0.6923966407775879,-0.5315877199172974
1761131494198967000,9.159967041015625,-0.12134456634521484,0.6950619220733643,-0.4862726330757141
1761131494208967000,9.169966796875,-0.012463569641113281,0.6640777587890625,-1.0953998565673828
1761131494218967000,9.179967041015624,0.03294944763183594,0.7571210861206055,-1.1870261430740356
1761131494228967000,9.189966796875,0.12238407135009766,0.7671294212341309,-1.2946734428405762
1761131494238967000,9.199967041015626,0.12833595275878906,0.7542824745178223,-1.2579677104949951
1761131494248967000,9.209966796875,0.9093599319458008,0.7718241214752197,-1.6523207426071167
1761131494258967000,9.219967041015625,1.3915376663208008,0.6670396327972412,-1.749283790588379
1761131494268966100,9.229966064453125,1.8197317123413086,0.4279606342315674,-1.7586159706115723
1761131494278966000,9.239966064453125,2.1660776138305664,0.16305136680603027,-1.5263795852661133
1761131494288966100,9.249966064453124,2.48513126373291,0.0365755558013916,-1.3326269388198853
1761131494298966000,9.259966064453126,2.840576171875,0.1343216896057129,-1.3312406539916992
1761131494308965400,9.26996533203125,3.2226991653442383,0.4774453639984131,-1.524714469909668
1761131494318965200,9.27996533203125,3.832146644592285,0.795191764831543,-1.6219267845153809
1761131494328964900,9.28996484375,4.686214447021484,1.0014708042144775,-1.5027143955230713
1761131494338964700,9.29996484375,5.282691955566406,0.9873912334442139,-1.3213491439819336
1761131494348964900,9.30996484375,5.4915618896484375,0.7679636478424072,-1.0377529859542847
1761131494358964700,9.31996484375,5.315011978149414,0.40172576904296875,-0.6533248424530029
1761131494368965600,9.329965576171874,4.786375045776367,0.14434075355529785,-0.4385528564453125
1761131494378965500,9.339965576171876,4.176098823547363,0.20746445655822754,-0.5229688286781311
1761131494388965600,9.349965576171876,3.491654396057129,0.5407404899597168,-0.7497283816337585
1761131494398965800,9.3599658203125,2.770480155944824,0.8741428852081299,-0.8492712378501892
1761131494408965600,9.369965576171875,1.967604637145996,1.180772066116333,-0.7026189565658569
1761131494418965800,9.3799658203125,1.9997377395629883,1.083582878112793,-0.6350557804107666
1761131494428965600,9.389965576171875,1.4218559265136719,1.3414151668548584,-0.39616620540618896
1761131494438965800,9.3999658203125,1.2656936645507812,1.6622061729431152,-0.4105489253997803
1761131494448965600,9.409965576171874,1.401627540588379,1.342785120010376,-0.573639988899231
1761131494458965800,9.4199658203125,1.6507186889648438,0.7391116619110107,-0.3041483163833618
1761131494468964900,9.42996484375,1.7862682342529297,-0.022119760513305664,0.2747941017150879
1761131494478964700,9.43996484375,1.7674884796142578,0.009758234024047852,0.17784535884857178
1761131494488964900,9.44996484375,1.6876726150512695,-0.5743446350097656,0.4752558767795563
1761131494498964700,9.45996484375,0.9188985824584961,-1.101916790008545,1.1138036251068115
1761131494508964900,9.46996484375,0.3886537551879883,-1.0425159931182861,1.3984651565551758
1761131494518964700,9.47996484375,-0.3469686508178711,-0.824683427810669,1.461830973625183
1761131494528964900,9.48996484375,-1.172811508178711,-0.5890932083129883,1.5162439346313477
1761131494538964700,9.49996484375,-2.083955764770508,-0.5125713348388672,1.5744401216506958
1761131494548964900,9.50996484375,-3.040071487426758,-0.5297529697418213,1.4462049007415771
1761131494558964700,9.51996484375,-3.8926639556884766,-0.519794225692749,1.1597628593444824
1761131494568965600,9.529965576171875,-4.513501167297363,-0.5050549507141113,0.891074538230896
1761131494578965800,9.5399658203125,-5.008194446563721,-0.525425910949707,0.6379292011260986
1761131494588965600,9.549965576171875,-5.3911333084106445,-0.5845491886138916,0.5542274117469788
1761131494598965800,9.5599658203125,-5.6687912940979,-0.6704895496368408,0.5317594408988953
1761131494608966400,9.56996630859375,-5.739940643310547,-0.6781916618347168,0.5135751366615295
1761131494618966500,9.579966552734374,-5.6064863204956055,-0.6153051853179932,0.47095590829849243
1761131494628966400,9.58996630859375,-5.353822708129883,-0.5724594593048096,0.4190908670425415
1761131494638966500,9.599966552734376,-4.956543922424316,-0.5602569580078125,0.4749843180179596
1761131494648966400,9.60996630859375,-4.491537570953369,-0.595400333404541,0.7248647809028625
1761131494658966500,9.619966552734375,-3.962904453277588,-0.6453421115875244,0.9782412052154541
1761131494668965600,9.629965576171875,-3.399038314819336,-0.6804020404815674,1.174333095550537
1761131494678965800,9.6399658203125,-2.668905735015869,-0.7242565155029297,1.2413190603256226
1761131494688965600,9.649965576171875,-2.075263500213623,-0.6835274696350098,1.0268455743789673
1761131494698965800,9.6599658203125,-1.2453680038452148,-0.6215486526489258,0.7258837223052979
1761131494708965600,9.669965576171874,-0.49607276916503906,-0.6351151466369629,0.3529585599899292
1761131494718965800,9.6799658203125,-0.05119132995605469,-0.7350122928619385,-0.01094391942024231
1761131494728965600,9.689965576171875,0.05962371826171875,-0.7912271022796631,-0.1576400101184845
1761131494738965800,9.6999658203125,0.0700368881225586,-0.7688543796539307,-0.12316599488258362
1761131494748965600,9.709965576171875,0.05184650421142578,-0.5743215084075928,-0.07866594195365906
1761131494758965800,9.7199658203125,0.0731191635131836,-0.6212444305419922,-0.06300383806228638
1761131494768966400,9.72996630859375,0.07927608489990234,-0.10128116607666016,0.20410221815109253
1761131494778966500,9.739966552734375,0.22107982635498047,0.09714603424072266,0.31410330533981323
1761131494788966400,9.74996630859375,0.3471670150756836,0.08234071731567383,0.4691751301288605
1761131494798966500,9.759966552734374,0.5781660079956055,-0.03541707992553711,0.5674790143966675
1761131494808966400,9.76996630859375,0.7458782196044922,-0.14818859100341797,0.5327786803245544
1761131494818966500,9.779966552734376,0.8241481781005859,-0.22167062759399414,0.4370041489601135
1761131494828966700,9.789966552734375,0.8571758270263672,-0.3553040027618408,0.4825872778892517
1761131494838966500,9.799966552734375,0.8885793685913086,-0.48270726203918457,0.5803803205490112
1761131494848966700,9.809966552734375,0.9110965728759766,-0.3521134853363037,0.6738007068634033
1761131494858966500,9.819966552734375,1.032374382019043,-0.07540273666381836,0.5472919940948486
1761131494868965600,9.829965576171874,1.3752336502075195,0.15281009674072266,0.3797120749950409
1761131494878965800,9.8399658203125,1.9240245819091797,0.09402823448181152,0.26227739453315735
1761131494888965600,9.849965576171876,2.579496383666992,-0.1437830924987793,0.2292119413614273
1761131494898965800,9.8599658203125,3.091362953186035,-0.3805365562438965,0.10023964941501617
1761131494908965600,9.869965576171875,3.638422966003418,-0.6120443344116211,-0.07008534669876099
1761131494918965800,9.8799658203125,3.8207826614379883,-0.7908446788787842,-0.10180501639842987
1761131494928965600,9.889965576171875,3.6960954666137695,-0.8908615112304688,0.12007877230644226
1761131494938965800,9.8999658203125,3.4628067016601562,-0.7930493354797363,0.40610653162002563
1761131494948965600,9.909965576171874,3.1699085235595703,-0.39055895805358887,0.6580256819725037
1761131494958965800,9.9199658203125,2.7219152450561523,0.06496334075927734,0.7812280058860779
1761131494968966400,9.92996630859375,2.3294906616210938,0.4865241050720215,0.9920482635498047
1761131494978966500,9.939966552734376,1.9726991653442383,0.8066627979278564,1.2508885860443115
1761131494988966100,9.949966064453125,1.9680423736572266,0.8337228298187256,1.3336540460586548
1761131494998966300,9.95996630859375,1.365250587463379,1.2522456645965576,1.6287604570388794
1761131495008966100,9.969966064453125,1.160482406616211,1.332252025604248,1.6370209455490112
1761131495018966300,9.97996630859375,0.9593381881713867,1.2459828853607178,1.505678415298462
1761131495028966100,9.989966064453125,0.8198413848876953,0.9680228233337402,1.4871832132339478
1761131495038966300,9.99996630859375,0.5012302398681641,0.6574602127075195,1.4420859813690186
1761131495048966100,10.009966064453126,-0.053765296936035156,0.24908733367919922,1.3560446500778198
1761131495058966300,10.01996630859375,-0.7276420593261719,-0.03814125061035156,1.1720048189163208
1761131495068965400,10.02996533203125,-1.0728111267089844,-0.08562183380126953,0.7933847308158875
1761131495078965500,10.039965576171875,-1.0031967163085938,0.03804278373718262,0.4864734411239624
1761131495088965400,10.04996533203125,-1.0188226699829102,0.10439753532409668,0.5032107830047607
1761131495098965500,10.059965576171875,-0.8905754089355469,0.07892298698425293,0.08512473106384277
1761131495108965400,10.06996533203125,-0.9490776062011719,0.04476165771484375,0.10642582178115845
1761131495118965500,10.079965576171874,-0.9385805130004883,0.0954599380493164,0.14805343747138977
1761131495128965400,10.08996533203125,-0.9414958953857422,0.13397789001464844,0.25144511461257935
1761131495138965500,10.099965576171876,-1.4241104125976562,0.38324713706970215,0.3217718303203583
1761131495148965400,10.10996533203125,-1.6634535789489746,0.5038204193115234,0.39434385299682617
1761131495158965500,10.119965576171875,-1.895092487335205,0.6116189956665039,0.28831946849823
1761131495168966400,10.12996630859375,-2.144787311553955,0.7198307514190674,0.12102770805358887
1761131495178966300,10.13996630859375,-2.440488815307617,0.7391035556793213,0.028949856758117676
1761131495188966400,10.14996630859375,-2.656118869781494,0.6487741470336914,0.013013601303100586
1761131495198966300,10.15996630859375,-2.8810315132141113,0.5686187744140625,-0.13610661029815674
1761131495208966400,10.16996630859375,-2.9919824600219727,0.569077730178833,-0.3043712377548218
1761131495218966300,10.17996630859375,-2.8536338806152344,0.6032655239105225,-0.4379671812057495
1761131495228966400,10.18996630859375,-2.5482397079467773,0.7047121524810791,-0.4266742467880249
1761131495238966300,10.19996630859375,-2.1390390396118164,0.7885735034942627,-0.32594120502471924
1761131495248966400,10.20996630859375,-1.7152953147888184,0.7589924335479736,-0.1007155179977417
1761131495258966300,10.21996630859375,-1.2592048645019531,0.6582686901092529,0.16629314422607422
1761131495268965400,10.22996533203125,-0.8122158050537109,0.5568339824676514,0.356193482875824
1761131495278965500,10.239965576171874,-0.5428152084350586,0.5372228622436523,0.22768378257751465
1761131495288965600,10.249965576171874,-0.5425357818603516,0.5440957546234131,0.24908119440078735
1761131495298965800,10.2599658203125,-0.13469219207763672,0.7424795627593994,-0.39382147789001465
1761131495308965600,10.269965576171876,-0.03735160827636719,0.8537807464599609,-0.8573517799377441
1761131495318965800,10.2799658203125,0.04099464416503906,0.9255270957946777,-1.2645481824874878
1761131495328965600,10.289965576171875,0.08710098266601562,0.9168596267700195,-1.3219643831253052
1761131495338965800,10.2999658203125,0.14725208282470703,0.8700401782989502,-1.1910377740859985
1761131495348965600,10.309965576171875,0.3656454086303711,0.7914268970489502,-0.9244647026062012
1761131495358965800,10.3199658203125,0.5685186386108398,0.7527816295623779,-0.6710363626480103
1761131495368966400,10.32996630859375,0.6387090682983398,0.6762113571166992,-0.5350316762924194
1761131495378966500,10.339966552734374,0.5993776321411133,0.5322272777557373,-0.5500956773757935
1761131495388966700,10.349966552734376,0.5619068145751953,0.40294361114501953,-0.7816849946975708
1761131495398966500,10.359966552734376,0.624567985534668,0.45203232765197754,-1.2297848463058472
1761131495408966700,10.369966552734375,0.8127737045288086,0.6832320690155029,-1.7499756813049316
1761131495418966500,10.379966552734375,1.0007658004760742,0.9244546890258789,-2.068314552307129
1761131495428966700,10.389966552734375,1.5300769805908203,1.000256061553955,-2.0129876136779785
1761131495438966500,10.399966552734375,2.057851791381836,0.916900634765625,-1.6638563871383667
1761131495448966700,10.409966552734375,2.4047069549560547,0.6148440837860107,-1.2352709770202637
1761131495458966500,10.419966552734374,2.608213424682617,0.3224155902862549,-0.9215334057807922
1761131495468966000,10.4299658203125,2.6040334701538086,0.0781252384185791,-0.7489307522773743
1761131495478965800,10.4399658203125,2.5885009765625,0.11691784858703613,-0.809269368648529
1761131495488965600,10.449965576171875,2.3379621505737305,-0.1191563606262207,-0.9773525595664978
1761131495498965800,10.4599658203125,1.9555463790893555,-0.01597905158996582,-1.251938819885254
1761131495508965600,10.469965576171875,1.450322151184082,0.06313467025756836,-1.4515690803527832
1761131495518965800,10.4799658203125,0.9145946502685547,0.0773003101348877,-1.5593678951263428
1761131495528965600,10.489965576171874,0.9190616607666016,0.07108569145202637,-1.5252101421356201
1761131495538965800,10.4999658203125,0.36762237548828125,-0.012640953063964844,-1.7445573806762695
1761131495548965600,10.509965576171876,0.19202709197998047,-0.23211145401000977,-1.6288681030273438
1761131495558965800,10.5199658203125,0.043682098388671875,-0.48946046829223633,-1.3474252223968506
1761131495568966700,10.529966552734376,0.18332481384277344,-0.6115063428878784,-1.0253679752349854
1761131495578966500,10.539966552734375,0.24024677276611328,-0.6599528789520264,-0.6085128784179688
1761131495588966700,10.549966552734375,0.4619884490966797,-0.7415109872817993,-0.1914026141166687
1761131495598966500,10.559966552734375,0.6370716094970703,-0.8274722099304199,0.10135549306869507
1761131495608966700,10.569966552734375,0.6618633270263672,-0.9484425783157349,0.3447888195514679
1761131495618966500,10.579966552734374,0.4207954406738281,-1.064587116241455,0.426553875207901
1761131495628932400,10.589932373046874,0.12353134155273438,-1.1281017065048218,0.3828517198562622
1761131495638899200,10.599899169921875,-0.3126077651977539,-1.1313828229904175,0.238642156124115
1761131495648865800,10.60986572265625,-0.9636354446411133,-1.0389270782470703,0.11620816588401794
1761131495658832400,10.619832275390625,-1.676187515258789,-0.868238091468811,-0.0336034893989563
1761131495668798700,10.629798828125,-2.564910411834717,-0.6782816648483276,-0.1485503911972046
1761131495678765300,10.639765380859375,-3.328780174255371,-0.4921311140060425,-0.23780125379562378
1761131495688732000,10.64973193359375,-4.012778282165527,-0.3682873249053955,-0.4089059829711914
1761131495698698800,10.65969873046875,-3.6570963859558105,-0.6299470663070679,-0.12067943811416626
1761131495708665300,10.669665283203125,-3.7302680015563965,-0.3007218837738037,-0.013600409030914307
1761131495718632000,10.6796318359375,-3.962099075317383,0.04988431930541992,-0.15251588821411133
1761131495728598500,10.6895986328125,-4.105410575866699,0.5957355499267578,-0.8562760353088379
1761131495738565000,10.699565185546875,-3.762913227081299,0.8488736152648926,-1.1334816217422485
1761131495748532000,10.709531982421876,-3.43795108795166,0.42722439765930176,-0.7009921073913574
1761131495758498600,10.71949853515625,-3.0078673362731934,-0.3563199043273926,-0.048853516578674316
1761131495768466200,10.729466064453124,-2.3590850830078125,-1.022046685218811,0.41143715381622314
1761131495778432800,10.739432861328124,-2.3784618377685547,-0.9836674928665161,0.30858832597732544
1761131495788399400,10.7493994140625,-0.4580230712890625,-0.8160171508789062,-0.008074581623077393
1761131495798366000,10.759365966796874,0.4526691436767578,-0.5625977516174316,-0.3354647159576416
