time,seconds_elapsed,z,y,x
1761132112194776000,0.120776123046875,0.02522563934326172,-0.0017606280744075775,-0.005967006087303162
1761132112204776000,0.13077587890625,0.027620315551757812,0.003022613003849983,-0.0012371838092803955
1761132112214751000,0.1407509765625,0.02762126922607422,0.0006036125123500824,-0.0012943297624588013
1761132112224751000,0.150751220703125,0.027622222900390625,0.0005984902381896973,-0.0013530701398849487
1761132112234751000,0.1607509765625,0.025228500366210938,0.0005736909806728363,0.0009840130805969238
1761132112244751000,0.170751220703125,0.02762126922607422,-0.0018933117389678955,0.0010492801666259766
1761132112254751200,0.180751220703125,0.027620315551757812,0.00036419928073883057,-0.0013335496187210083
1761132112264751000,0.190751220703125,0.02522754669189453,0.00035854801535606384,-0.003786623477935791
1761132112274751200,0.200751220703125,0.02522563934326172,0.0026835817843675613,-0.0036629587411880493
1761132112284751000,0.210751220703125,0.02522563934326172,0.0025467555969953537,-0.0036516189575195312
1761132112294751200,0.220751220703125,0.025223731994628906,0.007202155888080597,-0.005995362997055054
1761132112304751000,0.230751220703125,0.02522563934326172,0.007113948464393616,-0.0061061084270477295
1761132112314751200,0.240751220703125,0.025224685668945312,0.0069962721318006516,-0.0060965269804000854
1761132112324751000,0.250751220703125,0.022830963134765625,0.0023077931255102158,-0.0012966394424438477
1761132112334751200,0.260751220703125,0.022832870483398438,0.002293616533279419,0.005710169672966003
1761132112344751000,0.270751220703125,0.02522754669189453,0.00466880202293396,0.008106157183647156
1761132112354751200,0.280751220703125,0.022832870483398438,0.0022747330367565155,0.005712002515792847
1761132112364751000,0.290751220703125,0.02283000946044922,0.00470510870218277,0.005905836820602417
1761132112374751200,0.300751220703125,0.02283000946044922,0.004705637693405151,0.005906000733375549
1761132112384751000,0.310751220703125,0.022830963134765625,0.00000971183180809021,0.0010507553815841675
1761132112394751200,0.320751220703125,0.02762126922607422,-0.0022112876176834106,-0.00139695405960083
1761132112404751000,0.330751220703125,0.02522563934326172,-0.0022844821214675903,-0.0013317912817001343
1761132112414750000,0.34075,0.025226593017578125,-0.0022510848939418793,-0.0013937950134277344
1761132112424750000,0.35075,0.02283191680908203,-0.0023686233907938004,0.0034042298793792725
1761132112434750000,0.36075,0.020437240600585938,-0.004835708066821098,0.0034693479537963867
1761132112444750000,0.37075,0.01804065704345703,-0.007317794486880302,0.001200556755065918
1761132112454750000,0.38075,0.018042564392089844,-0.002420516684651375,0.001093164086341858
1761132112464750000,0.39075,0.018041610717773438,-0.004829363897442818,0.0035475045442581177
1761132112474750000,0.40075,0.02283000946044922,-0.0048492178320884705,0.0011549592018127441
1761132112484750000,0.41075,0.027618408203125,-0.002396378666162491,-0.0036382973194122314
1761132112494750000,0.42075,0.03240776062011719,0.0023091156035661697,-0.006084635853767395
1761132112504750000,0.43075,0.027617454528808594,-0.00015744566917419434,-0.0060193538665771484
1761132112514751000,0.4407509765625,0.0252227783203125,-0.00017173774540424347,-0.0035647600889205933
1761132112524750800,0.450750732421875,0.022830963134765625,-0.00006728433072566986,-0.001336604356765747
1761132112534751000,0.4607509765625,0.027618408203125,-0.0024566277861595154,0.001116231083869934
1761132112544750800,0.470750732421875,0.0300140380859375,-0.000026434659957885742,0.0058623552322387695
1761132112554751000,0.4807509765625,0.030013084411621094,0.004806045442819595,0.008311986923217773
1761132112564750800,0.490750732421875,0.030014991760253906,0.004738133400678635,0.008199572563171387
1761132112574751000,0.5007509765625,0.02762126922607422,0.007244450971484184,0.003342866897583008
1761132112584750800,0.510750732421875,0.02762126922607422,0.0072265248745679855,0.0009698271751403809
1761132112594751000,0.5207509765625,0.022835731506347656,0.009723162278532982,0.0007841140031814575
1761132112604750800,0.530750732421875,0.022836685180664062,0.002589879557490349,-0.0041262805461883545
1761132112614750000,0.54075,0.02523326873779297,0.002683708444237709,-0.004173681139945984
1761132112624750000,0.55075,0.020445823669433594,0.0027969088405370712,0.0005657970905303955
1761132112634750000,0.56075,0.0228424072265625,0.0005633831024169922,0.00037510693073272705
1761132112644750000,0.57075,0.027629852294921875,0.0005499161779880524,0.0028489679098129272
1761132112654750000,0.58075,0.027627944946289062,-0.001912623643875122,0.005366966128349304
1761132112664750000,0.59075,0.02762889862060547,0.0005745850503444672,0.005300268530845642
1761132112674750000,0.60075,0.03002452850341797,0.0006877779960632324,0.0028571486473083496
1761132112684750000,0.61075,0.02763080596923828,0.0055296942591667175,0.0027935653924942017
1761132112694750000,0.62075,0.027631759643554688,0.0055651478469371796,0.00035691261291503906
1761132112704750000,0.63075,0.025238037109375,0.010471800342202187,-0.002046838402748108
1761132112714751000,0.6407509765625,0.022844314575195312,0.00805315375328064,-0.0021037310361862183
1761132112724750800,0.650750732421875,0.02284526824951172,0.008048027753829956,-0.002162441611289978
1761132112734751000,0.6607509765625,0.027634620666503906,0.005688484758138657,0.00018903613090515137
1761132112744750800,0.670750732421875,0.02763652801513672,0.0034622345119714737,0.00007677078247070312
1761132112754751000,0.6807509765625,0.025243759155273438,0.0010633058845996857,0.0048065632581710815
1761132112764750800,0.690750732421875,0.02285003662109375,0.0011553354561328888,-0.00004868209362030029
1761132112774751000,0.7007509765625,0.020456314086914062,0.0011949315667152405,0.002361610531806946
1761132112784750800,0.710750732421875,0.020455360412597656,0.0012384839355945587,0.0024168789386749268
1761132112794751000,0.7207509765625,0.020456314086914062,-0.0010957270860671997,0.0024314671754837036
1761132112804750800,0.730750732421875,0.020456314086914062,-0.0009975992143154144,0.002423495054244995
1761132112814750000,0.74075,0.02285003662109375,-0.0008789710700511932,0.0024332404136657715
1761132112824750000,0.75075,0.020456314086914062,-0.0007787756621837616,0.002444818615913391
1761132112834750000,0.76075,0.022850990295410156,-0.0030755624175071716,0.0024367719888687134
1761132112844750000,0.77075,0.020456314086914062,-0.005482830107212067,0.004910767078399658
1761132112854750000,0.78075,0.018060684204101562,-0.005497783422470093,0.004970937967300415
1761132112864750000,0.79075,0.018060684204101562,-0.005497206002473831,0.004970967769622803
1761132112874750000,0.80075,0.01566600799560547,-0.008028674870729446,0.002588123083114624
1761132112884750000,0.81075,0.020452499389648438,-0.008097406476736069,-0.0020766109228134155
1761132112894750000,0.82075,0.010874748229980469,-0.005778145045042038,-0.0068194568157196045
1761132112904750000,0.83075,0.0012969970703125,-0.005988951772451401,-0.004349008202552795
1761132112914751000,0.8407509765625,-0.0825042724609375,-0.011140499264001846,0.0029621422290802
1761132112924750800,0.850750732421875,-0.13997173309326172,-0.0022430457174777985,-0.025416791439056396
1761132112934751000,0.8607509765625,0.3388404846191406,0.0775870680809021,-0.026126161217689514
1761132112944750800,0.870750732421875,0.05874156951904297,-0.04237183928489685,-0.021145232021808624
1761132112954751000,0.8807509765625,-0.08726310729980469,-0.014801185578107834,-0.017997533082962036
1761132112964750800,0.890750732421875,-0.02501392364501953,0.03356170654296875,-0.013149887323379517
1761132112974751000,0.9007509765625,-0.03460502624511719,0.01832043007016182,-0.007540956139564514
1761132112984750800,0.910750732421875,0.0898904800415039,-0.00792103260755539,-0.009726911783218384
1761132112994751000,0.9207509765625,0.07073593139648438,-0.01986466348171234,-0.0048424601554870605
1761132113004750800,0.930750732421875,-0.02502918243408203,-0.02060503140091896,0.00913168489933014
1761132113014750200,0.940750244140625,0.020471572875976562,-0.0011525154113769531,0.006063476204872131
1761132113024750000,0.95075,0.06834697723388672,0.00367145799100399,0.0019411146640777588
1761132113034750200,0.960750244140625,0.056380271911621094,-0.015074044466018677,0.0016512572765350342
1761132113044750000,0.97075,0.003711700439453125,-0.012925896793603897,0.010874435305595398
1761132113054750200,0.980750244140625,0.006108283996582031,0.003641536459326744,0.010693609714508057
1761132113064750000,0.99075,0.046805381774902344,0.008534040302038193,0.006211429834365845
1761132113084750000,1.01075,-0.0034685134887695312,-0.013338319957256317,-0.0013182759284973145
1761132113094750200,1.020750244140625,-0.0034646987915039062,-0.01348232850432396,-0.001621529459953308
1761132113104750000,1.03075,0.042018890380859375,0.015166593715548515,-0.0035759806632995605
1761132113114751000,1.0407509765625,0.030048370361328125,0.010500730946660042,-0.00831533968448639
1761132113124750800,1.050750732421875,0.0013208389282226562,-0.0038255490362644196,-0.006160616874694824
1761132113134751000,1.0607509765625,0.020473480224609375,-0.004021409898996353,-0.003750339150428772
1761132113144750600,1.07075048828125,0.010891914367675781,0.012369904667139053,0.0013441294431686401
1761132113154750500,1.08075048828125,-0.051360130310058594,0.00982796959578991,0.0014549940824508667
1761132113164750600,1.09075048828125,0.07792186737060547,0.004505425691604614,-0.0055259764194488525
1761132113174750500,1.10075048828125,0.1593160629272461,0.0010642819106578827,-0.009892836213111877
1761132113184750600,1.11075048828125,0.05397605895996094,-0.00804048404097557,-0.007734715938568115
1761132113194750500,1.12075048828125,-0.005863189697265625,0.012778844684362411,-0.003733992576599121
1761132113204750600,1.13075048828125,-0.01782989501953125,0.00802779570221901,-0.0016179978847503662
1761132113214749700,1.140749755859375,0.010896682739257812,-0.011440280824899673,0.0034129321575164795
1761132113224749800,1.150749755859375,0.06595897674560547,-0.011382021009922028,0.0036441683769226074
1761132113234749700,1.160749755859375,0.032439231872558594,0.002728017047047615,0.008434250950813293
1761132113244749800,1.170749755859375,-0.005863189697265625,-0.002127785235643387,0.0056915730237960815
1761132113254749700,1.180749755859375,0.022866249084472656,-0.01159583404660225,-0.00615064799785614
1761132113264749800,1.190749755859375,0.051593780517578125,-0.009167920798063278,-0.010764896869659424
1761132113274749700,1.200749755859375,0.037230491638183594,0.007523275911808014,-0.008483067154884338
1761132113284749800,1.210749755859375,0.008502006530761719,0.009780092164874077,-0.01110231876373291
1761132113294749700,1.220749755859375,0.018079757690429688,-0.002334222197532654,-0.013563349843025208
1761132113304749600,1.23074951171875,0.04201984405517578,0.0024444889277219772,-0.011050224304199219
1761132113314750500,1.24075048828125,0.030048370361328125,0.011885013431310654,-0.006250292062759399
1761132113324750300,1.250750244140625,0.00131988525390625,0.007028263062238693,0.0032140910625457764
1761132113334750500,1.26075048828125,0.008502006530761719,-0.0001741591840982437,0.008004039525985718
1761132113344750300,1.270750244140625,0.03244209289550781,-0.002519596368074417,0.0009546279907226562
1761132113354750500,1.28075048828125,0.02286529541015625,-0.0001407526433467865,0.0010146796703338623
1761132113364750300,1.290750244140625,0.013288497924804688,-0.000023927539587020874,0.0010049641132354736
1761132113374750500,1.30075048828125,0.020470619201660156,-0.000037262216210365295,0.0010846853256225586
1761132113384750300,1.310750244140625,0.01807403564453125,0.002283211797475815,-0.003638714551925659
1761132113394750500,1.32075048828125,-0.03220367431640625,0.0022638067603111267,-0.0012428611516952515
1761132113404750300,1.330750244140625,-0.03938865661621094,0.0068014878779649734,-0.008365273475646973
1761132113414749700,1.340749755859375,0.12340927124023438,0.02540397271513939,-0.012675181031227112
1761132113424749600,1.35074951171875,0.08988189697265625,0.0006064344197511673,-0.012309148907661438
1761132113434749400,1.36074951171875,-0.001087188720703125,-0.005513610318303108,-0.010396495461463928
1761132113444749800,1.370749755859375,-0.022624969482421875,0.00710148923099041,-0.006134107708930969
1761132113454750000,1.38075,-0.02262592315673828,0.00714503601193428,-0.006078824400901794
1761132113464749800,1.390749755859375,0.039620399475097656,-0.002332789823412895,0.0037454962730407715
1761132113474749700,1.400749755859375,0.0300445556640625,-0.007126456126570702,0.006080925464630127
1761132113484749600,1.41074951171875,0.03004741668701172,-0.007204409688711166,0.005851283669471741
1761132113494749700,1.420749755859375,0.01568126678466797,-0.009671930223703384,-0.001266196370124817
1761132113504749600,1.43074951171875,0.04201316833496094,-0.0025092344731092453,-0.008211106061935425
1761132113514750500,1.44075048828125,0.04201507568359375,-0.004852768033742905,-0.00831364095211029
1761132113524750600,1.45075048828125,0.010894775390625,-0.009601987898349762,-0.00855305790901184
1761132113534750500,1.46075048828125,0.013288497924804688,-0.00475480780005455,-0.006163656711578369
1761132113544750600,1.47075048828125,0.025259971618652344,-0.002438792958855629,-0.008551403880119324
1761132113554750500,1.48075048828125,0.025261878967285156,-0.00460641086101532,-0.008668527007102966
1761132113564750600,1.49075048828125,0.006110191345214844,-0.004497237503528595,0.0008008331060409546
1761132113574750500,1.50075048828125,0.00611114501953125,-0.009315632283687592,0.005473494529724121
1761132113584750600,1.51075048828125,0.018080711364746094,-0.009389225393533707,0.005538538098335266
1761132113594750500,1.52075048828125,0.013292312622070312,-0.011783018708229065,0.00314447283744812
1761132113604750600,1.53075048828125,0.0037164688110351562,-0.007078336551785469,0.000697895884513855
1761132113614749700,1.540749755859375,0.018079757690429688,-0.004815686494112015,-0.0016261935234069824
1761132113624749600,1.55074951171875,0.02526092529296875,-0.0024267174303531647,-0.003842949867248535
1761132113634749700,1.560749755859375,0.008500099182128906,-0.002321964129805565,-0.008561119437217712
1761132113644749600,1.57074951171875,-0.0681142807006836,-0.00706636905670166,-0.008505865931510925
1761132113654749700,1.580749755859375,0.07074642181396484,0.007092077285051346,-0.013178646564483643
1761132113664749600,1.59074951171875,0.24311447143554688,0.03742557391524315,-0.01705552637577057
1761132113674749700,1.600749755859375,0.10663890838623047,-0.021482763811945915,-0.009753167629241943
1761132113684749600,1.61074951171875,0.10666275024414062,-0.018921129405498505,-0.010890766978263855
1761132113697784800,1.623784912109375,0.015687942504882812,0.007766328752040863,0.0031898468732833862
1761132113707785000,1.633784912109375,0.006107330322265625,0.005415581166744232,0.005875483155250549
1761132113717785600,1.64378564453125,0.05638313293457031,-0.001475416123867035,0.00846204161643982
1761132113727785700,1.65378564453125,0.018074989318847656,-0.009095683693885803,0.013188377022743225
1761132113737785600,1.66378564453125,-0.02501678466796875,-0.011514514684677124,0.017683640122413635
1761132113747785700,1.67378564453125,0.022863388061523438,-0.002191312611103058,0.005969896912574768
1761132113757785600,1.68378564453125,0.039618492126464844,0.007317341864109039,-0.008035257458686829
1761132113767785700,1.69378564453125,0.03482818603515625,0.0025143902748823166,-0.015157565474510193
1761132113777786000,1.7037861328125,0.020465850830078125,0.0023219995200634003,-0.020126916468143463
1761132113787786000,1.713785888671875,0.02764892578125,0.0024938657879829407,-0.020180843770503998
1761132113797786000,1.7237861328125,0.032436370849609375,0.00517481192946434,-0.022441335022449493
1761132113807786000,1.733785888671875,0.018072128295898438,0.002991916611790657,-0.020104043185710907
1761132113817785000,1.74378515625,0.01807403564453125,0.003044651821255684,-0.020187057554721832
1761132113827785200,1.75378515625,0.018074989318847656,-0.0066184401512146,0.001269504427909851
1761132113837785000,1.76378515625,0.032439231872558594,-0.001903623342514038,0.0037287473678588867
1761132113847785200,1.77378515625,0.02046680450439453,0.000476837158203125,0.0037893056869506836
1761132113857785000,1.78378515625,0.01568126678466797,0.0005265586078166962,0.003686457872390747
1761132113867785200,1.79378515625,0.03722572326660156,0.010040311142802238,0.0038690268993377686
1761132113877785000,1.80378515625,0.03722572326660156,0.012414563447237015,0.0014763027429580688
1761132113887785200,1.81378515625,0.018072128295898438,0.012468475848436356,-0.003375530242919922
1761132113897785000,1.82378515625,0.015680313110351562,0.007650397717952728,-0.008279725909233093
1761132113907785200,1.83378515625,0.025255203247070312,0.009911926463246346,-0.003421410918235779
1761132113917786000,1.8437861328125,0.02046680450439453,0.014804141595959663,-0.003351464867591858
1761132113927786000,1.853785888671875,0.02046680450439453,0.010074103251099586,-0.0033564120531082153
1761132113937786000,1.8637861328125,0.018072128295898438,0.0026896875351667404,-0.005812540650367737
1761132113947786000,1.873785888671875,0.020467758178710938,-0.002182208001613617,0.0037121176719665527
1761132113957786000,1.8837861328125,0.027649879455566406,0.0026666317135095596,0.00612090528011322
1761132113967786000,1.893785888671875,0.025257110595703125,0.0025224778801202774,0.008448153734207153
1761132113977786000,1.9037861328125,0.02046966552734375,0.0000014062970876693726,0.005946442484855652
1761132113987786000,1.913785888671875,0.022863388061523438,-0.002359239384531975,0.003490164875984192
1761132113997786000,1.9237861328125,0.02525806427001953,0.0024295691400766373,-0.0012981146574020386
1761132114007786000,1.933785888671875,0.030048370361328125,0.00474085658788681,-0.006138637661933899
1761132114017785000,1.94378515625,0.025259971618652344,0.004676103591918945,-0.015769466757774353
1761132114027785200,1.95378515625,0.025259971618652344,0.004592789337038994,-0.01582169532775879
1761132114037785000,1.96378515625,0.032444000244140625,-0.00014711730182170868,-0.0183381587266922
1761132114047785200,1.97378515625,0.030053138732910156,0.00474446639418602,-0.013716056942939758
1761132114057785000,1.98378515625,0.0228729248046875,0.0024574026465415955,-0.011448994278907776
1761132114067785200,1.99378515625,0.020479202270507812,-0.0021712519228458405,-0.006634414196014404
1761132114077785000,2.00378515625,0.02526569366455078,-0.004521500319242477,-0.0017906278371810913
1761132114087785200,2.01378515625,0.02048015594482422,-0.006865445524454117,0.00528930127620697
1761132114097785000,2.02378515625,0.01569366455078125,-0.009091712534427643,0.0027828067541122437
1761132114107785200,2.03378515625,0.018087387084960938,-0.008994437754154205,-0.0020136982202529907
1761132114117785900,2.043785888671875,0.020481109619140625,-0.006613157689571381,-0.004328042268753052
1761132114127786000,2.053785888671875,0.020479202270507812,-0.004228316247463226,-0.0018149614334106445
1761132114137786000,2.0637861328125,0.020481109619140625,-0.008983217179775238,-0.00427110493183136
1761132114147786000,2.073785888671875,0.0228729248046875,-0.006603695452213287,-0.006605058908462524
1761132114157786000,2.0837861328125,0.02526569366455078,-0.004222821444272995,-0.011313751339912415
1761132114167786000,2.093785888671875,0.015687942504882812,-0.0018374472856521606,-0.006406277418136597
1761132114177785900,2.103785888671875,-0.010650634765625,-0.006630394607782364,-0.0014402270317077637
1761132114187786000,2.113785888671875,-0.02262401580810547,-0.009229730814695358,0.0010891258716583252
1761132114197785900,2.123785888671875,0.07074165344238281,-0.00246613472700119,-0.005684882402420044
1761132114207786000,2.133785888671875,0.12819671630859375,-0.0005142595618963242,-0.010102346539497375
1761132114217785000,2.14378515625,0.1282033920288086,0.0000662393867969513,-0.010465189814567566
1761132114227785000,2.153784912109375,0.00611114501953125,0.0009614117443561554,-0.01583974063396454
1761132114237785000,2.16378515625,0.0037164688110351562,0.005908247083425522,-0.015833169221878052
1761132114247785000,2.173784912109375,0.02047443389892578,0.0012306831777095795,-0.008502274751663208
1761132114257785000,2.18378515625,0.027658462524414062,-0.0034500397741794586,0.003341779112815857
1761132114267785200,2.19378515625,0.00611114501953125,-0.008498623967170715,0.010467424988746643
1761132114277785000,2.20378515625,0.00371551513671875,-0.011148396879434586,0.0080748051404953
1761132114287785200,2.21378515625,0.04441356658935547,-0.016113068908452988,0.0083254873752594
1761132114297785000,2.22378515625,0.05398750305175781,-0.011349562555551529,0.0013218969106674194
1761132114307785000,2.233784912109375,0.030048370361328125,-0.006456725299358368,-0.0036325603723526
1761132114317785900,2.243785888671875,0.008502960205078125,-0.006235554814338684,-0.010991126298904419
1761132114327786000,2.253785888671875,0.008504867553710938,-0.006122611463069916,-0.02063613384962082
1761132114337785900,2.263785888671875,0.01568603515625,-0.005950029939413071,-0.02045365422964096
1761132114347786000,2.273785888671875,0.015685081481933594,-0.005946651101112366,-0.015626102685928345
1761132114357785900,2.283785888671875,0.0132904052734375,-0.00600636750459671,-0.006063804030418396
1761132114367786000,2.293785888671875,0.013288497924804688,-0.006113912910223007,-0.005936786532402039
1761132114377785900,2.303785888671875,0.02765369415283203,-0.008467674255371094,0.0012620091438293457
1761132114387786000,2.313785888671875,0.02286529541015625,-0.008367873728275299,0.0036676526069641113
1761132114397785900,2.323785888671875,0.01568603515625,-0.005866441875696182,0.0035406947135925293
1761132114417785000,2.34378515625,0.020473480224609375,-0.00588139146566391,-0.0011875331401824951
1761132114427785000,2.353784912109375,0.018077850341796875,-0.005899984389543533,-0.0059549808502197266
1761132114437785000,2.36378515625,0.01807689666748047,-0.00843263790011406,-0.010751590132713318
1761132114447785000,2.373784912109375,0.020471572875976562,-0.006116874516010284,-0.013139396905899048
1761132114457785000,2.38378515625,0.025259971618652344,-0.003682415932416916,-0.013123080134391785
1761132114467785000,2.393784912109375,0.020471572875976562,-0.008469834923744202,-0.005940303206443787
1761132114477785000,2.40378515625,0.02286529541015625,-0.01094694435596466,-0.0012040138244628906
1761132114487785000,2.413784912109375,0.025261878967285156,-0.013406675308942795,0.0035109519958496094
1761132114497785000,2.42378515625,0.027655601501464844,-0.008582290261983871,0.0058628469705581665
1761132114507785000,2.433784912109375,0.025262832641601562,-0.008464213460683823,0.005853384733200073
1761132114517785900,2.443785888671875,0.025261878967285156,-0.010876201093196869,0.003480389714241028
1761132114527786000,2.453785888671875,0.027655601501464844,-0.008378822356462479,0.003530949354171753
1761132114537785900,2.463785888671875,0.027655601501464844,-0.0034862011671066284,-0.0035815685987472534
1761132114547786000,2.473785888671875,0.022866249084472656,-0.0011501014232635498,-0.008364945650100708
1761132114557785900,2.483785888671875,0.02286529541015625,-0.003681119531393051,-0.010747790336608887
1761132114567786000,2.493785888671875,0.022867202758789062,-0.0060996003448963165,-0.010804757475852966
1761132114577785900,2.503785888671875,0.02286529541015625,-0.003720749169588089,-0.005956307053565979
1761132114587786000,2.513785888671875,0.02286529541015625,-0.0037211962044239044,-0.001167893409729004
1761132114597785900,2.523785888671875,0.02286529541015625,-0.001288585364818573,0.003617033362388611
1761132114607786000,2.533785888671875,0.02526092529296875,-0.0013716258108615875,0.003564879298210144
1761132114617785000,2.54378515625,0.02526092529296875,-0.0014305301010608673,0.00596386194229126
1761132114627785200,2.55378515625,0.022866249084472656,-0.0013942830264568329,0.005921661853790283
1761132114637785000,2.56378515625,0.02047252655029297,-0.003927595913410187,0.005913257598876953
1761132114647785200,2.57378515625,0.02286529541015625,-0.0016074255108833313,0.001189887523651123
1761132114657785000,2.58378515625,0.02526092529296875,-0.0040068961679935455,0.0011311322450637817
1761132114667785200,2.59378515625,0.025261878967285156,-0.0015771202743053436,-0.0036997050046920776
1761132114677785000,2.60378515625,0.02047252655029297,0.0031322482973337173,-0.008481740951538086
1761132114687785200,2.61378515625,0.02526092529296875,0.003131577745079994,-0.013270363211631775
1761132114697785000,2.62378515625,0.027655601501464844,0.0031740758568048477,-0.010872498154640198
1761132114707785200,2.63378515625,0.025261878967285156,0.003149809315800667,-0.013323664665222168
1761132114717785900,2.643785888671875,0.027654647827148438,0.0030760783702135086,-0.010864481329917908
1761132114727786000,2.653785888671875,0.027652740478515625,0.0007308200001716614,-0.00835619866847992
1761132114737785900,2.663785888671875,0.025259971618652344,-0.001549210399389267,-0.001222357153892517
1761132114747786000,2.673785888671875,0.025259971618652344,-0.003962550312280655,-0.001220613718032837
1761132114757786000,2.6837861328125,0.025259971618652344,-0.004025910049676895,-0.0036685317754745483
1761132114767786000,2.693785888671875,0.025261878967285156,-0.008902214467525482,-0.0037793368101119995
1761132114777786000,2.7037861328125,0.025259971618652344,-0.004123911261558533,-0.008448943495750427
1761132114787786000,2.713785888671875,0.02526092529296875,-0.006640516221523285,-0.008497953414916992
1761132114797786000,2.7237861328125,0.02525806427001953,-0.009123135358095169,-0.008372724056243896
1761132114807786000,2.733785888671875,0.025259017944335938,-0.01140037551522255,-0.008382394909858704
1761132114817785000,2.74378515625,0.025259017944335938,-0.006631072610616684,-0.003592357039451599
1761132114827785200,2.75378515625,0.025259017944335938,-0.0066493116319179535,-0.00357113778591156
1761132114837785000,2.76378515625,0.022863388061523438,-0.006605770438909531,0.0012725293636322021
1761132114847785200,2.77378515625,0.022864341735839844,-0.008946862071752548,0.0036030113697052
1761132114857785000,2.78378515625,0.027652740478515625,-0.004117745906114578,0.0036193281412124634
1761132114867785200,2.79378515625,0.022863388061523438,-0.001737695187330246,0.006073951721191406
1761132114877785000,2.80378515625,0.02525806427001953,0.00303049199283123,0.0036811530590057373
1761132114887785200,2.81378515625,0.022863388061523438,0.0005776509642601013,0.0012918263673782349
1761132114897785000,2.82378515625,0.02286243438720703,-0.0018307007849216461,0.0013522505760192871
1761132114907785200,2.83378515625,0.022861480712890625,-0.0018457919359207153,-0.003376021981239319
1761132114917785900,2.843785888671875,0.020468711853027344,0.0006430335342884064,-0.0058173686265945435
1761132114927786000,2.853785888671875,0.020468711853027344,-0.0017510317265987396,-0.010605737566947937
1761132114937786400,2.863786376953125,0.02046680450439453,0.0006276778876781464,-0.008151546120643616
1761132114947786500,2.873786376953125,0.02286243438720703,0.002992304041981697,-0.008267149329185486
1761132114957786400,2.883786376953125,0.022861480712890625,0.0005252212285995483,-0.005807816982269287
1761132114967786500,2.893786376953125,0.02525806427001953,0.0006340928375720978,-0.0035210251808166504
1761132114977786400,2.903786376953125,0.025259017944335938,-0.004218213260173798,-0.005969136953353882
1761132114987786500,2.913786376953125,0.022864341735839844,-0.009026028215885162,-0.005967468023300171
1761132114997786400,2.923786376953125,0.030046463012695312,-0.008981946855783463,-0.005912035703659058
1761132115007786500,2.933786376953125,0.032441139221191406,-0.00892694666981697,-0.008350327610969543
1761132115017785600,2.94378564453125,0.027650833129882812,-0.008897554129362106,-0.010628834366798401
1761132115027785700,2.95378564453125,0.027650833129882812,-0.006561983376741409,-0.010623976588249207
1761132115037785600,2.96378564453125,0.027649879455566406,-0.006576944142580032,-0.008169591426849365
1761132115047785700,2.97378564453125,0.030043601989746094,-0.008924730122089386,-0.008094534277915955
1761132115057785600,2.98378564453125,0.03243827819824219,-0.008890364319086075,-0.008156359195709229
1761132115067785700,2.99378564453125,0.032439231872558594,-0.00887274369597435,-0.005783259868621826
1761132115077785600,3.00378564453125,0.02764892578125,-0.0064337775111198425,-0.003314390778541565
1761132115087785700,3.01378564453125,0.02286052703857422,-0.00649353489279747,0.0014786571264266968
1761132115097785600,3.02378564453125,0.025255203247070312,-0.006513077765703201,0.003874480724334717
1761132115107785700,3.03378564453125,0.02764892578125,-0.006469398736953735,0.0015356093645095825
1761132115117786400,3.043786376953125,0.02764892578125,-0.0016451440751552582,-0.0009009242057800293
1761132115127786500,3.053786376953125,0.027649879455566406,-0.0017085038125514984,-0.0009546726942062378
1761132115137786600,3.06378662109375,0.027649879455566406,-0.001727469265460968,-0.0033472180366516113
1761132115147786500,3.073786376953125,0.027649879455566406,-0.0019098594784736633,-0.003410816192626953
1761132115157786600,3.08378662109375,0.027650833129882812,-0.0019341260194778442,-0.005861997604370117
1761132115167786500,3.093786376953125,0.027649879455566406,-0.001948811113834381,-0.005801737308502197
1761132115177786600,3.10378662109375,0.027647972106933594,-0.004292048513889313,-0.00327378511428833
1761132115187786500,3.113786376953125,0.027647972106933594,-0.006706468760967255,0.0015160143375396729
1761132115197786600,3.12378662109375,0.02764892578125,-0.004317574203014374,-0.003331020474433899
1761132115207786500,3.133786376953125,0.027649879455566406,-0.00440654531121254,-0.003442138433456421
1761132115217785600,3.14378564453125,0.02525615692138672,-0.002012345939874649,-0.003442138433456421
1761132115227785700,3.15378564453125,0.025255203247070312,-0.002149038016796112,-0.0034307539463043213
1761132115237785000,3.16378515625,0.02764892578125,0.0002891160547733307,-0.0033753663301467896
1761132115247785200,3.17378515625,0.02764892578125,0.0003446526825428009,-0.0034192800521850586
1761132115257785000,3.18378515625,0.025255203247070312,0.00038428232073783875,-0.003422349691390991
1761132115267785200,3.19378515625,0.02525806427001953,-0.0019654594361782074,-0.0036029815673828125
1761132115277785000,3.20378515625,0.02525806427001953,-0.001983247697353363,-0.0011875778436660767
1761132115287785200,3.21378515625,0.02525806427001953,0.00045535340905189514,0.0012620091438293457
1761132115297785000,3.22378515625,0.025257110595703125,0.0005783885717391968,0.0013304054737091064
1761132115307785200,3.23378515625,0.025257110595703125,-0.006624165922403336,0.003726094961166382
1761132115317786000,3.2437861328125,0.02525806427001953,-0.0066480375826358795,0.003669247031211853
1761132115327786000,3.253785888671875,0.027650833129882812,-0.006543248891830444,0.006133571267127991
1761132115337786000,3.2637861328125,0.027650833129882812,-0.008937854319810867,0.006133422255516052
1761132115347786000,3.273785888671875,0.02525806427001953,-0.006508879363536835,0.0036775320768356323
1761132115357786000,3.2837861328125,0.02525806427001953,-0.006567381322383881,0.003682434558868408
1761132115367786000,3.293785888671875,0.02525806427001953,-0.006645970046520233,0.006082981824874878
1761132115377786000,3.3037861328125,0.025257110595703125,-0.009060032665729523,0.0036904513835906982
1761132115387786000,3.313785888671875,0.02765178680419922,-0.006671089679002762,0.003631681203842163
1761132115397786000,3.3237861328125,0.02765178680419922,-0.0018418394029140472,0.0012538284063339233
1761132115407786000,3.333785888671875,0.027650833129882812,-0.0017978884279727936,0.001309230923652649
1761132115417785000,3.34378515625,0.02764892578125,-0.0017477348446846008,-0.0009514689445495605
1761132115427785200,3.35378515625,0.022859573364257812,-0.0016979426145553589,-0.0008372664451599121
1761132115437785000,3.36378515625,0.02286052703857422,-0.004116985946893692,-0.0008942782878875732
1761132115447785200,3.37378515625,0.022859573364257812,-0.0016766376793384552,-0.005607694387435913
1761132115457785000,3.38378515625,0.025254249572753906,-0.0016192495822906494,-0.010401219129562378
1761132115467785200,3.39378515625,0.02525615692138672,-0.004042182117700577,-0.005728289484977722
1761132115477785000,3.40378515625,0.025257110595703125,-0.0016532428562641144,-0.0033928602933883667
1761132115487785200,3.41378515625,0.02525615692138672,-0.0038844607770442963,-0.003327593207359314
1761132115497785000,3.42378515625,0.025257110595703125,0.0010038726031780243,-0.0033161044120788574
1761132115507785200,3.43378515625,0.02286052703857422,-0.0014054663479328156,-0.0008616447448730469
1761132115517786000,3.4437861328125,0.02286052703857422,-0.0037995316088199615,0.003926798701286316
1761132115527786000,3.453785888671875,0.020467758178710938,-0.0037001818418502808,0.0063324421644210815
1761132115537786000,3.4637861328125,0.022859573364257812,-0.0061088912189006805,0.0063925981521606445
1761132115547786000,3.473785888671875,0.020465850830078125,-0.008639916777610779,0.0016155391931533813
1761132115557786000,3.4837861328125,0.020465850830078125,-0.003851376473903656,0.0016155838966369629
1761132115567786000,3.493785888671875,0.02046489715576172,-0.0014721788465976715,-0.0007182955741882324
1761132115577786000,3.5037861328125,0.02046489715576172,0.0008442886173725128,-0.003106027841567993
1761132115587786000,3.513785888671875,0.02046489715576172,0.0008822642266750336,-0.007897898554801941
1761132115597786000,3.5237861328125,0.020463943481445312,-0.001590527594089508,-0.0054973214864730835
1761132115607786000,3.533785888671875,0.01807117462158203,-0.0014772005379199982,-0.007940426468849182
1761132115617785300,3.543785400390625,0.022859573364257812,-0.003890950232744217,-0.005544587969779968
1761132115627785500,3.553785400390625,0.0252532958984375,-0.0015117041766643524,-0.005484431982040405
1761132115637785300,3.563785400390625,0.022857666015625,0.0008694343268871307,-0.0030104368925094604
1761132115647785500,3.573785400390625,0.022856712341308594,0.0008544810116291046,-0.0053444504737854
1761132115657785300,3.583785400390625,0.025251388549804688,0.0007911138236522675,-0.0030039846897125244
1761132115667785500,3.593785400390625,0.025249481201171875,0.0007031038403511047,-0.0028786063194274902
1761132115677785300,3.603785400390625,0.02285480499267578,0.000642579048871994,-0.0004991739988327026
1761132115687785500,3.613785400390625,0.020461082458496094,0.0006234049797058105,-0.005266666412353516
1761132115697785300,3.623785400390625,0.02285480499267578,-0.001731574535369873,-0.005269870162010193
1761132115707785500,3.633785400390625,0.02285480499267578,-0.0017368346452713013,-0.007722839713096619
1761132115717786000,3.6437861328125,0.022856712341308594,-0.001701653003692627,-0.0077653974294662476
1761132115727786200,3.6537861328125,0.020461082458496094,0.0030770618468523026,-0.007646456360816956
1761132115737786000,3.6637861328125,0.02285480499267578,0.0006771571934223175,-0.005311012268066406
1761132115747786200,3.6737861328125,0.0204620361328125,0.0030470844358205795,-0.005367979407310486
1761132115757786000,3.6837861328125,0.0204620361328125,0.002968898043036461,-0.007755711674690247
1761132115767786200,3.6937861328125,0.02285480499267578,0.005406379699707031,-0.0029121190309524536
1761132115777786000,3.7037861328125,0.02285480499267578,0.005466237664222717,-0.0028975605964660645
1761132115787786200,3.7137861328125,0.025249481201171875,0.005505461245775223,-0.0005065500736236572
1761132115797786000,3.7237861328125,0.025247573852539062,0.005378369241952896,-0.0027721375226974487
1761132115807786200,3.7337861328125,0.025247573852539062,0.0029647555202245712,-0.002770468592643738
1761132115817785300,3.743785400390625,0.022853851318359375,0.0006244629621505737,-0.00762234628200531
1761132115827785200,3.75378515625,0.02524852752685547,0.0006069391965866089,-0.009995251893997192
1761132115837785300,3.763785400390625,0.025249481201171875,-0.001752905547618866,-0.01005709171295166
1761132115847785200,3.77378515625,0.02524852752685547,-0.0017679892480373383,-0.005208536982536316
1761132115857785300,3.783785400390625,0.027640342712402344,-0.004111174494028091,-0.0026807188987731934
1761132115867785200,3.79378515625,0.02524566650390625,-0.004126172512769699,-0.005014628171920776
1761132115877785300,3.803785400390625,0.025243759155273438,-0.001682717353105545,-0.004900604486465454
1761132115887785200,3.81378515625,0.025246620178222656,-0.0016320422291755676,-0.00021474063396453857
1761132115897785300,3.823785400390625,0.025246620178222656,-0.0015343129634857178,-0.00022283196449279785
1761132115907785200,3.83378515625,0.027640342712402344,-0.0014787837862968445,-0.0002667456865310669
1761132115917785900,3.843785888671875,0.027640342712402344,-0.0014981962740421295,0.0021291226148605347
1761132115927786000,3.853785888671875,0.025246620178222656,-0.003907483071088791,-0.00020495057106018066
1761132115937785900,3.863785888671875,0.027640342712402344,-0.003911808133125305,-0.00026342272758483887
1761132115947786000,3.873785888671875,0.030035972595214844,-0.0038759559392929077,0.0020884573459625244
1761132115957785900,3.883785888671875,0.02524852752685547,-0.0014286898076534271,-0.000369340181350708
1761132115967786000,3.893785888671875,0.02524852752685547,-0.006237044930458069,-0.00036785006523132324
1761132115977785900,3.903785888671875,0.02285480499267578,-0.011029772460460663,-0.0004263073205947876
1761132115987786000,3.913785888671875,0.02525043487548828,-0.010935146361589432,-0.0004734545946121216
1761132115997785900,3.923785888671875,0.027643203735351562,-0.010950233787298203,0.0019808709621429443
1761132116007786000,3.933785888671875,0.027642250061035156,-0.013358540832996368,0.004435360431671143
1761132116017785000,3.94378515625,0.02764129638671875,-0.013312969356775284,0.0021161139011383057
1761132116027785200,3.95378515625,0.025247573852539062,-0.008466240018606186,0.002111300826072693
1761132116037785000,3.96378515625,0.025246620178222656,-0.008417010307312012,0.004638686776161194
1761132116047785200,3.97378515625,0.022851943969726562,-0.0037673115730285645,0.007024601101875305
1761132116057785000,3.98378515625,0.01806354522705078,-0.0013983584940433502,0.004573240876197815
1761132116067785200,3.99378515625,0.018065452575683594,-0.0014079511165618896,0.002061814069747925
1761132116077785000,4.00378515625,0.022851943969726562,-0.0014823414385318756,0.0021265894174575806
1761132116087785200,4.01378515625,0.02285289764404297,0.000887453556060791,0.0020695775747299194
1761132116097785000,4.02378515625,0.027640342712402344,-0.00642617791891098,0.002139866352081299
1761132116107785200,4.03378515625,0.02763843536376953,-0.006500300019979477,0.0045989155769348145
1761132116117785900,4.043785888671875,0.02045726776123047,-0.006442371755838394,0.004593968391418457
1761132116127786000,4.053785888671875,0.020456314086914062,-0.006397198885679245,0.004668787121772766
1761132116137786000,4.0637861328125,0.022849082946777344,-0.0064752474427223206,0.0022811144590377808
1761132116147786000,4.073785888671875,0.020455360412597656,-0.008884400129318237,0.0023412853479385376
1761132116157786000,4.0837861328125,0.020456314086914062,-0.00889492779970169,-0.0001704394817352295
1761132116167786000,4.093785888671875,0.020455360412597656,-0.008968114852905273,-0.0024994760751724243
1761132116177786000,4.1037861328125,0.020455360412597656,-0.0065352655947208405,-0.002502724528312683
1761132116187786000,4.113785888671875,0.02045440673828125,-0.006547749042510986,-0.0024228692054748535
1761132116197786000,4.1237861328125,0.02045440673828125,-0.004173494875431061,-0.000027194619178771973
1761132116207786000,4.133785888671875,0.022849082946777344,-0.0016627274453639984,-0.00003698468208312988
1761132116217785000,4.14378515625,0.02524280548095703,0.0006524920463562012,-0.00003075599670410156
1761132116227785200,4.15378515625,0.02524280548095703,0.003087097778916359,-0.000014409422874450684
1761132116237785000,4.16378515625,0.025243759155273438,0.0006881654262542725,0.002321183681488037
1761132116247785200,4.17378515625,0.025244712829589844,-0.001730848103761673,0.004658252000808716
1761132116257785000,4.18378515625,0.027637481689453125,-0.0017449967563152313,0.004718676209449768
1761132116267785200,4.19378515625,0.032425880432128906,-0.0016900040209293365,0.002280399203300476
1761132116277785000,4.20378515625,0.032425880432128906,-0.004103615880012512,0.002282053232192993
1761132116287785200,4.21378515625,0.032425880432128906,-0.006517764180898666,-0.0001106560230255127
1761132116297785000,4.22378515625,0.032425880432128906,-0.004123028367757797,-0.00011047720909118652
1761132116307785200,4.23378515625,0.03003215789794922,-0.0018068775534629822,-0.00010395050048828125
1761132116317785900,4.243785888671875,0.02763843536376953,0.000562518835067749,-0.000161096453666687
1761132116327786000,4.253785888671875,0.02763843536376953,0.002897815778851509,-0.00015631318092346191
1761132116337785900,4.263785888671875,0.025244712829589844,-0.0017920434474945068,-0.00014513731002807617
1761132116347786000,4.273785888671875,0.025244712829589844,0.0005228929221630096,-0.002552226185798645
1761132116357785900,4.283785888671875,0.02763843536376953,0.0029130075126886368,-0.002591431140899658
1761132116367786000,4.293785888671875,0.025244712829589844,0.0005572326481342316,-0.0025949031114578247
1761132116377785900,4.303785888671875,0.030033111572265625,0.00047833845019340515,-0.00019428133964538574
1761132116387786000,4.313785888671875,0.030033111572265625,-0.0018576309084892273,0.002194911241531372
1761132116397785900,4.323785888671875,0.03003406524658203,-0.0018831081688404083,0.006925955414772034
1761132116407786000,4.333785888671875,0.030033111572265625,-0.001842837780714035,0.006942272186279297
1761132116417785000,4.34378515625,0.02763843536376953,-0.0042369067668914795,0.002153918147087097
1761132116427785200,4.35378515625,0.02763843536376953,-0.001862209290266037,-0.005027204751968384
1761132116437785000,4.36378515625,0.027640342712402344,-0.004222497344017029,-0.005089029669761658
1761132116447785200,4.37378515625,0.02764129638671875,-0.004109270870685577,-0.0027439147233963013
1761132116457785000,4.38378515625,0.02524566650390625,-0.0017247498035430908,-0.005019187927246094
1761132116467785200,4.39378515625,0.025246620178222656,-0.0017491616308689117,-0.0026819854974746704
1761132116477785000,4.40378515625,0.022851943969726562,-0.0017649270594120026,-0.0050675272941589355
1761132116487785200,4.41378515625,0.022851943969726562,-0.004098735749721527,-0.00505279004573822
1761132116497785000,4.42378515625,0.02524852752685547,-0.0016556121408939362,-0.005174919962882996
1761132116507785200,4.43378515625,0.022853851318359375,-0.00407002866268158,-0.0027793198823928833
1761132116517785900,4.443785888671875,0.025247573852539062,-0.004148654639720917,0.0020155608654022217
1761132116527786000,4.453785888671875,0.025246620178222656,-0.004158753901720047,-0.0002598315477371216
1761132116537785900,4.463785888671875,0.025246620178222656,-0.0018483921885490417,-0.0027064383029937744
1761132116547786000,4.473785888671875,0.025246620178222656,0.0006041713058948517,-0.0003171861171722412
1761132116557785900,4.483785888671875,0.022851943969726562,0.0005858056247234344,-0.00029602646827697754
1761132116567786000,4.493785888671875,0.025247573852539062,0.0006788112223148346,-0.0003627091646194458
1761132116577785900,4.503785888671875,0.02524852752685547,0.0007921792566776276,0.001982465386390686
1761132116587786000,4.513785888671875,0.022851943969726562,0.0008401423692703247,0.0020963847637176514
1761132116597785900,4.523785888671875,0.022851943969726562,-0.0015738755464553833,-0.0002962946891784668
1761132116607786000,4.533785888671875,0.02285289764404297,-0.0015343651175498962,0.002113819122314453
1761132116617785000,4.54378515625,0.02524852752685547,0.0007916167378425598,0.004395648837089539
1761132116627785200,4.55378515625,0.027643203735351562,0.0008445493876934052,0.0019378364086151123
1761132116637785000,4.56378515625,0.027642250061035156,0.0008898526430130005,0.002012684941291809
1761132116647785200,4.57378515625,0.02524852752685547,-0.0016423910856246948,0.0020046234130859375
1761132116657785000,4.58378515625,0.025247573852539062,-0.0016569457948207855,-0.0003292858600616455
1761132116667785200,4.59378515625,0.025247573852539062,-0.0016747377812862396,-0.0003080815076828003
1761132116677785000,4.60378515625,0.02764129638671875,0.0007732436060905457,-0.005159974098205566
1761132116687785200,4.61378515625,0.027640342712402344,0.0006996504962444305,-0.0074891597032547
1761132116697785000,4.62378515625,0.027640342712402344,0.0007432028651237488,-0.007433891296386719
1761132116707785200,4.63378515625,0.025246620178222656,0.0007233917713165283,-0.005038142204284668
1761132116717785900,4.643785888671875,0.02524566650390625,0.0007050596177577972,-0.005017116665840149
1761132116727786000,4.653785888671875,0.02524566650390625,0.0007487013936042786,-0.002567470073699951
1761132116737785900,4.663785888671875,0.027639389038085938,0.0007479004561901093,-0.0025677233934402466
1761132116747786000,4.673785888671875,0.02763843536376953,0.005458250641822815,-0.007349610328674316
1761132116757785900,4.683785888671875,0.027637481689453125,-0.0017975419759750366,-0.00489024817943573
1761132116767786000,4.693785888671875,0.02763843536376953,-0.004201460629701614,-0.00021910667419433594
1761132116777786000,4.7037861328125,0.030033111572265625,-0.004216812551021576,-0.0025532692670822144
1761132116787786000,4.713785888671875,0.030033111572265625,-0.006692856550216675,-0.002605035901069641
1761132116797786000,4.7237861328125,0.030033111572265625,-0.006713069975376129,-0.0002094358205795288
1761132116807786000,4.733785888671875,0.03003406524658203,-0.006717797368764877,-0.0002680271863937378
1761132116817785000,4.74378515625,0.027640342712402344,-0.009056199342012405,0.006870746612548828
1761132116827785200,4.75378515625,0.025247573852539062,-0.011416435241699219,0.00680878758430481
1761132116837785000,4.76378515625,0.025247573852539062,-0.011436380445957184,0.006810292601585388
1761132116847785200,4.77378515625,0.025247573852539062,-0.011318203061819077,0.00442582368850708
1761132116857785000,4.78378515625,0.025246620178222656,-0.013849224895238876,0.0020429641008377075
1761132116867785200,4.79378515625,0.02285289764404297,-0.013873450458049774,0.0019858628511428833
1761132116877785000,4.80378515625,0.02285289764404297,-0.009027257561683655,0.0019808709621429443
1761132116887785200,4.81378515625,0.02285289764404297,-0.006587754935026169,-0.0003384798765182495
1761132116897785000,4.82378515625,0.020456314086914062,-0.006597444415092468,0.002174660563468933
1761132116907785200,4.83378515625,0.02045726776123047,-0.008891895413398743,0.0021862536668777466
1761132116917785900,4.843785888671875,0.020458221435546875,-0.0064584724605083466,-0.00021116435527801514
1761132116927786000,4.853785888671875,0.020458221435546875,-0.004006430506706238,-0.0026104748249053955
1761132116937785900,4.863785888671875,0.022851943969726562,-0.004025842994451523,-0.0026088058948516846
1761132116947786000,4.873785888671875,0.02524566650390625,-0.004104427993297577,-0.004996657371520996
1761132116957785900,4.883785888671875,0.025244712829589844,-0.0018473565578460693,-0.0001968592405319214
1761132116967786000,4.893785888671875,0.025243759155273438,-0.004373781383037567,-0.00012697279453277588
1761132116977786400,4.903786376953125,0.025243759155273438,-0.004335492849349976,0.0022637397050857544
1761132116987786500,4.913786376953125,0.025243759155273438,-0.0018226653337478638,-0.00012072920799255371
1761132116997786400,4.923786376953125,0.02524566650390625,-0.0017741955816745758,-0.00024287402629852295
1761132117007786500,4.933786376953125,0.025246620178222656,-0.004251699894666672,-0.0026893019676208496
1761132117017785600,4.94378564453125,0.025246620178222656,-0.0019348450005054474,0.002105697989463806
1761132117027785500,4.953785400390625,0.02763843536376953,-0.001949794590473175,0.0045600831508636475
1761132117037785600,4.96378564453125,0.02763843536376953,-0.0018914639949798584,0.00216105580329895
1761132117047785500,4.973785400390625,0.02524566650390625,-0.00424981489777565,0.002118721604347229
1761132117057785600,4.98378564453125,0.025246620178222656,-0.008979450911283493,0.0021138936281204224
1761132117067785500,4.993785400390625,0.027639389038085938,-0.00899895653128624,-0.0026730000972747803
1761132117077785600,5.00378564453125,0.027639389038085938,-0.006622985005378723,-0.005045995116233826
1761132117087785500,5.013785400390625,0.025247573852539062,-0.006574071943759918,-0.0027739256620407104
1761132117097785600,5.02378564453125,0.02524852752685547,-0.006539713591337204,-0.005229964852333069
1761132117107785500,5.033785400390625,0.025247573852539062,-0.006612896919250488,-0.0027706027030944824
1761132117117786400,5.043786376953125,0.02764129638671875,-0.006494805216789246,-0.0003668367862701416
1761132117127786200,5.0537861328125,0.030035972595214844,-0.0016684234142303467,-0.00037029385566711426
1761132117137786400,5.063786376953125,0.025247573852539062,0.0007110945880413055,0.0020841658115386963
1761132117147786500,5.073786376953125,0.02524566650390625,0.0006973631680011749,-0.0026246458292007446
1761132117157786400,5.083786376953125,0.025246620178222656,0.0031444933265447617,-0.007476687431335449
1761132117167786500,5.093786376953125,0.025246620178222656,0.005518481135368347,-0.0026868581771850586
1761132117177786400,5.103786376953125,0.02764129638671875,0.0031002704054117203,-0.002743750810623169
1761132117187786500,5.113786376953125,0.030035018920898438,0.005539782345294952,-0.002668902277946472
1761132117197786400,5.123786376953125,0.027640342712402344,0.0054807476699352264,-0.00026994943618774414
1761132117207786500,5.133786376953125,0.022851943969726562,0.0030076447874307632,-0.002657756209373474
1761132117217785600,5.14378564453125,0.025246620178222656,0.0005930997431278229,-0.002656400203704834
1761132117227785500,5.153785400390625,0.025246620178222656,0.000690121203660965,-0.00027039647102355957
1761132117237785600,5.16378564453125,0.025246620178222656,0.0006893165409564972,-0.000270649790763855
1761132117247785500,5.173785400390625,0.022851943969726562,-0.0017833374440670013,-0.0002642422914505005
1761132117257785600,5.18378564453125,0.022850990295410156,0.0005324222147464752,-0.0026520490646362305
1761132117267785700,5.19378564453125,0.02285003662109375,-0.0042161159217357635,-0.0050300657749176025
1761132117277785000,5.20378515625,0.022851943969726562,-0.004279885441064835,-0.005083918571472168
1761132117287785200,5.21378515625,0.02524566650390625,-0.001965489238500595,-0.002702772617340088
1761132117297785000,5.22378515625,0.027640342712402344,-0.0019099637866020203,-0.0003524869680404663
1761132117307785200,5.23378515625,0.027640342712402344,-0.00666007399559021,-0.002750188112258911
1761132117317785900,5.243785888671875,0.025246620178222656,-0.004280418157577515,-0.0026898980140686035
1761132117327786000,5.253785888671875,0.025247573852539062,-0.006566304713487625,-0.0004032701253890991
1761132117337785900,5.263785888671875,0.025247573852539062,-0.006585318595170975,-0.00040146708488464355
1761132117347786000,5.273785888671875,0.02524852752685547,-0.006466243416070938,-0.0003917515277862549
1761132117357785900,5.283785888671875,0.022851943969726562,-0.006431698799133301,-0.0026115328073501587
1761132117367786000,5.293785888671875,0.022849082946777344,-0.004164852201938629,-0.002482995390892029
1761132117377785900,5.303785888671875,0.025243759155273438,-0.006579447537660599,-0.002481505274772644
1761132117387786000,5.313785888671875,0.027635574340820312,-0.0066530294716358185,-0.002416461706161499
1761132117397785900,5.323785888671875,0.02524280548095703,-0.006553683429956436,-0.002405017614364624
1761132117407786000,5.333785888671875,0.025241851806640625,-0.0017798244953155518,0.00004947185516357422
1761132117417785000,5.34378515625,0.025241851806640625,-0.004054989665746689,0.002453535795211792
1761132117427785200,5.35378515625,0.025241851806640625,-0.00401059165596962,0.0025089234113693237
1761132117437785000,5.36378515625,0.020453453063964844,-0.0063057541847229,0.0001261979341506958
1761132117447785000,5.373784912109375,0.02045440673828125,-0.0015226192772388458,0.00006744265556335449
1761132117457785000,5.38378515625,0.022846221923828125,0.0007988028228282928,0.00013273954391479492
1761132117467785000,5.393784912109375,0.025239944458007812,-0.0016739852726459503,0.00013910233974456787
1761132117477785000,5.40378515625,0.0276336669921875,-0.0016937963664531708,-0.004647761583328247
1761132117487785000,5.413784912109375,0.0276336669921875,-0.004161179065704346,-0.004582598805427551
1761132117497785000,5.42378515625,0.025238990783691406,-0.0017869248986244202,-0.006975322961807251
1761132117507785200,5.43378515625,0.025239944458007812,-0.0042440928518772125,-0.0046347081661224365
1761132117517785900,5.443785888671875,0.027631759643554688,-0.004312541335821152,-0.004510954022407532
1761132117527786000,5.453785888671875,0.027632713317871094,-0.0018791183829307556,-0.0069083571434021
1761132117537785900,5.463785888671875,0.02763080596923828,-0.004288259893655777,-0.006848186254501343
1761132117547786000,5.473785888671875,0.030025482177734375,-0.004366002976894379,-0.004447489976882935
1761132117557785900,5.483785888671875,0.030025482177734375,-0.0019757598638534546,0.0003017336130142212
1761132117567786000,5.493785888671875,0.027629852294921875,-0.0020466260612010956,-0.0019885003566741943
1761132117577785900,5.503785888671875,0.027627944946289062,0.002728411927819252,0.0004855543375015259
1761132117587786000,5.513785888671875,0.025234222412109375,0.005044475197792053,0.005280300974845886
1761132117597785900,5.523785888671875,0.025234222412109375,0.005024220794439316,0.0028876513242721558
1761132117607786000,5.533785888671875,0.027627944946289062,0.00027990713715553284,0.0005488842725753784
1761132117617785000,5.54378515625,0.030022621154785156,0.00026036426424980164,-0.0018436908721923828
1761132117627785000,5.553784912109375,0.027626991271972656,0.00020186230540275574,-0.001838788390159607
1761132117637785000,5.56378515625,0.02762603759765625,0.002581825479865074,0.0006156712770462036
1761132117647785000,5.573784912109375,0.02762603759765625,0.00017125532031059265,0.0006242692470550537
1761132117657785000,5.58378515625,0.027625083923339844,0.0024917349219322205,0.0006892681121826172
1761132117667785000,5.593784912109375,0.030019760131835938,0.0024723224341869354,0.003085121512413025
1761132117677785000,5.60378515625,0.03001880645751953,0.0023987311869859695,0.003150150179862976
1761132117687785000,5.613784912109375,0.02762317657470703,-0.004861211404204369,0.0007625371217727661
1761132117697785000,5.62378515625,0.03001880645751953,-0.004924975335597992,0.0007086843252182007
1761132117707785000,5.633784912109375,0.027624130249023438,-0.0024916846305131912,0.0030996352434158325
1761132117717785900,5.643785888671875,0.02762317657470703,-0.00011041946709156036,0.003179490566253662
1761132117727786000,5.653785888671875,0.025229454040527344,-0.00252363458275795,0.0007870793342590332
1761132117737785900,5.663785888671875,0.02762317657470703,-0.00252363458275795,-0.0016071200370788574
1761132117747785000,5.673784912109375,0.030019760131835938,0.0022499319165945053,-0.001783132553100586
1761132117757785000,5.68378515625,0.03002166748046875,-0.00017397291958332062,-0.0018987804651260376
1761132117767785000,5.693784912109375,0.030022621154785156,-0.00012001395225524902,-0.0019623488187789917
1761132117777785000,5.70378515625,0.030022621154785156,-0.00006492249667644501,-0.0020062625408172607
1761132117787785200,5.71378515625,0.03002166748046875,-0.00003685802221298218,0.0005032271146774292
1761132117797785000,5.72378515625,0.03002166748046875,-0.00003672577440738678,0.0005032718181610107
1761132117807785000,5.733784912109375,0.027627944946289062,-0.0000013150274753570557,0.00046093761920928955
1761132117817784000,5.7437841796875,0.027626991271972656,-0.002474365755915642,0.0004672110080718994
1761132117827784200,5.7537841796875,0.02762889862060547,-0.00002678297460079193,-0.0019906163215637207
1761132117837784000,5.7637841796875,0.027626991271972656,-0.000041775405406951904,0.00046387314796447754
1761132117847784200,5.7737841796875,0.025234222412109375,0.002328457310795784,-0.0019873380661010742
1761132117857784000,5.7837841796875,0.02523326873779297,0.00233546644449234,-0.0019089877605438232
1761132117867784200,5.7937841796875,0.02523326873779297,-0.0025916416198015213,0.0004769265651702881
1761132117877784000,5.8037841796875,0.025234222412109375,-0.0026209019124507904,0.0003612637519836426
1761132117887784200,5.8137841796875,0.027627944946289062,-0.0003442447632551193,0.0027651041746139526
1761132117897784000,5.8237841796875,0.02283763885498047,-0.00031581707298755646,0.0028806179761886597
1761132117907784200,5.8337841796875,0.02283763885498047,-0.0027086660265922546,0.0005058795213699341
1761132117917785000,5.84378515625,0.02283763885498047,-0.007578112185001373,0.0028867721557617188
1761132117927785000,5.853784912109375,0.02283763885498047,-0.00520126149058342,0.0005137771368026733
1761132117937785000,5.86378515625,0.02283954620361328,-0.005210844799876213,0.00039653480052948
1761132117947785000,5.873784912109375,0.02283763885498047,-0.005220675840973854,0.0005154460668563843
1761132117957785000,5.88378515625,0.022836685180664062,-0.005239689722657204,0.0005172193050384521
1761132117967785000,5.893784912109375,0.02044391632080078,-0.0028503481298685074,0.0028527826070785522
1761132117977785000,5.90378515625,0.022838592529296875,-0.0005390569567680359,0.002800658345222473
1761132117987785000,5.913784912109375,0.02283954620361328,-0.0005441810935735703,0.0027419477701187134
1761132117997785000,5.92378515625,0.025234222412109375,-0.0029579289257526398,-0.0020448267459869385
1761132118007785000,5.933784912109375,0.027626991271972656,-0.002911824733018875,0.0004244893789291382
1761132118017784000,5.9437841796875,0.027627944946289062,-0.0029166825115680695,0.0003658384084701538
1761132118027784200,5.9537841796875,0.025234222412109375,-0.005272459238767624,0.00036238133907318115
1761132118037784000,5.9637841796875,0.025234222412109375,-0.005297128111124039,0.0003052949905395508
1761132118047785200,5.97378515625,0.025234222412109375,-0.0076905507594347,0.0003247261047363281
1761132118057785000,5.98378515625,0.02283954620361328,-0.005257522687315941,0.0003214031457901001
1761132118067785000,5.993784912109375,0.025234222412109375,-0.007547520101070404,-0.002002716064453125
1761132118077785000,6.00378515625,0.02283954620361328,-0.007625969126820564,-0.004390522837638855
1761132118087785000,6.013784912109375,0.027626991271972656,-0.007704153656959534,-0.0019898414611816406
1761132118097785000,6.02378515625,0.027627944946289062,-0.010049702599644661,-0.002112060785293579
1761132118107785000,6.033784912109375,0.025234222412109375,-0.007728824391961098,-0.00683535635471344
1761132118117785900,6.043785888671875,0.025234222412109375,-0.005354871973395348,-0.004439592361450195
1761132118127786000,6.053785888671875,0.020444869995117188,-0.007821822538971901,-0.0019802451133728027
1761132118137785900,6.063785888671875,0.020444869995117188,-0.00787966325879097,-0.004369333386421204
1761132118147786000,6.073785888671875,0.02044391632080078,-0.007957270368933678,-0.004362821578979492
1761132118157785900,6.083785888671875,0.022836685180664062,-0.007795266807079315,-0.009086117148399353
1761132118167786000,6.093785888671875,0.022835731506347656,-0.005351675674319267,-0.008972063660621643
1761132118177785900,6.103785888671875,0.02283477783203125,-0.005189146846532822,-0.004118368029594421
1761132118187786000,6.113785888671875,0.022832870483398438,-0.00986318290233612,-0.0015368163585662842
1761132118197785900,6.123785888671875,0.027622222900390625,-0.0075514912605285645,-0.0015888065099716187
1761132118207786000,6.133785888671875,0.02522754669189453,-0.005215927958488464,0.0008102506399154663
1761132118227785000,6.153784912109375,0.02522754669189453,-0.005432279780507088,0.0008086115121841431
1761132118237785000,6.16378515625,0.02283191680908203,-0.005391968414187431,-0.0015694200992584229
1761132118247785000,6.173784912109375,0.025226593017578125,-0.00299803726375103,-0.003963693976402283
1761132118257785000,6.18378515625,0.027620315551757812,-0.0006237756460905075,-0.0015680044889450073
1761132118267785000,6.193784912109375,0.027622222900390625,-0.003042556345462799,-0.0016249269247055054
1761132118277785000,6.20378515625,0.030015945434570312,-0.003101460635662079,-0.0016201585531234741
1761132118287785000,6.213784912109375,0.027622222900390625,-0.0031867865473031998,0.0007021278142929077
1761132118297785000,6.22378515625,0.02522754669189453,-0.005575995892286301,0.0031550079584121704
1761132118307785000,6.233784912109375,0.025228500366210938,-0.0031469017267227173,0.003093346953392029
1761132118317785900,6.243785888671875,0.02762126922607422,-0.005613449960947037,0.0031586140394210815
1761132118327786000,6.253785888671875,0.02762126922607422,-0.005677215754985809,0.0031047463417053223
1761132118337785900,6.263785888671875,0.025228500366210938,-0.005740050226449966,0.005445390939712524
1761132118347786000,6.273785888671875,0.022833824157714844,-0.005701219663023949,0.010230466723442078
1761132118357785900,6.283785888671875,0.02283477783203125,-0.008042309433221817,0.005378350615501404
1761132118377785900,6.303785888671875,0.02762317657470703,-0.005603358149528503,0.0006456077098846436
1761132118387786000,6.313785888671875,0.030017852783203125,-0.0055689942091703415,-0.0042046308517456055
1761132118397785900,6.323785888671875,0.027622222900390625,-0.0031246282160282135,-0.0088595449924469
1761132118407786000,6.333785888671875,0.02283477783203125,-0.0030705835670232773,-0.008922964334487915
1761132118417785000,6.34378515625,0.022836685180664062,-0.0006325878202915192,-0.006709620356559753
1761132118427785000,6.353784912109375,0.020444869995117188,-0.0030363723635673523,-0.0044326335191726685
1761132118437785000,6.36378515625,0.022838592529296875,-0.005508892238140106,-0.004426196217536926
1761132118447785000,6.373784912109375,0.02283954620361328,-0.005632510408759117,-0.006888836622238159
1761132118457785000,6.38378515625,0.02283954620361328,-0.0032577235251665115,-0.002098754048347473
1761132118467785000,6.393784912109375,0.025234222412109375,-0.0008677132427692413,0.0026312023401260376
1761132118477785000,6.40378515625,0.02523517608642578,-0.0033252816647291183,0.002577468752861023
1761132118487785000,6.413784912109375,0.022840499877929688,-0.0008922498673200607,0.0049683451652526855
1761132118507785000,6.433784912109375,0.02762889862060547,-0.005760854110121727,0.00016675889492034912
1761132118517785900,6.443785888671875,0.02762889862060547,-0.005824221298098564,-0.00228118896484375
1761132118527786000,6.453785888671875,0.025234222412109375,-0.005838774144649506,0.0001733154058456421
1761132118537785900,6.463785888671875,0.02523517608642578,-0.008315753191709518,0.00012123584747314453
1761132118547786000,6.473785888671875,0.025236129760742188,-0.005926273763179779,0.00006264448165893555
1761132118557785900,6.483785888671875,0.025236129760742188,-0.006005499511957169,0.0024438053369522095
1761132118567786000,6.493785888671875,0.027627944946289062,-0.003679100424051285,0.002567768096923828
1761132118577785900,6.503785888671875,0.030022621154785156,-0.0036207325756549835,0.0025628209114074707
1761132118587786000,6.513785888671875,0.032416343688964844,-0.0035802889615297318,0.0025790631771087646
1761132118597785900,6.523785888671875,0.032416343688964844,-0.008368825539946556,0.002579018473625183
1761132118607786000,6.533785888671875,0.030022621154785156,-0.003599429503083229,0.002580806612968445
1761132118617785000,6.54378515625,0.027629852294921875,-0.0012152083218097687,0.0024634450674057007
1761132118627785000,6.553784912109375,0.027629852294921875,-0.0036312490701675415,0.002445310354232788
1761132118637785000,6.56378515625,0.02523517608642578,-0.008414125069975853,0.0025041401386260986
1761132118647785000,6.573784912109375,0.027627944946289062,-0.008486920967698097,0.0001752227544784546
1761132118657785000,6.58378515625,0.03002166748046875,-0.006165461614727974,0.005028769373893738
1761132118667785000,6.593784912109375,0.027626991271972656,-0.0061269477009773254,0.0026313066482543945
1761132118677785000,6.60378515625,0.030022621154785156,-0.00613207183778286,0.0001783818006515503
1761132118687785000,6.613784912109375,0.03002166748046875,-0.00620526447892189,-0.0021506547927856445
1761132118697785000,6.62378515625,0.027625083923339844,-0.006219247356057167,0.0003038644790649414
1761132118707785000,6.633784912109375,0.025232315063476562,-0.0062239691615104675,0.002639472484588623
1761132118717785900,6.643785888671875,0.025232315063476562,-0.006361879408359528,0.0026314258575439453
1761132118727786000,6.653785888671875,0.027625083923339844,-0.004041140899062157,0.007484912872314453
1761132118737785900,6.663785888671875,0.02283477783203125,-0.004172969609498978,0.00994911789894104
1761132118747786000,6.673785888671875,0.020441055297851562,-0.009016633033752441,0.007598891854286194
1761132118757785900,6.683785888671875,0.022833824157714844,-0.004247071221470833,0.005206391215324402
1761132118767786000,6.693785888671875,0.022833824157714844,-0.004384161904454231,0.0004292428493499756
1761132118777785900,6.703785888671875,0.022833824157714844,-0.0020509175956249237,0.00041447579860687256
1761132118787786000,6.713785888671875,0.02043914794921875,-0.002188008278608322,0.0004257410764694214
1761132118797785900,6.723785888671875,0.020440101623535156,-0.004527324810624123,-0.002031773328781128
1761132118807786000,6.733785888671875,0.020441055297851562,-0.007123328745365143,-0.0020937323570251465
1761132118817785000,6.74378515625,0.030017852783203125,-0.00478709302842617,-0.004482880234718323
1761132118827785000,6.753784912109375,0.032410621643066406,-0.0024070478975772858,-0.0044224560260772705
1761132118837785000,6.76378515625,0.02762317657470703,0.000041505321860313416,-0.002091720700263977
1761132118847785000,6.773784912109375,0.025229454040527344,-0.0023723747581243515,-0.002090141177177429
1761132118857785000,6.78378515625,0.02283477783203125,0.00241086445748806,-0.002148732542991638
1761132118867785000,6.793784912109375,0.022835731506347656,0.002445671707391739,-0.0022105872631073
1761132118877785000,6.80378515625,0.02044391632080078,0.000041894614696502686,-0.00472201406955719
1761132118887785000,6.813784912109375,0.015656471252441406,0.0024897437542676926,-0.004785552620887756
1761132118897785000,6.82378515625,0.015656471252441406,0.0024703331291675568,-0.004783883690834045
1761132118907785000,6.833784912109375,0.027627944946289062,-0.002382274717092514,-0.004837736487388611
1761132118917785900,6.843785888671875,0.027627944946289062,-0.0023290272802114487,-0.00968979299068451
1761132118927786000,6.853785888671875,0.025236129760742188,-0.002339007332921028,-0.016989752650260925
1761132118937785900,6.863785888671875,0.022841453552246094,-0.002353968098759651,-0.014535382390022278
1761132118947786000,6.873785888671875,0.025236129760742188,-0.0023729782551527023,-0.016927793622016907
1761132118957785900,6.883785888671875,0.02283954620361328,-0.004776746034622192,-0.014414623379707336
1761132118967786000,6.893785888671875,0.02523326873779297,-0.007109334692358971,-0.009592071175575256
1761132118977785900,6.903785888671875,0.025234222412109375,-0.007117297500371933,-0.002507150173187256
1761132118997785900,6.923785888671875,0.025236129760742188,-0.009476862847805023,0.004613697528839111
1761132119007786000,6.933785888671875,0.025236129760742188,-0.004629688337445259,0.0046088844537734985
1761132119017785000,6.94378515625,0.020447731018066406,-0.007043259218335152,-0.00017799437046051025
1761132119027785200,6.95378515625,0.018053054809570312,-0.009338287636637688,-0.007349058985710144
1761132119037785000,6.96378515625,0.020447731018066406,-0.004732139408588409,-0.007412642240524292
1761132119047785200,6.97378515625,0.025237083435058594,-0.009583862498402596,-0.007466509938240051
1761132119057785000,6.98378515625,0.025237083435058594,-0.00972287729382515,-0.0050805360078811646
1761132119067785000,6.993784912109375,0.027629852294921875,-0.005012527108192444,-0.007468238472938538
1761132119077785000,7.00378515625,0.02763080596923828,-0.007411003112792969,-0.0027384310960769653
1761132119087785000,7.013784912109375,0.027631759643554688,-0.009809795767068863,-0.0027970075607299805
1761132119097785000,7.02378515625,0.027632713317871094,-0.009819775819778442,0.0018740445375442505
1761132119107785000,7.033784912109375,0.030027389526367188,-0.009840434417128563,0.0042696744203567505
1761132119117785900,7.043785888671875,0.030028343200683594,-0.00745382159948349,0.004191309213638306
1761132119127786000,7.053785888671875,0.0276336669921875,-0.007531294599175453,0.004197850823402405
1761132119137785900,7.063785888671875,0.030028343200683594,-0.007492469623684883,0.004194527864456177
1761132119147786000,7.073785888671875,0.027632713317871094,-0.00742766261100769,0.0018737167119979858
1761132119157785900,7.083785888671875,0.030029296875,-0.0025462545454502106,-0.0029813647270202637
1761132119167786000,7.093785888671875,0.027635574340820312,-0.002373715862631798,-0.005429267883300781
1761132119177785900,7.103785888671875,0.027637481689453125,-0.002266423776745796,-0.00555633008480072
1761132119187786000,7.113785888671875,0.03003215789794922,0.00011362507939338684,-0.005495935678482056
1761132119197785900,7.123785888671875,0.02524280548095703,-0.0046109724789857864,-0.0030480027198791504
1761132119207786000,7.133785888671875,0.02284717559814453,-0.004565272480249405,-0.0005788058042526245
1761132119217785000,7.14378515625,0.025241851806640625,-0.0069206878542900085,0.006600603461265564
1761132119227785000,7.153784912109375,0.022846221923828125,-0.004481963813304901,0.006656020879745483
1761132119237785000,7.16378515625,0.02284717559814453,-0.0021517928689718246,0.008996307849884033
1761132119247785000,7.173784912109375,0.022849082946777344,-0.0020404886454343796,0.0065335482358932495
1761132119257785000,7.18378515625,0.020455360412597656,-0.0020602997392416,0.004140883684158325
1761132119267785200,7.19378515625,0.025244712829589844,0.0003291778266429901,0.0016880929470062256
1761132119277785000,7.20378515625,0.02524280548095703,0.0002561211585998535,0.001753285527229309
1761132119287785200,7.21378515625,0.022848129272460938,0.00023755058646202087,0.001755043864250183
1761132119297785000,7.22378515625,0.022848129272460938,0.0026905257254838943,-0.0006439685821533203
1761132119307785200,7.23378515625,0.025241851806640625,0.00022366829216480255,-0.0005786418914794922
1761132119317785900,7.243785888671875,0.025239944458007812,-0.002243727445602417,0.004274904727935791
1761132119327786000,7.253785888671875,0.025239944458007812,-0.004713546484708786,0.006714463233947754
1761132119337785900,7.263785888671875,0.027632713317871094,-0.007181206718087196,0.0067795515060424805
1761132119347786000,7.273785888671875,0.025238990783691406,-0.007180672138929367,0.004385501146316528
1761132119357785900,7.283785888671875,0.022844314575195312,-0.004752906039357185,0.0019292235374450684
1761132119367786000,7.293785888671875,0.022844314575195312,-0.004752771928906441,0.001929253339767456
1761132119377785900,7.303785888671875,0.030027389526367188,-0.007224885746836662,-0.0028525888919830322
1761132119387786000,7.313785888671875,0.025238990783691406,-0.0048891883343458176,-0.005241885781288147
1761132119397785900,7.323785888671875,0.025239944458007812,-0.004854816943407059,-0.007697924971580505
1761132119407786000,7.333785888671875,0.025239944458007812,-0.007248746231198311,-0.012486249208450317
1761132119417785000,7.34378515625,0.0276336669921875,-0.009604133665561676,-0.010095357894897461
1761132119427785200,7.35378515625,0.025239944458007812,-0.009545763954520226,-0.010100305080413818
1761132119437785000,7.36378515625,0.02763652801513672,-0.007102904841303825,-0.005434095859527588
1761132119447785000,7.373784912109375,0.027637481689453125,-0.0046730246394872665,-0.005476340651512146
1761132119457785000,7.38378515625,0.027637481689453125,-0.004619065672159195,-0.0031457245349884033
1761132119467785000,7.393784912109375,0.03242683410644531,-0.002289842814207077,-0.0008248090744018555
1761132119477785000,7.40378515625,0.030033111572265625,-0.0023095235228538513,0.001570969820022583
1761132119487785000,7.413784912109375,0.027640342712402344,-0.004590000957250595,0.003916412591934204
1761132119497785000,7.42378515625,0.02763843536376953,-0.004599252715706825,0.004035338759422302
1761132119507785200,7.43378515625,0.025243759155273438,-0.002160433679819107,-0.0006974637508392334
1761132119517785900,7.443785888671875,0.025244712829589844,-0.0021651554852724075,-0.005544453859329224
1761132119527786000,7.453785888671875,0.025243759155273438,-0.002121470868587494,-0.005489140748977661
1761132119537785900,7.463785888671875,0.022849082946777344,0.00019467808306217194,-0.007876843214035034
1761132119547786000,7.473785888671875,0.022849082946777344,0.0002527814358472824,-0.007881850004196167
1761132119557785900,7.483785888671875,0.022848129272460938,0.0002382192760705948,0.001755252480506897
1761132119567786000,7.493785888671875,0.022849082946777344,0.00033686310052871704,0.0017666369676589966
1761132119577785900,7.503785888671875,0.025243759155273438,0.00044901296496391296,0.004092395305633545
1761132119587786000,7.513785888671875,0.025244712829589844,0.0005087666213512421,0.004087731242179871
1761132119597785900,7.523785888671875,0.027637481689453125,-0.001839740201830864,0.0017685145139694214
1761132119607786000,7.533785888671875,0.027637481689453125,-0.004252949729561806,-0.0006238967180252075
1761132119617785000,7.54378515625,0.022849082946777344,-0.004136348143219948,-0.0030280202627182007
1761132119627785200,7.55378515625,0.02285003662109375,-0.004160482436418533,-0.005479142069816589
1761132119637785000,7.56378515625,0.025244712829589844,-0.004219388589262962,-0.005474373698234558
1761132119647785200,7.57378515625,0.02763843536376953,-0.0019052531570196152,-0.003093317151069641
1761132119657785000,7.58378515625,0.025244712829589844,-0.0018451344221830368,-0.0030786842107772827
1761132119667785200,7.59378515625,0.02524566650390625,-0.0018738526850938797,-0.0007999688386917114
1761132119677785000,7.60378515625,0.025246620178222656,-0.0019396357238292694,0.001520693302154541
1761132119687785200,7.61378515625,0.022851943969726562,-0.0018813107162714005,0.006304293870925903
1761132119697785000,7.62378515625,0.020458221435546875,-0.004353383556008339,0.003916516900062561
1761132119707785200,7.63378515625,0.0156707763671875,-0.004358105361461639,0.003857925534248352
1761132119717785900,7.643785888671875,0.018064498901367188,-0.004381969571113586,0.0014068633317947388
1761132119727786000,7.653785888671875,0.02285289764404297,-0.004455028101801872,0.0014720559120178223
1761132119737785900,7.663785888671875,0.02285289764404297,-0.004520008340477943,-0.0009954273700714111
1761132119747786000,7.673785888671875,0.02524852752685547,-0.006977973505854607,-0.003443494439125061
1761132119757785900,7.683785888671875,0.03003692626953125,-0.004544004797935486,-0.005840733647346497
1761132119767786000,7.693785888671875,0.03243064880371094,-0.006996709853410721,-0.00344163179397583
1761132119777785900,7.703785888671875,0.03242969512939453,-0.007075164467096329,-0.0034352391958236694
1761132119787786000,7.713785888671875,0.03242969512939453,-0.00948864221572876,-0.0010393410921096802
1761132119797785900,7.723785888671875,0.027640342712402344,-0.009680286049842834,0.0038043558597564697
1761132119807786000,7.733785888671875,0.025246620178222656,-0.00488729402422905,0.003862917423248291
1761132119817785000,7.74378515625,0.030035018920898438,-0.004906972870230675,0.003864496946334839
1761132119827785000,7.753784912109375,0.027640342712402344,-0.004970775917172432,-0.0033718347549438477
1761132119837785000,7.76378515625,0.027640342712402344,-0.004995005205273628,-0.003428936004638672
1761132119847785000,7.773784912109375,0.027640342712402344,-0.002541894093155861,-0.005827918648719788
1761132119857785000,7.78378515625,0.025247573852539062,-0.00005027838051319122,-0.0058359503746032715
1761132119867785000,7.793784912109375,0.025249481201171875,0.000003680586814880371,-0.005899548530578613
1761132119877785000,7.80378515625,0.022853851318359375,-0.002468567341566086,-0.005893021821975708
1761132119887785000,7.813784912109375,0.02285289764404297,-0.0000900421291589737,-0.00583292543888092
1761132119897785000,7.82378515625,0.027640342712402344,-0.0025574304163455963,-0.005767762660980225
1761132119907785000,7.833784912109375,0.027640342712402344,-0.0025621503591537476,-0.008220583200454712
1761132119917785900,7.843785888671875,0.032428741455078125,-0.004969930276274681,-0.005765929818153381
1761132119927786000,7.853785888671875,0.037217140197753906,-0.009817643091082573,-0.0033670663833618164
1761132119937785900,7.863785888671875,0.034824371337890625,-0.007449768483638763,-0.0034435689449310303
1761132119947786000,7.873785888671875,0.03243064880371094,-0.007341260090470314,-0.0011570155620574951
1761132119957785900,7.883785888671875,0.027643203735351562,-0.004892608150839806,-0.0036145150661468506
1761132119967786000,7.893785888671875,0.02285480499267578,-0.007286228239536285,-0.003614485263824463
1761132119977785900,7.903785888671875,0.0204620361328125,-0.007369576022028923,-0.006060793995857239
1761132119987786000,7.913785888671875,0.020461082458496094,-0.002656254917383194,-0.00601525604724884
1761132119997785900,7.923785888671875,0.022855758666992188,-0.00745018757879734,-0.00846831500530243
1761132120007786000,7.933785888671875,0.025251388549804688,-0.004942219704389572,-0.01091139018535614
1761132120017785000,7.94378515625,0.02764606475830078,-0.004966083914041519,-0.010968267917633057
1761132120027785200,7.95378515625,0.022858619689941406,-0.007305828854441643,-0.008637353777885437
1761132120037785000,7.96378515625,0.025254249572753906,-0.009646521881222725,-0.006306707859039307
1761132120047785200,7.97378515625,0.025255203247070312,-0.009612960740923882,-0.0015803873538970947
1761132120057785000,7.98378515625,0.025255203247070312,-0.00961322896182537,0.0008137375116348267
1761132120067785000,7.993784912109375,0.025254249572753906,-0.014357009902596474,0.0008693337440490723
1761132120077785000,8.00378515625,0.02764892578125,-0.011967936530709267,0.0008106231689453125
1761132120087785000,8.013784912109376,0.025254249572753906,-0.014371834695339203,-0.0038588494062423706
1761132120097785000,8.02378515625,0.022859573364257812,-0.014370352029800415,-0.008627757430076599
1761132120107785000,8.033784912109375,0.022859573364257812,-0.016748923808336258,-0.011062860488891602
1761132120117785900,8.043785888671875,0.01807117462158203,-0.01427396945655346,-0.013443708419799805
1761132120127786000,8.053785888671875,0.018070220947265625,-0.014189040288329124,-0.01337192952632904
1761132120137785900,8.063785888671875,0.020465850830078125,-0.011758444830775261,-0.008606627583503723
1761132120147786000,8.073785888671875,0.022858619689941406,-0.009322183206677437,-0.006176650524139404
1761132120157785900,8.083785888671875,0.02046680450439453,-0.006837444379925728,-0.0014745891094207764
1761132120167786000,8.093785888671874,0.025254249572753906,-0.004475181922316551,-0.0013929754495620728
1761132120177785900,8.103785888671876,0.0252532958984375,-0.006906278431415558,-0.001370161771774292
1761132120187786000,8.113785888671876,0.025254249572753906,-0.0068898312747478485,-0.0014108270406723022
1761132120197785900,8.123785888671875,0.022859573364257812,-0.006751123815774918,-0.001402541995048523
1761132120207786000,8.133785888671875,0.0037069320678710938,-0.011427382007241249,-0.011047765612602234
1761132120217785000,8.14378515625,0.01807117462158203,0.0005506426095962524,-0.0013926178216934204
1761132120227785200,8.15378515625,0.018072128295898438,0.0005846060812473297,-0.001454576849937439
1761132120237785000,8.16378515625,0.015679359436035156,0.0006386600434780121,0.000876203179359436
1761132120247785200,8.17378515625,0.01567840576171875,0.0006847642362117767,0.0009513199329376221
1761132120257785000,8.18378515625,0.02286052703857422,-0.004103057086467743,0.0009513497352600098
1761132120267785200,8.19378515625,0.05398750305175781,-0.0065091680735349655,-0.008762314915657043
1761132120277785000,8.20378515625,0.039623260498046875,-0.0065338388085365295,-0.006425201892852783
1761132120287785200,8.21378515625,0.04201698303222656,-0.004139909520745277,0.005545720458030701
1761132120297785000,8.22378515625,0.0348358154296875,-0.008893579244613647,-0.011256217956542969
1761132120307785200,8.23378515625,0.015682220458984375,-0.0015933886170387268,-0.01366017758846283
1761132120317785900,8.243785888671875,0.02525806427001953,-0.008731912821531296,-0.011210545897483826
1761132120327786000,8.253785888671874,0.03962230682373047,-0.011194851249456406,-0.0015100538730621338
1761132120337785900,8.263785888671874,0.032439231872558594,-0.008884001523256302,-0.013533174991607666
1761132120347786000,8.273785888671876,0.010892868041992188,0.010344423353672028,-0.015972986817359924
1761132120357785900,8.283785888671876,0.02765178680419922,-0.006375761702656746,-0.013581976294517517
1761132120367786000,8.293785888671875,0.03722858428955078,-0.013540711253881454,-0.01839163899421692
1761132120377785900,8.303785888671875,0.037227630615234375,-0.013595839962363243,-0.018347591161727905
1761132120387786000,8.313785888671875,0.032439231872558594,-0.01361439935863018,0.015172988176345825
1761132120397785900,8.323785888671875,0.03483390808105469,-0.015945378690958023,-0.003926917910575867
1761132120407786000,8.333785888671875,0.04441070556640625,-0.02547837235033512,-0.006265759468078613
1761132120417785000,8.34378515625,0.02525615692138672,-0.015879858285188675,-0.01582448184490204
1761132120427785200,8.35378515625,0.025255203247070312,0.020114319398999214,-0.0014267414808273315
1761132120447785000,8.373784912109375,0.030045509338378906,-0.003856958821415901,0.010428622364997864
1761132120457785000,8.38378515625,0.025257110595703125,-0.023030389100313187,0.0032475441694259644
1761132120467785000,8.393784912109375,0.032439231872558594,-0.013331715017557144,-0.015857234597206116
1761132120477785000,8.40378515625,0.04201698303222656,-0.01086370088160038,-0.0015377700328826904
1761132120487785000,8.413784912109374,0.013286590576171875,0.003576725721359253,0.0008109360933303833
1761132120497785000,8.42378515625,0.018074989318847656,-0.017907453700900078,-0.003923624753952026
1761132120507785200,8.43378515625,0.020468711853027344,-0.003595896065235138,-0.006254300475120544
1761132120517785900,8.443785888671876,0.030043601989746094,0.008243873715400696,-0.025337867438793182
1761132120527786000,8.453785888671876,0.020468711853027344,0.0011542700231075287,-0.018221959471702576
1761132120537785900,8.463785888671875,0.020468711853027344,0.003570985049009323,-0.013396158814430237
1761132120547786000,8.473785888671875,0.042014122009277344,-0.025173218920826912,-0.00852803885936737
1761132120557785900,8.483785888671875,0.025254249572753906,0.005959361791610718,-0.0012477487325668335
1761132120567786000,8.493785888671875,0.013283729553222656,-0.015535345301032066,-0.0013114511966705322
1761132120577785900,8.503785888671874,0.010890007019042969,-0.005919313058257103,0.00826217234134674
1761132120587786000,8.513785888671874,0.03243732452392578,0.0035938601940870285,-0.006156861782073975
1761132120597785900,8.523785888671876,0.034832000732421875,0.0011220145970582962,-0.018121227622032166
1761132120607786000,8.533785888671876,0.034832000732421875,0.003521207720041275,-0.015668362379074097
1761132120617785000,8.54378515625,0.020468711853027344,-0.0012762341648340225,-0.01578541100025177
1761132120627785000,8.553784912109375,0.03722858428955078,0.0012277327477931976,-0.01828703284263611
1761132120637785000,8.56378515625,0.013287544250488281,-0.01320330798625946,-0.006389409303665161
1761132120647785000,8.573784912109375,0.02286529541015625,-0.01075357012450695,-0.008827537298202515
1761132120657785000,8.58378515625,0.042018890380859375,-0.010636432096362114,0.0007395148277282715
1761132120667785000,8.593784912109374,0.022863388061523438,-0.029837574809789658,-0.008714884519577026
1761132120677785000,8.60378515625,0.02525806427001953,-0.012996606528759003,-0.003893807530403137
1761132120687785000,8.613784912109375,0.03962421417236328,0.00623384490609169,-0.02067916840314865
1761132120697785000,8.62378515625,0.03722953796386719,-0.0008085276931524277,-0.0038920938968658447
1761132120707785000,8.633784912109375,0.013286590576171875,-0.02223084308207035,-0.015775039792060852
1761132120717785900,8.643785888671875,0.02525806427001953,-0.012576974928379059,-0.00859910249710083
1761132120727786000,8.653785888671875,0.02765178680419922,-0.014770183712244034,-0.02531585842370987
1761132120737785900,8.663785888671875,0.02525806427001953,-0.019416775554418564,-0.003720700740814209
1761132120747786000,8.673785888671874,0.006104469299316406,-0.0072848182171583176,-0.0036750882863998413
1761132120757785900,8.683785888671874,0.027650833129882812,0.016803599894046783,-0.005963385105133057
1761132120767786000,8.693785888671876,0.030045509338378906,-0.016772110015153885,0.013214677572250366
1761132120777785900,8.703785888671876,0.053986549377441406,0.016685381531715393,-0.015530779957771301
1761132120787786000,8.713785888671875,0.04440879821777344,-0.01451202668249607,-0.01785968244075775
1761132120797785900,8.723785888671875,0.04201507568359375,0.002244016155600548,-0.015504628419876099
1761132120807786000,8.733785888671875,0.022861480712890625,-0.026429660618305206,0.0012302994728088379
1761132120817785000,8.74378515625,0.0061016082763671875,-0.004736792296171188,0.022864550352096558
1761132120827785000,8.753784912109374,0.030043601989746094,-0.011997316032648087,0.008505910634994507
1761132120837785000,8.76378515625,0.03483295440673828,-0.016850294545292854,0.013221144676208496
1761132120847785000,8.773784912109376,0.03243732452392578,-0.004833579063415527,-0.010645881295204163
1761132120857785000,8.78378515625,0.030043601989746094,0.004723411053419113,-0.015432745218276978
1761132120867785000,8.793784912109375,0.020465850830078125,-0.007322676479816437,-0.003416210412979126
1761132120877785000,8.80378515625,0.013284683227539062,-0.009727263823151588,-0.013110518455505371
1761132120887785000,8.813784912109375,0.03243732452392578,-0.00010515935719013214,-0.01303565502166748
1761132120897785000,8.82378515625,0.03483295440673828,-0.014477962628006935,-0.022690854966640472
1761132120907785000,8.833784912109374,0.013284683227539062,-0.012123800814151764,-0.022706933319568634
1761132120917785900,8.843785888671874,0.027650833129882812,-0.009717203676700592,-0.006027534604072571
1761132120927786000,8.853785888671876,0.03962135314941406,-0.0073583126068115234,0.020351171493530273
1761132120937785900,8.863785888671876,0.010890960693359375,-0.02651004120707512,-0.008359625935554504
1761132120947786000,8.873785888671875,0.034832000732421875,-0.0169648639857769,0.013269782066345215
1761132120957785900,8.883785888671875,0.04440879821777344,-0.014594795182347298,-0.015517562627792358
1761132120967786000,8.893785888671875,0.01807403564453125,0.002333780750632286,0.015514209866523743
1761132120977785900,8.903785888671875,0.030046463012695312,-0.007286841049790382,0.001093640923500061
1761132120987786000,8.913785888671875,0.04920196533203125,-0.01928737200796604,-0.003810495138168335
1761132120997785900,8.923785888671874,0.03004932403564453,0.004629252478480339,-0.032598093152046204
1761132121007786000,8.933785888671874,0.02765369415283203,0.0022364016622304916,-0.01342502236366272
1761132121017785000,8.94378515625,0.02765369415283203,0.01177101582288742,-0.020643450319767
1761132121027785200,8.95378515625,0.020471572875976562,-0.019371259957551956,-0.01822797954082489
1761132121037785000,8.96378515625,0.01807689666748047,-0.012229233980178833,0.0033035576343536377
1761132121047785200,8.97378515625,0.032441139221191406,0.009325999766588211,-0.006175726652145386
1761132121057785000,8.98378515625,0.08990097045898438,-0.06249384209513664,0.13755448162555695
1761132121067785000,8.993784912109374,-0.0441741943359375,-0.00018816068768501282,-0.07076551765203476
1761132121077785000,9.00378515625,0.058628082275390625,0.010076070204377174,-0.015136249363422394
1761132121087785000,9.013784912109376,-0.03244590759277344,-0.01221458800137043,-0.04186180979013443
1761132121097785000,9.02378515625,0.036940574645996094,-0.006437508389353752,-0.012063607573509216
1761132121107785000,9.033784912109375,0.0034341812133789062,-0.006001949310302734,-0.008196815848350525
1761132121117785900,9.043785888671875,-0.0013427734375,-0.0007357653230428696,0.0052826181054115295
1761132121127786000,9.053785888671875,0.005854606628417969,-0.007318900898098946,-0.03172266483306885
1761132121137785900,9.063785888671875,0.005890846252441406,-0.00594085268676281,-0.034335896372795105
1761132121147786000,9.073785888671875,0.04905891418457031,-0.020429596304893494,0.029948964715003967
1761132121157785900,9.083785888671875,0.0682840347290039,-0.006553024053573608,0.015334099531173706
