time,seconds_elapsed,z,y,x
1761132112194776000,0.120776123046875,-0.00045814894838258624,-0.0005345070967450738,0.00015271631127689034
1761132112204776000,0.13077587890625,-0.00045814894838258624,-0.0005345070967450738,0.00015271631127689034
1761132112214751000,0.1407509765625,-0.00045814894838258624,-0.0005345070967450738,0.00015271631127689034
1761132112224751000,0.150751220703125,-0.00045814894838258624,-0.0005345070967450738,0.00015271631127689034
1761132112234751000,0.1607509765625,0.0007635815418325365,0.0006872233934700489,0.0007635815418325365
1761132112244751000,0.170751220703125,0.00015271631127689034,0.00007635815563844517,0.0013744467869400978
1761132112254751200,0.180751220703125,-0.0010690141934901476,-0.0005345070967450738,0.00015271631127689034
1761132112264751000,0.190751220703125,-0.0010690141934901476,0.0012980886967852712,0.0007635815418325365
1761132112274751200,0.200751220703125,0.00015271631127689034,0.00007635815563844517,0.0013744467869400978
1761132112284751000,0.210751220703125,0.0007635815418325365,0.0006872233934700489,0.0013744467869400978
1761132112294751200,0.220751220703125,-0.00045814894838258624,-0.0011453722836449742,0.0007635815418325365
1761132112304751000,0.230751220703125,-0.00045814894838258624,0.00007635815563844517,0.0013744467869400978
1761132112314751200,0.240751220703125,0.0007635815418325365,0.00007635815563844517,-0.0010690141934901476
1761132112324751000,0.250751220703125,0.0007635815418325365,-0.0017562375869601965,0.00015271631127689034
1761132112334751200,0.260751220703125,0.0007635815418325365,0.00007635815563844517,0.00015271631127689034
1761132112344751000,0.270751220703125,0.00015271631127689034,0.00007635815563844517,0.00015271631127689034
1761132112354751200,0.280751220703125,0.0007635815418325365,0.0019089538836851716,-0.00045814894838258624
1761132112364751000,0.290751220703125,0.0007635815418325365,0.00007635815563844517,0.00015271631127689034
1761132112374751200,0.300751220703125,-0.00045814894838258624,-0.0005345070967450738,-0.0010690141934901476
1761132112384751000,0.310751220703125,0.0007635815418325365,-0.0005345070967450738,-0.001679879380390048
1761132112394751200,0.320751220703125,0.00015271631127689034,0.0006872233934700489,0.0007635815418325365
1761132112404751000,0.330751220703125,-0.0010690141934901476,-0.0005345070967450738,-0.00045814894838258624
1761132112414750000,0.34075,-0.00045814894838258624,0.00007635815563844517,0.0013744467869400978
1761132112424750000,0.35075,0.0007635815418325365,0.0006872233934700489,0.0007635815418325365
1761132112434750000,0.36075,0.00015271631127689034,0.0012980886967852712,0.0007635815418325365
1761132112444750000,0.37075,-0.00045814894838258624,-0.0011453722836449742,-0.0010690141934901476
1761132112454750000,0.38075,0.00015271631127689034,0.0006872233934700489,0.00015271631127689034
1761132112464750000,0.39075,-0.00045814894838258624,0.00007635815563844517,0.00015271631127689034
1761132112474750000,0.40075,0.00015271631127689034,0.00007635815563844517,-0.00045814894838258624
1761132112484750000,0.41075,0.00015271631127689034,-0.0005345070967450738,0.0007635815418325365
1761132112494750000,0.42075,0.0013744467869400978,0.0006872233934700489,0.0007635815418325365
1761132112504750000,0.43075,0.0007635815418325365,0.0006872233934700489,0.00015271631127689034
1761132112514751000,0.4407509765625,0.00015271631127689034,-0.0017562375869601965,-0.0010690141934901476
1761132112524750800,0.450750732421875,0.00015271631127689034,0.0006872233934700489,0.00015271631127689034
1761132112534751000,0.4607509765625,0.00015271631127689034,-0.0005345070967450738,-0.00045814894838258624
1761132112544750800,0.470750732421875,0.00015271631127689034,0.0006872233934700489,-0.00045814894838258624
1761132112554751000,0.4807509765625,0.0007635815418325365,-0.0011453722836449742,0.0007635815418325365
1761132112564750800,0.490750732421875,-0.00045814894838258624,-0.0005345070967450738,-0.0010690141934901476
1761132112574751000,0.5007509765625,0.00015271631127689034,0.00007635815563844517,0.00015271631127689034
1761132112584750800,0.510750732421875,-0.00045814894838258624,-0.0017562375869601965,-0.0010690141934901476
1761132112594751000,0.5207509765625,0.0007635815418325365,-0.0011453722836449742,-0.00045814894838258624
1761132112604750800,0.530750732421875,-0.0010690141934901476,-0.0005345070967450738,-0.0010690141934901476
1761132112614750000,0.54075,-0.0010690141934901476,-0.0005345070967450738,-0.0010690141934901476
1761132112624750000,0.55075,-0.0010690141934901476,-0.0017562375869601965,-0.001679879380390048
1761132112634750000,0.56075,-0.00045814894838258624,0.0006872233934700489,0.00015271631127689034
1761132112644750000,0.57075,0.00015271631127689034,0.0012980886967852712,0.0007635815418325365
1761132112654750000,0.58075,0.00015271631127689034,-0.0005345070967450738,-0.0010690141934901476
1761132112664750000,0.59075,-0.0010690141934901476,-0.0005345070967450738,-0.0010690141934901476
1761132112674750000,0.60075,-0.00045814894838258624,-0.0005345070967450738,-0.00045814894838258624
1761132112684750000,0.61075,-0.00045814894838258624,-0.0005345070967450738,-0.00045814894838258624
1761132112694750000,0.62075,0.0013744467869400978,0.00007635815563844517,-0.0010690141934901476
1761132112704750000,0.63075,0.00015271631127689034,-0.0005345070967450738,0.00015271631127689034
1761132112714751000,0.6407509765625,-0.00045814894838258624,-0.0005345070967450738,0.00015271631127689034
1761132112724750800,0.650750732421875,-0.001679879380390048,-0.0005345070967450738,-0.00045814894838258624
1761132112734751000,0.6607509765625,0.00015271631127689034,-0.0011453722836449742,-0.001679879380390048
1761132112744750800,0.670750732421875,0.00015271631127689034,-0.0005345070967450738,0.00015271631127689034
1761132112754751000,0.6807509765625,-0.0010690141934901476,-0.0005345070967450738,-0.0010690141934901476
1761132112764750800,0.690750732421875,-0.001679879380390048,0.00007635815563844517,-0.00045814894838258624
1761132112774751000,0.7007509765625,-0.00045814894838258624,0.0006872233934700489,-0.00045814894838258624
1761132112784750800,0.710750732421875,-0.00045814894838258624,0.00007635815563844517,-0.00045814894838258624
1761132112794751000,0.7207509765625,0.0007635815418325365,0.00007635815563844517,-0.0010690141934901476
1761132112804750800,0.730750732421875,-0.00045814894838258624,0.00007635815563844517,-0.0010690141934901476
1761132112814750000,0.74075,0.0013744467869400978,0.00007635815563844517,-0.0010690141934901476
1761132112824750000,0.75075,-0.00045814894838258624,0.00007635815563844517,-0.0010690141934901476
1761132112834750000,0.76075,0.00015271631127689034,0.0006872233934700489,0.00015271631127689034
1761132112844750000,0.77075,-0.00045814894838258624,0.0006872233934700489,0.00015271631127689034
1761132112854750000,0.78075,0.0007635815418325365,0.00007635815563844517,0.00015271631127689034
1761132112864750000,0.79075,-0.00045814894838258624,0.00007635815563844517,0.0013744467869400978
1761132112874750000,0.80075,-0.00045814894838258624,0.0012980886967852712,0.0007635815418325365
1761132112884750000,0.81075,0.00015271631127689034,0.0006872233934700489,0.0007635815418325365
1761132112894750000,0.82075,-0.0010690141934901476,0.0006872233934700489,0.0019853119738399982
1761132112904750000,0.83075,0.00015271631127689034,0.0012980886967852712,0.003817907767370343
1761132112914751000,0.8407509765625,0.00015271631127689034,0.0037415495608001947,0.006872233934700489
1761132112924750800,0.850750732421875,-0.00045814894838258624,0.017180584371089935,0.016035212203860283
1761132112934751000,0.8607509765625,-0.0010690141934901476,-0.02252565510571003,0.027030786499381065
1761132112944750800,0.870750732421875,-0.0010690141934901476,-0.01702786795794964,-0.06154467165470123
1761132112954751000,0.8807509765625,0.0025961773935705423,0.00007635815563844517,-0.004734205547720194
1761132112964750800,0.890750732421875,0.0007635815418325365,0.008017606101930141,0.008704829961061478
1761132112974751000,0.9007509765625,-0.001679879380390048,0.0019089538836851716,-0.0010690141934901476
1761132112984750800,0.910750732421875,-0.00045814894838258624,0.0006872233934700489,-0.00045814894838258624
1761132112994751000,0.9207509765625,0.0007635815418325365,-0.004199698567390442,0.0074830991216003895
1761132113004750800,0.930750732421875,0.0007635815418325365,-0.006643159314990044,-0.0029016099870204926
1761132113014750200,0.940750244140625,0.00015271631127689034,0.006795875728130341,-0.00045814894838258624
1761132113024750000,0.95075,-0.0010690141934901476,-0.0029779679607599974,-0.004123340360820293
1761132113034750200,0.960750244140625,-0.00045814894838258624,-0.0035888333804905415,0.0025961773935705423
1761132113044750000,0.97075,0.00015271631127689034,-0.0017562375869601965,0.0019853119738399982
1761132113054750200,0.980750244140625,0.00015271631127689034,0.0031306843739002943,-0.0010690141934901476
1761132113064750000,0.99075,-0.00045814894838258624,-0.0017562375869601965,0.00015271631127689034
1761132113084750000,1.01075,-0.0010690141934901476,-0.0029779679607599974,0.0013744467869400978
1761132113094750200,1.020750244140625,0.00015271631127689034,0.004352414980530739,0.0007635815418325365
1761132113104750000,1.03075,0.0007635815418325365,0.0006872233934700489,-0.0010690141934901476
1761132113114751000,1.0407509765625,-0.00045814894838258624,-0.002367102773860097,-0.00045814894838258624
1761132113124750800,1.050750732421875,-0.00045814894838258624,0.00007635815563844517,0.0019853119738399982
1761132113134751000,1.0607509765625,0.00015271631127689034,0.0031306843739002943,0.003817907767370343
1761132113144750600,1.07075048828125,0.0007635815418325365,0.0012980886967852712,0.0013744467869400978
1761132113154750500,1.08075048828125,0.00015271631127689034,0.0019089538836851716,0.005650503560900688
1761132113164750600,1.09075048828125,0.0007635815418325365,0.004352414980530739,0.010537425056099892
1761132113174750500,1.10075048828125,-0.00045814894838258624,-0.002367102773860097,-0.004734205547720194
1761132113194750500,1.12075048828125,0.0019853119738399982,-0.0029779679607599974,-0.00045814894838258624
1761132113204750600,1.13075048828125,0.00015271631127689034,0.002519819187000394,0.0032070425804704428
1761132113214749700,1.140749755859375,-0.00045814894838258624,0.002519819187000394,-0.00045814894838258624
1761132113224749800,1.150749755859375,0.0007635815418325365,0.00007635815563844517,0.0025961773935705423
1761132113234749700,1.160749755859375,0.0013744467869400978,-0.0035888333804905415,0.0007635815418325365
1761132113244749800,1.170749755859375,-0.00045814894838258624,0.0012980886967852712,-0.0010690141934901476
1761132113254749700,1.180749755859375,-0.00045814894838258624,0.0019089538836851716,-0.00045814894838258624
1761132113264749800,1.190749755859375,0.00015271631127689034,-0.0011453722836449742,0.0007635815418325365
1761132113274749700,1.200749755859375,-0.0010690141934901476,-0.002367102773860097,0.0013744467869400978
1761132113284749800,1.210749755859375,0.00015271631127689034,-0.0005345070967450738,0.0013744467869400978
1761132113294749700,1.220749755859375,0.00015271631127689034,0.0012980886967852712,0.00015271631127689034
1761132113304749600,1.23074951171875,0.0007635815418325365,0.00007635815563844517,0.0013744467869400978
1761132113314750500,1.24075048828125,0.00015271631127689034,-0.0011453722836449742,0.0007635815418325365
1761132113324750300,1.250750244140625,-0.00045814894838258624,0.00007635815563844517,0.00015271631127689034
1761132113334750500,1.26075048828125,-0.0022907445672899485,0.0012980886967852712,-0.00045814894838258624
1761132113344750300,1.270750244140625,-0.0010690141934901476,0.0006872233934700489,0.00015271631127689034
1761132113354750500,1.28075048828125,-0.00045814894838258624,0.00007635815563844517,-0.0010690141934901476
1761132113364750300,1.290750244140625,-0.00045814894838258624,0.0006872233934700489,0.00015271631127689034
1761132113374750500,1.30075048828125,-0.00045814894838258624,0.0006872233934700489,0.0007635815418325365
1761132113384750300,1.310750244140625,0.00015271631127689034,0.00007635815563844517,0.00015271631127689034
1761132113394750500,1.32075048828125,0.00015271631127689034,0.0006872233934700489,0.0025961773935705423
1761132113404750300,1.330750244140625,-0.00045814894838258624,0.004963280167430639,0.005650503560900688
1761132113414749700,1.340749755859375,-0.00045814894838258624,0.0037415495608001947,0.008704829961061478
1761132113424749600,1.35074951171875,0.0007635815418325365,-0.004810563754290342,-0.010842857882380486
1761132113434749400,1.36074951171875,-0.001679879380390048,-0.005421428941190243,-0.0065668015740811825
1761132113444749800,1.370749755859375,-0.00045814894838258624,0.0006872233934700489,-0.00045814894838258624
1761132113454750000,1.38075,-0.00045814894838258624,0.002519819187000394,-0.0010690141934901476
1761132113464749800,1.390749755859375,-0.00045814894838258624,-0.0005345070967450738,0.00015271631127689034
1761132113474749700,1.400749755859375,0.00015271631127689034,-0.002367102773860097,0.0007635815418325365
1761132113484749600,1.41074951171875,0.00015271631127689034,0.0006872233934700489,0.0007635815418325365
1761132113494749700,1.420749755859375,-0.00045814894838258624,0.002519819187000394,0.00015271631127689034
1761132113504749600,1.43074951171875,0.00015271631127689034,-0.0011453722836449742,-0.00045814894838258624
1761132113514750500,1.44075048828125,0.00015271631127689034,-0.002367102773860097,-0.00045814894838258624
1761132113524750600,1.45075048828125,0.00015271631127689034,0.00007635815563844517,-0.00045814894838258624
1761132113534750500,1.46075048828125,0.00015271631127689034,0.00007635815563844517,0.0007635815418325365
1761132113544750600,1.47075048828125,0.00015271631127689034,-0.0011453722836449742,-0.0022907445672899485
1761132113554750500,1.48075048828125,0.00015271631127689034,-0.0011453722836449742,-0.0010690141934901476
1761132113564750600,1.49075048828125,-0.0010690141934901476,-0.0011453722836449742,0.00015271631127689034
1761132113574750500,1.50075048828125,-0.00045814894838258624,0.0006872233934700489,0.0007635815418325365
1761132113584750600,1.51075048828125,0.0007635815418325365,0.00007635815563844517,0.00015271631127689034
1761132113594750500,1.52075048828125,-0.0010690141934901476,-0.0005345070967450738,0.0007635815418325365
1761132113604750600,1.53075048828125,0.0007635815418325365,0.0006872233934700489,0.0013744467869400978
1761132113614749700,1.540749755859375,-0.00045814894838258624,0.0019089538836851716,0.00015271631127689034
1761132113624749600,1.55074951171875,0.0007635815418325365,0.0006872233934700489,-0.0010690141934901476
1761132113634749700,1.560749755859375,0.00015271631127689034,0.0006872233934700489,-0.00045814894838258624
1761132113644749600,1.57074951171875,0.00015271631127689034,0.0012980886967852712,0.0019853119738399982
1761132113654749700,1.580749755859375,-0.0010690141934901476,0.009239336475729942,0.00809396430850029
1761132113664749600,1.59074951171875,-0.001679879380390048,0.0012980886967852712,0.014813481830060482
1761132113674749700,1.600749755859375,-0.0010690141934901476,-0.011530081741511822,-0.026114489883184433
1761132113684749600,1.61074951171875,0.0013744467869400978,-0.0029779679607599974,-0.003512475173920393
1761132113697784800,1.623784912109375,-0.00045814894838258624,0.0031306843739002943,-0.00045814894838258624
1761132113707785000,1.633784912109375,0.00015271631127689034,0.0019089538836851716,-0.0029016099870204926
1761132113717785600,1.64378564453125,0.0007635815418325365,-0.0005345070967450738,0.004428773187100887
1761132113727785700,1.65378564453125,-0.00045814894838258624,-0.0029779679607599974,0.00015271631127689034
1761132113737785600,1.66378564453125,0.0007635815418325365,0.002519819187000394,0.0025961773935705423
1761132113747785700,1.67378564453125,0.0007635815418325365,0.0037415495608001947,0.0007635815418325365
1761132113757785600,1.68378564453125,0.00015271631127689034,0.0006872233934700489,0.00015271631127689034
1761132113767785700,1.69378564453125,-0.00045814894838258624,-0.0017562375869601965,0.0019853119738399982
1761132113777786000,1.7037861328125,-0.0010690141934901476,-0.0005345070967450738,-0.001679879380390048
1761132113787786000,1.713785888671875,0.00015271631127689034,0.0012980886967852712,-0.0029016099870204926
1761132113797786000,1.7237861328125,-0.00045814894838258624,-0.0005345070967450738,-0.0022907445672899485
1761132113807786000,1.733785888671875,0.0007635815418325365,-0.0011453722836449742,-0.00045814894838258624
1761132113817785000,1.74378515625,0.00015271631127689034,-0.0011453722836449742,0.0007635815418325365
1761132113827785200,1.75378515625,-0.00045814894838258624,0.0006872233934700489,0.0007635815418325365
1761132113837785000,1.76378515625,0.0013744467869400978,0.0006872233934700489,0.00015271631127689034
1761132113847785200,1.77378515625,-0.0010690141934901476,-0.0011453722836449742,-0.00045814894838258624
1761132113857785000,1.78378515625,0.0007635815418325365,0.0019089538836851716,0.0007635815418325365
1761132113867785200,1.79378515625,-0.00045814894838258624,0.00007635815563844517,0.00015271631127689034
1761132113877785000,1.80378515625,0.00015271631127689034,-0.0005345070967450738,-0.00045814894838258624
1761132113887785200,1.81378515625,-0.00045814894838258624,-0.0011453722836449742,0.00015271631127689034
1761132113897785000,1.82378515625,-0.0010690141934901476,0.0006872233934700489,0.0013744467869400978
1761132113907785200,1.83378515625,-0.00045814894838258624,0.0006872233934700489,-0.0010690141934901476
1761132113917786000,1.8437861328125,-0.00045814894838258624,0.00007635815563844517,-0.00045814894838258624
1761132113927786000,1.853785888671875,0.00015271631127689034,-0.0005345070967450738,0.0019853119738399982
1761132113937786000,1.8637861328125,-0.00045814894838258624,-0.0005345070967450738,0.0007635815418325365
1761132113947786000,1.873785888671875,0.00015271631127689034,0.00007635815563844517,-0.00045814894838258624
1761132113957786000,1.8837861328125,-0.0010690141934901476,-0.0005345070967450738,0.0013744467869400978
1761132113967786000,1.893785888671875,0.00015271631127689034,-0.0011453722836449742,0.0013744467869400978
1761132113977786000,1.9037861328125,-0.0010690141934901476,-0.0005345070967450738,-0.00045814894838258624
1761132113987786000,1.913785888671875,0.0007635815418325365,0.00007635815563844517,0.00015271631127689034
1761132113997786000,1.9237861328125,0.00015271631127689034,-0.0005345070967450738,0.0007635815418325365
1761132114007786000,1.933785888671875,-0.001679879380390048,-0.0005345070967450738,0.0007635815418325365
1761132114017785000,1.94378515625,-0.00045814894838258624,-0.0005345070967450738,0.0007635815418325365
1761132114027785200,1.95378515625,-0.00045814894838258624,-0.0011453722836449742,-0.00045814894838258624
1761132114037785000,1.96378515625,-0.001679879380390048,-0.0017562375869601965,-0.0010690141934901476
1761132114047785200,1.97378515625,-0.00045814894838258624,-0.0011453722836449742,-0.0010690141934901476
1761132114057785000,1.98378515625,0.00015271631127689034,0.00007635815563844517,-0.001679879380390048
1761132114067785200,1.99378515625,0.00015271631127689034,0.0006872233934700489,-0.00045814894838258624
1761132114077785000,2.00378515625,-0.00045814894838258624,-0.0011453722836449742,-0.00045814894838258624
1761132114087785200,2.01378515625,0.00015271631127689034,-0.0011453722836449742,-0.001679879380390048
1761132114097785000,2.02378515625,-0.00045814894838258624,0.00007635815563844517,-0.0010690141934901476
1761132114107785200,2.03378515625,0.00015271631127689034,0.0006872233934700489,0.00015271631127689034
1761132114117785900,2.043785888671875,0.0007635815418325365,0.0012980886967852712,0.00015271631127689034
1761132114127786000,2.053785888671875,-0.0010690141934901476,-0.0005345070967450738,-0.00045814894838258624
1761132114137786000,2.0637861328125,0.00015271631127689034,0.0006872233934700489,0.00015271631127689034
1761132114147786000,2.073785888671875,-0.00045814894838258624,0.0006872233934700489,0.00015271631127689034
1761132114157786000,2.0837861328125,0.0013744467869400978,0.0012980886967852712,0.00015271631127689034
1761132114167786000,2.093785888671875,0.0007635815418325365,0.0019089538836851716,0.00015271631127689034
1761132114177785900,2.103785888671875,0.00015271631127689034,0.0012980886967852712,0.0019853119738399982
1761132114187786000,2.113785888671875,-0.00045814894838258624,0.004352414980530739,0.004428773187100887
1761132114197785900,2.123785888671875,-0.0010690141934901476,0.0037415495608001947,0.004428773187100887
1761132114207786000,2.133785888671875,0.0007635815418325365,-0.0035888333804905415,-0.005955935921519995
1761132114217785000,2.14378515625,-0.0010690141934901476,-0.006032294128090143,-0.009010262787342072
1761132114227785000,2.153784912109375,0.0007635815418325365,0.00007635815563844517,-0.001679879380390048
1761132114237785000,2.16378515625,0.00015271631127689034,0.0012980886967852712,-0.0010690141934901476
1761132114247785000,2.173784912109375,0.00015271631127689034,-0.0011453722836449742,-0.0010690141934901476
1761132114257785000,2.18378515625,0.0007635815418325365,-0.0005345070967450738,0.0025961773935705423
1761132114267785200,2.19378515625,0.00015271631127689034,0.00007635815563844517,0.0025961773935705423
1761132114277785000,2.20378515625,-0.00045814894838258624,0.002519819187000394,0.0019853119738399982
1761132114287785200,2.21378515625,-0.00045814894838258624,0.0019089538836851716,0.00015271631127689034
1761132114297785000,2.22378515625,0.00015271631127689034,-0.0017562375869601965,-0.0010690141934901476
1761132114307785000,2.233784912109375,-0.00045814894838258624,-0.0017562375869601965,-0.0022907445672899485
1761132114317785900,2.243785888671875,0.0007635815418325365,-0.0005345070967450738,-0.0010690141934901476
1761132114327786000,2.253785888671875,0.00015271631127689034,0.0019089538836851716,-0.001679879380390048
1761132114337785900,2.263785888671875,0.00015271631127689034,0.00007635815563844517,0.00015271631127689034
1761132114347786000,2.273785888671875,0.0007635815418325365,-0.0005345070967450738,0.0007635815418325365
1761132114357785900,2.283785888671875,0.00015271631127689034,0.0012980886967852712,0.0013744467869400978
1761132114367786000,2.293785888671875,-0.00045814894838258624,0.00007635815563844517,-0.00045814894838258624
1761132114377785900,2.303785888671875,0.0007635815418325365,0.00007635815563844517,-0.0010690141934901476
1761132114387786000,2.313785888671875,-0.00045814894838258624,-0.0011453722836449742,-0.0010690141934901476
1761132114397785900,2.323785888671875,-0.0010690141934901476,0.00007635815563844517,0.00015271631127689034
1761132114407786000,2.333785888671875,0.0007635815418325365,0.0006872233934700489,0.00015271631127689034
1761132114417785000,2.34378515625,-0.0010690141934901476,0.00007635815563844517,0.00015271631127689034
1761132114427785000,2.353784912109375,0.00015271631127689034,0.00007635815563844517,0.0013744467869400978
1761132114437785000,2.36378515625,-0.00045814894838258624,0.00007635815563844517,0.0007635815418325365
1761132114447785000,2.373784912109375,-0.00045814894838258624,0.00007635815563844517,-0.00045814894838258624
1761132114457785000,2.38378515625,0.0013744467869400978,0.00007635815563844517,0.00015271631127689034
1761132114467785000,2.393784912109375,0.00015271631127689034,-0.0005345070967450738,0.0007635815418325365
1761132114477785000,2.40378515625,-0.00045814894838258624,-0.0005345070967450738,0.0007635815418325365
1761132114487785000,2.413784912109375,0.00015271631127689034,-0.0005345070967450738,-0.00045814894838258624
1761132114497785000,2.42378515625,0.0013744467869400978,0.00007635815563844517,-0.0010690141934901476
1761132114507785000,2.433784912109375,0.00015271631127689034,0.00007635815563844517,0.00015271631127689034
1761132114517785900,2.443785888671875,0.0007635815418325365,0.0006872233934700489,-0.0010690141934901476
1761132114527786000,2.453785888671875,0.00015271631127689034,0.0006872233934700489,-0.0010690141934901476
1761132114537785900,2.463785888671875,0.0007635815418325365,0.00007635815563844517,0.0007635815418325365
1761132114547786000,2.473785888671875,0.00015271631127689034,0.00007635815563844517,0.0013744467869400978
1761132114557785900,2.483785888671875,0.00015271631127689034,-0.0005345070967450738,0.00015271631127689034
1761132114567786000,2.493785888671875,-0.0010690141934901476,0.0006872233934700489,0.00015271631127689034
1761132114577785900,2.503785888671875,-0.00045814894838258624,0.00007635815563844517,0.00015271631127689034
1761132114587786000,2.513785888671875,-0.0010690141934901476,0.00007635815563844517,-0.00045814894838258624
1761132114597785900,2.523785888671875,0.00015271631127689034,-0.0005345070967450738,0.0007635815418325365
1761132114607786000,2.533785888671875,-0.00045814894838258624,0.00007635815563844517,0.0007635815418325365
1761132114617785000,2.54378515625,0.0007635815418325365,-0.0005345070967450738,-0.00045814894838258624
1761132114627785200,2.55378515625,-0.0010690141934901476,0.00007635815563844517,0.0013744467869400978
1761132114637785000,2.56378515625,-0.0010690141934901476,0.0006872233934700489,0.0007635815418325365
1761132114647785200,2.57378515625,-0.00045814894838258624,-0.0005345070967450738,0.00015271631127689034
1761132114657785000,2.58378515625,-0.00045814894838258624,-0.0005345070967450738,-0.00045814894838258624
1761132114667785200,2.59378515625,-0.0010690141934901476,0.00007635815563844517,0.0007635815418325365
1761132114677785000,2.60378515625,-0.0010690141934901476,0.00007635815563844517,0.00015271631127689034
1761132114687785200,2.61378515625,-0.0010690141934901476,0.00007635815563844517,-0.00045814894838258624
1761132114697785000,2.62378515625,0.00015271631127689034,-0.0005345070967450738,0.00015271631127689034
1761132114707785200,2.63378515625,-0.00045814894838258624,0.0006872233934700489,0.0007635815418325365
1761132114717785900,2.643785888671875,0.00015271631127689034,0.0012980886967852712,-0.00045814894838258624
1761132114727786000,2.653785888671875,0.00015271631127689034,-0.0005345070967450738,-0.0010690141934901476
1761132114737785900,2.663785888671875,0.0007635815418325365,0.00007635815563844517,0.00015271631127689034
1761132114747786000,2.673785888671875,0.00015271631127689034,-0.0005345070967450738,0.0007635815418325365
1761132114757786000,2.6837861328125,0.00015271631127689034,-0.0011453722836449742,0.0007635815418325365
1761132114767786000,2.693785888671875,-0.00045814894838258624,0.0012980886967852712,0.00015271631127689034
1761132114777786000,2.7037861328125,-0.00045814894838258624,-0.0005345070967450738,0.0013744467869400978
1761132114787786000,2.713785888671875,-0.00045814894838258624,0.0012980886967852712,0.0007635815418325365
1761132114797786000,2.7237861328125,-0.00045814894838258624,0.00007635815563844517,-0.0010690141934901476
1761132114807786000,2.733785888671875,0.0007635815418325365,0.00007635815563844517,0.00015271631127689034
1761132114817785000,2.74378515625,-0.00045814894838258624,0.00007635815563844517,0.00015271631127689034
1761132114827785200,2.75378515625,-0.00045814894838258624,0.0006872233934700489,-0.00045814894838258624
1761132114837785000,2.76378515625,-0.0010690141934901476,-0.0005345070967450738,-0.00045814894838258624
1761132114847785200,2.77378515625,0.00015271631127689034,0.00007635815563844517,-0.00045814894838258624
1761132114857785000,2.78378515625,0.0007635815418325365,0.0006872233934700489,0.00015271631127689034
1761132114867785200,2.79378515625,-0.0010690141934901476,0.00007635815563844517,0.00015271631127689034
1761132114877785000,2.80378515625,0.00015271631127689034,0.00007635815563844517,0.0007635815418325365
1761132114887785200,2.81378515625,0.0007635815418325365,0.0006872233934700489,0.00015271631127689034
1761132114897785000,2.82378515625,-0.00045814894838258624,0.0006872233934700489,0.00015271631127689034
1761132114907785200,2.83378515625,0.00015271631127689034,-0.0005345070967450738,-0.0010690141934901476
1761132114917785900,2.843785888671875,0.00015271631127689034,0.00007635815563844517,0.00015271631127689034
1761132114927786000,2.853785888671875,-0.0010690141934901476,0.0006872233934700489,0.00015271631127689034
1761132114937786400,2.863786376953125,-0.00045814894838258624,-0.0011453722836449742,0.00015271631127689034
1761132114947786500,2.873786376953125,0.0007635815418325365,0.0006872233934700489,0.0007635815418325365
1761132114957786400,2.883786376953125,-0.00045814894838258624,-0.0011453722836449742,-0.0010690141934901476
1761132114967786500,2.893786376953125,-0.00045814894838258624,-0.0005345070967450738,0.0007635815418325365
1761132114977786400,2.903786376953125,0.00015271631127689034,0.00007635815563844517,0.00015271631127689034
1761132114987786500,2.913786376953125,0.00015271631127689034,0.0006872233934700489,-0.00045814894838258624
1761132114997786400,2.923786376953125,-0.00045814894838258624,-0.0005345070967450738,-0.00045814894838258624
1761132115007786500,2.933786376953125,0.00015271631127689034,0.0012980886967852712,-0.00045814894838258624
1761132115017785600,2.94378564453125,0.00015271631127689034,0.00007635815563844517,0.0007635815418325365
1761132115027785700,2.95378564453125,-0.00045814894838258624,0.0006872233934700489,0.00015271631127689034
1761132115037785600,2.96378564453125,0.0013744467869400978,0.0006872233934700489,-0.00045814894838258624
1761132115047785700,2.97378564453125,0.00015271631127689034,-0.0005345070967450738,-0.00045814894838258624
1761132115057785600,2.98378564453125,-0.00045814894838258624,-0.0005345070967450738,0.00015271631127689034
1761132115067785700,2.99378564453125,-0.0010690141934901476,0.0006872233934700489,-0.00045814894838258624
1761132115077785600,3.00378564453125,-0.001679879380390048,0.00007635815563844517,0.0007635815418325365
1761132115087785700,3.01378564453125,0.00015271631127689034,0.00007635815563844517,0.00015271631127689034
1761132115097785600,3.02378564453125,-0.00045814894838258624,0.0006872233934700489,-0.00045814894838258624
1761132115107785700,3.03378564453125,0.00015271631127689034,-0.0005345070967450738,-0.00045814894838258624
1761132115117786400,3.043786376953125,0.00015271631127689034,-0.0005345070967450738,0.0007635815418325365
1761132115127786500,3.053786376953125,0.0007635815418325365,0.00007635815563844517,0.00015271631127689034
1761132115137786600,3.06378662109375,0.00015271631127689034,-0.0005345070967450738,0.0019853119738399982
1761132115147786500,3.073786376953125,0.00015271631127689034,-0.0005345070967450738,0.00015271631127689034
1761132115157786600,3.08378662109375,0.00015271631127689034,0.0006872233934700489,0.00015271631127689034
1761132115167786500,3.093786376953125,0.0007635815418325365,0.0012980886967852712,-0.00045814894838258624
1761132115177786600,3.10378662109375,-0.0010690141934901476,0.00007635815563844517,0.00015271631127689034
1761132115187786500,3.113786376953125,-0.00045814894838258624,-0.0005345070967450738,0.00015271631127689034
1761132115197786600,3.12378662109375,-0.001679879380390048,-0.0011453722836449742,0.0007635815418325365
1761132115207786500,3.133786376953125,0.00015271631127689034,0.00007635815563844517,0.00015271631127689034
1761132115217785600,3.14378564453125,0.00015271631127689034,0.00007635815563844517,0.0013744467869400978
1761132115227785700,3.15378564453125,0.00015271631127689034,0.0006872233934700489,-0.00045814894838258624
1761132115237785000,3.16378515625,0.00015271631127689034,-0.0005345070967450738,-0.00045814894838258624
1761132115247785200,3.17378515625,0.0007635815418325365,0.00007635815563844517,-0.00045814894838258624
1761132115257785000,3.18378515625,0.0007635815418325365,-0.0017562375869601965,-0.00045814894838258624
1761132115267785200,3.19378515625,0.00015271631127689034,0.00007635815563844517,0.00015271631127689034
1761132115277785000,3.20378515625,0.0007635815418325365,0.0006872233934700489,-0.00045814894838258624
1761132115287785200,3.21378515625,-0.0010690141934901476,0.0006872233934700489,-0.0010690141934901476
1761132115297785000,3.22378515625,-0.00045814894838258624,0.00007635815563844517,0.00015271631127689034
1761132115307785200,3.23378515625,0.0007635815418325365,-0.0005345070967450738,0.00015271631127689034
1761132115317786000,3.2437861328125,0.0007635815418325365,0.0006872233934700489,-0.0010690141934901476
1761132115327786000,3.253785888671875,-0.00045814894838258624,0.00007635815563844517,0.00015271631127689034
1761132115337786000,3.2637861328125,0.0007635815418325365,-0.0005345070967450738,-0.00045814894838258624
1761132115347786000,3.273785888671875,0.00015271631127689034,0.00007635815563844517,0.0007635815418325365
1761132115357786000,3.2837861328125,-0.00045814894838258624,0.00007635815563844517,0.0007635815418325365
1761132115367786000,3.293785888671875,-0.00045814894838258624,0.00007635815563844517,0.00015271631127689034
1761132115377786000,3.3037861328125,-0.00045814894838258624,-0.0005345070967450738,0.00015271631127689034
1761132115387786000,3.313785888671875,0.00015271631127689034,0.00007635815563844517,-0.00045814894838258624
1761132115397786000,3.3237861328125,0.00015271631127689034,0.0006872233934700489,-0.00045814894838258624
1761132115407786000,3.333785888671875,-0.00045814894838258624,0.0012980886967852712,-0.00045814894838258624
1761132115417785000,3.34378515625,0.0013744467869400978,0.0012980886967852712,-0.00045814894838258624
1761132115427785200,3.35378515625,-0.00045814894838258624,-0.0005345070967450738,0.00015271631127689034
1761132115437785000,3.36378515625,0.0007635815418325365,0.0006872233934700489,-0.00045814894838258624
1761132115447785200,3.37378515625,-0.001679879380390048,0.00007635815563844517,-0.00045814894838258624
1761132115457785000,3.38378515625,0.0007635815418325365,-0.0011453722836449742,0.00015271631127689034
1761132115467785200,3.39378515625,-0.00045814894838258624,-0.0005345070967450738,0.00015271631127689034
1761132115477785000,3.40378515625,0.00015271631127689034,0.0006872233934700489,-0.001679879380390048
1761132115487785200,3.41378515625,0.0007635815418325365,0.00007635815563844517,-0.0010690141934901476
1761132115497785000,3.42378515625,-0.00045814894838258624,0.0006872233934700489,0.00015271631127689034
1761132115507785200,3.43378515625,0.00015271631127689034,0.00007635815563844517,0.00015271631127689034
1761132115517786000,3.4437861328125,0.00015271631127689034,0.00007635815563844517,-0.0010690141934901476
1761132115527786000,3.453785888671875,0.00015271631127689034,0.0006872233934700489,0.00015271631127689034
1761132115537786000,3.4637861328125,0.00015271631127689034,0.00007635815563844517,0.0013744467869400978
1761132115547786000,3.473785888671875,0.00015271631127689034,0.00007635815563844517,0.00015271631127689034
1761132115557786000,3.4837861328125,-0.00045814894838258624,0.0006872233934700489,0.00015271631127689034
1761132115567786000,3.493785888671875,0.0007635815418325365,0.00007635815563844517,0.0007635815418325365
1761132115577786000,3.5037861328125,-0.001679879380390048,0.00007635815563844517,-0.00045814894838258624
1761132115587786000,3.513785888671875,-0.00045814894838258624,0.00007635815563844517,0.0007635815418325365
1761132115597786000,3.5237861328125,-0.0010690141934901476,-0.0005345070967450738,-0.0010690141934901476
1761132115607786000,3.533785888671875,0.00015271631127689034,0.00007635815563844517,0.00015271631127689034
1761132115617785300,3.543785400390625,-0.00045814894838258624,0.0006872233934700489,0.00015271631127689034
1761132115627785500,3.553785400390625,0.00015271631127689034,0.0006872233934700489,0.00015271631127689034
1761132115637785300,3.563785400390625,-0.00045814894838258624,0.0006872233934700489,0.00015271631127689034
1761132115647785500,3.573785400390625,0.00015271631127689034,-0.0005345070967450738,0.0007635815418325365
1761132115657785300,3.583785400390625,0.00015271631127689034,0.0012980886967852712,0.0007635815418325365
1761132115667785500,3.593785400390625,-0.00045814894838258624,0.00007635815563844517,0.0007635815418325365
1761132115677785300,3.603785400390625,-0.001679879380390048,0.00007635815563844517,0.00015271631127689034
1761132115687785500,3.613785400390625,0.00015271631127689034,0.00007635815563844517,-0.00045814894838258624
1761132115697785300,3.623785400390625,-0.00045814894838258624,-0.0005345070967450738,0.00015271631127689034
1761132115707785500,3.633785400390625,-0.0010690141934901476,-0.0005345070967450738,-0.00045814894838258624
1761132115717786000,3.6437861328125,0.00015271631127689034,0.0012980886967852712,0.00015271631127689034
1761132115727786200,3.6537861328125,-0.0010690141934901476,-0.0005345070967450738,0.00015271631127689034
1761132115737786000,3.6637861328125,0.00015271631127689034,-0.0005345070967450738,0.00015271631127689034
1761132115747786200,3.6737861328125,0.00015271631127689034,0.00007635815563844517,0.0007635815418325365
1761132115757786000,3.6837861328125,-0.0010690141934901476,0.0006872233934700489,-0.00045814894838258624
1761132115767786200,3.6937861328125,-0.00045814894838258624,0.00007635815563844517,-0.00045814894838258624
1761132115777786000,3.7037861328125,0.00015271631127689034,0.00007635815563844517,-0.00045814894838258624
1761132115787786200,3.7137861328125,0.00015271631127689034,0.0012980886967852712,0.0013744467869400978
1761132115797786000,3.7237861328125,0.00015271631127689034,0.00007635815563844517,0.00015271631127689034
1761132115807786200,3.7337861328125,0.00015271631127689034,-0.0005345070967450738,-0.00045814894838258624
1761132115817785300,3.743785400390625,0.0007635815418325365,0.00007635815563844517,0.00015271631127689034
1761132115827785200,3.75378515625,0.00015271631127689034,-0.0005345070967450738,-0.00045814894838258624
1761132115837785300,3.763785400390625,-0.00045814894838258624,0.0006872233934700489,0.00015271631127689034
1761132115847785200,3.77378515625,0.0007635815418325365,0.0012980886967852712,-0.00045814894838258624
1761132115857785300,3.783785400390625,-0.00045814894838258624,0.0006872233934700489,0.00015271631127689034
1761132115867785200,3.79378515625,0.0007635815418325365,0.0012980886967852712,-0.00045814894838258624
1761132115877785300,3.803785400390625,0.00015271631127689034,-0.0011453722836449742,-0.00045814894838258624
1761132115887785200,3.81378515625,0.00015271631127689034,0.00007635815563844517,-0.0010690141934901476
1761132115897785300,3.823785400390625,0.00015271631127689034,-0.0005345070967450738,-0.00045814894838258624
1761132115907785200,3.83378515625,0.00015271631127689034,0.00007635815563844517,0.00015271631127689034
1761132115917785900,3.843785888671875,-0.00045814894838258624,0.0006872233934700489,0.00015271631127689034
1761132115927786000,3.853785888671875,0.0007635815418325365,-0.0005345070967450738,0.00015271631127689034
1761132115937785900,3.863785888671875,0.00015271631127689034,-0.0005345070967450738,-0.00045814894838258624
1761132115947786000,3.873785888671875,-0.0010690141934901476,-0.0005345070967450738,-0.00045814894838258624
1761132115957785900,3.883785888671875,-0.00045814894838258624,0.00007635815563844517,0.00015271631127689034
1761132115967786000,3.893785888671875,0.0007635815418325365,-0.0005345070967450738,0.00015271631127689034
1761132115977785900,3.903785888671875,0.00015271631127689034,-0.0005345070967450738,-0.0010690141934901476
1761132115987786000,3.913785888671875,-0.00045814894838258624,0.0006872233934700489,0.00015271631127689034
1761132115997785900,3.923785888671875,0.0007635815418325365,0.0006872233934700489,0.00015271631127689034
1761132116007786000,3.933785888671875,0.00015271631127689034,0.0006872233934700489,-0.00045814894838258624
1761132116017785000,3.94378515625,-0.00045814894838258624,0.00007635815563844517,-0.00045814894838258624
1761132116027785200,3.95378515625,-0.001679879380390048,0.0012980886967852712,-0.00045814894838258624
1761132116037785000,3.96378515625,-0.00045814894838258624,0.00007635815563844517,0.0013744467869400978
1761132116047785200,3.97378515625,-0.0010690141934901476,-0.0005345070967450738,0.00015271631127689034
1761132116057785000,3.98378515625,0.00015271631127689034,-0.0011453722836449742,0.00015271631127689034
1761132116067785200,3.99378515625,-0.001679879380390048,0.0006872233934700489,0.0007635815418325365
1761132116077785000,4.00378515625,0.00015271631127689034,-0.0005345070967450738,0.00015271631127689034
1761132116087785200,4.01378515625,0.0013744467869400978,0.0006872233934700489,0.0013744467869400978
1761132116097785000,4.02378515625,-0.0010690141934901476,0.0006872233934700489,0.0007635815418325365
1761132116107785200,4.03378515625,-0.0010690141934901476,0.00007635815563844517,-0.00045814894838258624
1761132116117785900,4.043785888671875,-0.00045814894838258624,0.0006872233934700489,-0.00045814894838258624
1761132116127786000,4.053785888671875,0.00015271631127689034,0.00007635815563844517,0.0007635815418325365
1761132116137786000,4.0637861328125,-0.00045814894838258624,0.0006872233934700489,0.00015271631127689034
1761132116147786000,4.073785888671875,-0.0010690141934901476,-0.0011453722836449742,0.00015271631127689034
1761132116157786000,4.0837861328125,0.00015271631127689034,0.0006872233934700489,0.0007635815418325365
1761132116167786000,4.093785888671875,-0.00045814894838258624,0.00007635815563844517,-0.00045814894838258624
1761132116177786000,4.1037861328125,0.0007635815418325365,0.0006872233934700489,0.00015271631127689034
1761132116187786000,4.113785888671875,-0.00045814894838258624,0.00007635815563844517,0.00015271631127689034
1761132116197786000,4.1237861328125,-0.0010690141934901476,0.00007635815563844517,-0.0010690141934901476
1761132116207786000,4.133785888671875,-0.0010690141934901476,0.00007635815563844517,0.0007635815418325365
1761132116217785000,4.14378515625,-0.00045814894838258624,0.00007635815563844517,-0.00045814894838258624
1761132116227785200,4.15378515625,0.00015271631127689034,-0.0005345070967450738,0.00015271631127689034
1761132116237785000,4.16378515625,-0.00045814894838258624,-0.0005345070967450738,0.00015271631127689034
1761132116247785200,4.17378515625,0.0007635815418325365,0.0006872233934700489,0.00015271631127689034
1761132116257785000,4.18378515625,-0.00045814894838258624,-0.0005345070967450738,-0.00045814894838258624
1761132116267785200,4.19378515625,0.00015271631127689034,0.00007635815563844517,0.00015271631127689034
1761132116277785000,4.20378515625,-0.00045814894838258624,0.00007635815563844517,0.00015271631127689034
1761132116287785200,4.21378515625,0.0007635815418325365,0.00007635815563844517,0.00015271631127689034
1761132116297785000,4.22378515625,0.00015271631127689034,0.00007635815563844517,0.0007635815418325365
1761132116307785200,4.23378515625,-0.00045814894838258624,-0.0005345070967450738,0.00015271631127689034
1761132116317785900,4.243785888671875,-0.00045814894838258624,0.00007635815563844517,0.0007635815418325365
1761132116327786000,4.253785888671875,-0.0010690141934901476,0.00007635815563844517,-0.0010690141934901476
1761132116337785900,4.263785888671875,0.0007635815418325365,0.00007635815563844517,0.0007635815418325365
1761132116347786000,4.273785888671875,-0.0010690141934901476,-0.0005345070967450738,0.00015271631127689034
1761132116357785900,4.283785888671875,-0.0010690141934901476,0.00007635815563844517,-0.00045814894838258624
1761132116367786000,4.293785888671875,-0.0010690141934901476,0.00007635815563844517,0.0007635815418325365
1761132116377785900,4.303785888671875,-0.00045814894838258624,0.00007635815563844517,-0.00045814894838258624
1761132116387786000,4.313785888671875,-0.001679879380390048,-0.0005345070967450738,0.00015271631127689034
1761132116397785900,4.323785888671875,-0.00045814894838258624,0.00007635815563844517,-0.00045814894838258624
1761132116407786000,4.333785888671875,0.00015271631127689034,0.00007635815563844517,0.00015271631127689034
1761132116417785000,4.34378515625,0.00015271631127689034,0.00007635815563844517,0.00015271631127689034
1761132116427785200,4.35378515625,-0.00045814894838258624,-0.0005345070967450738,-0.00045814894838258624
1761132116437785000,4.36378515625,-0.0010690141934901476,-0.0005345070967450738,-0.0010690141934901476
1761132116447785200,4.37378515625,0.00015271631127689034,0.0012980886967852712,0.00015271631127689034
1761132116457785000,4.38378515625,0.00015271631127689034,-0.0005345070967450738,0.00015271631127689034
1761132116467785200,4.39378515625,-0.00045814894838258624,0.00007635815563844517,0.00015271631127689034
1761132116477785000,4.40378515625,0.00015271631127689034,0.00007635815563844517,-0.00045814894838258624
1761132116487785200,4.41378515625,0.00015271631127689034,-0.0011453722836449742,-0.00045814894838258624
1761132116497785000,4.42378515625,-0.0010690141934901476,0.00007635815563844517,0.00015271631127689034
1761132116507785200,4.43378515625,-0.00045814894838258624,0.00007635815563844517,0.0007635815418325365
1761132116517785900,4.443785888671875,-0.00045814894838258624,0.0012980886967852712,0.00015271631127689034
1761132116527786000,4.453785888671875,-0.0010690141934901476,-0.0005345070967450738,0.0007635815418325365
1761132116537785900,4.463785888671875,-0.00045814894838258624,0.00007635815563844517,-0.00045814894838258624
1761132116547786000,4.473785888671875,-0.00045814894838258624,0.00007635815563844517,0.00015271631127689034
1761132116557785900,4.483785888671875,0.00015271631127689034,-0.0005345070967450738,-0.0010690141934901476
1761132116567786000,4.493785888671875,-0.0010690141934901476,-0.0005345070967450738,-0.0010690141934901476
1761132116577785900,4.503785888671875,-0.0010690141934901476,0.0012980886967852712,-0.00045814894838258624
1761132116587786000,4.513785888671875,-0.00045814894838258624,0.00007635815563844517,0.00015271631127689034
1761132116597785900,4.523785888671875,-0.001679879380390048,0.00007635815563844517,-0.00045814894838258624
1761132116607786000,4.533785888671875,0.00015271631127689034,-0.0011453722836449742,0.0007635815418325365
1761132116617785000,4.54378515625,-0.0010690141934901476,-0.0005345070967450738,-0.00045814894838258624
1761132116627785200,4.55378515625,-0.00045814894838258624,0.0006872233934700489,-0.00045814894838258624
1761132116637785000,4.56378515625,0.0007635815418325365,0.00007635815563844517,0.0013744467869400978
1761132116647785200,4.57378515625,0.00015271631127689034,0.0006872233934700489,0.00015271631127689034
1761132116657785000,4.58378515625,0.00015271631127689034,0.00007635815563844517,0.00015271631127689034
1761132116667785200,4.59378515625,0.00015271631127689034,-0.0005345070967450738,-0.00045814894838258624
1761132116677785000,4.60378515625,-0.00045814894838258624,0.0006872233934700489,0.0007635815418325365
1761132116687785200,4.61378515625,-0.00045814894838258624,0.0006872233934700489,-0.00045814894838258624
1761132116697785000,4.62378515625,-0.00045814894838258624,0.00007635815563844517,0.00015271631127689034
1761132116707785200,4.63378515625,-0.00045814894838258624,0.00007635815563844517,0.00015271631127689034
1761132116717785900,4.643785888671875,-0.00045814894838258624,0.0006872233934700489,-0.00045814894838258624
1761132116727786000,4.653785888671875,-0.0010690141934901476,0.00007635815563844517,0.00015271631127689034
1761132116737785900,4.663785888671875,0.00015271631127689034,0.00007635815563844517,0.0007635815418325365
1761132116747786000,4.673785888671875,0.00015271631127689034,0.0006872233934700489,0.0007635815418325365
1761132116757785900,4.683785888671875,0.00015271631127689034,-0.0011453722836449742,0.00015271631127689034
1761132116767786000,4.693785888671875,-0.0010690141934901476,0.0006872233934700489,0.00015271631127689034
1761132116777786000,4.7037861328125,0.0019853119738399982,-0.0005345070967450738,0.0007635815418325365
1761132116787786000,4.713785888671875,-0.0010690141934901476,0.00007635815563844517,0.00015271631127689034
1761132116797786000,4.7237861328125,0.00015271631127689034,-0.0005345070967450738,0.00015271631127689034
1761132116807786000,4.733785888671875,0.0007635815418325365,-0.0005345070967450738,-0.00045814894838258624
1761132116817785000,4.74378515625,-0.00045814894838258624,-0.0005345070967450738,-0.00045814894838258624
1761132116827785200,4.75378515625,-0.00045814894838258624,0.00007635815563844517,0.00015271631127689034
1761132116837785000,4.76378515625,-0.0010690141934901476,0.00007635815563844517,-0.0010690141934901476
1761132116847785200,4.77378515625,0.00015271631127689034,0.00007635815563844517,0.0013744467869400978
1761132116857785000,4.78378515625,0.00015271631127689034,-0.0005345070967450738,0.00015271631127689034
1761132116867785200,4.79378515625,-0.0010690141934901476,0.00007635815563844517,-0.00045814894838258624
1761132116877785000,4.80378515625,-0.00045814894838258624,0.0006872233934700489,-0.00045814894838258624
1761132116887785200,4.81378515625,0.00015271631127689034,0.0012980886967852712,0.00015271631127689034
1761132116897785000,4.82378515625,0.0007635815418325365,0.00007635815563844517,-0.0010690141934901476
1761132116907785200,4.83378515625,0.00015271631127689034,0.00007635815563844517,-0.00045814894838258624
1761132116917785900,4.843785888671875,-0.0010690141934901476,0.00007635815563844517,-0.00045814894838258624
1761132116927786000,4.853785888671875,0.00015271631127689034,0.00007635815563844517,0.00015271631127689034
1761132116937785900,4.863785888671875,-0.00045814894838258624,0.00007635815563844517,0.0007635815418325365
1761132116947786000,4.873785888671875,-0.00045814894838258624,0.00007635815563844517,0.0013744467869400978
1761132116957785900,4.883785888671875,-0.00045814894838258624,0.0006872233934700489,0.0013744467869400978
1761132116967786000,4.893785888671875,-0.0010690141934901476,0.00007635815563844517,-0.00045814894838258624
1761132116977786400,4.903786376953125,-0.00045814894838258624,0.00007635815563844517,-0.0010690141934901476
1761132116987786500,4.913786376953125,-0.00045814894838258624,-0.0011453722836449742,-0.00045814894838258624
1761132116997786400,4.923786376953125,-0.00045814894838258624,-0.0005345070967450738,0.0007635815418325365
1761132117007786500,4.933786376953125,0.0013744467869400978,0.00007635815563844517,0.0007635815418325365
1761132117017785600,4.94378564453125,-0.00045814894838258624,0.0006872233934700489,0.00015271631127689034
1761132117027785500,4.953785400390625,-0.00045814894838258624,0.00007635815563844517,-0.00045814894838258624
1761132117037785600,4.96378564453125,0.00015271631127689034,-0.0005345070967450738,-0.00045814894838258624
1761132117047785500,4.973785400390625,0.00015271631127689034,0.00007635815563844517,-0.00045814894838258624
1761132117057785600,4.98378564453125,0.00015271631127689034,0.00007635815563844517,0.00015271631127689034
1761132117067785500,4.993785400390625,-0.00045814894838258624,0.00007635815563844517,0.00015271631127689034
1761132117077785600,5.00378564453125,0.00015271631127689034,-0.0011453722836449742,-0.00045814894838258624
1761132117087785500,5.013785400390625,0.00015271631127689034,-0.0005345070967450738,-0.00045814894838258624
1761132117097785600,5.02378564453125,0.00015271631127689034,0.0006872233934700489,0.0007635815418325365
1761132117107785500,5.033785400390625,-0.0010690141934901476,0.00007635815563844517,-0.0010690141934901476
1761132117117786400,5.043786376953125,-0.001679879380390048,0.00007635815563844517,-0.00045814894838258624
1761132117127786200,5.0537861328125,0.00015271631127689034,0.0006872233934700489,0.00015271631127689034
1761132117137786400,5.063786376953125,-0.0010690141934901476,0.0006872233934700489,0.00015271631127689034
1761132117147786500,5.073786376953125,-0.0010690141934901476,-0.0005345070967450738,-0.00045814894838258624
1761132117157786400,5.083786376953125,-0.0010690141934901476,0.00007635815563844517,0.00015271631127689034
1761132117167786500,5.093786376953125,0.0007635815418325365,-0.0005345070967450738,0.00015271631127689034
1761132117177786400,5.103786376953125,-0.00045814894838258624,0.0006872233934700489,-0.00045814894838258624
1761132117187786500,5.113786376953125,-0.00045814894838258624,0.00007635815563844517,0.0007635815418325365
1761132117197786400,5.123786376953125,-0.0010690141934901476,0.00007635815563844517,0.0007635815418325365
1761132117207786500,5.133786376953125,-0.0010690141934901476,0.00007635815563844517,0.00015271631127689034
1761132117217785600,5.14378564453125,-0.0010690141934901476,0.00007635815563844517,-0.0010690141934901476
1761132117227785500,5.153785400390625,-0.0010690141934901476,0.00007635815563844517,0.00015271631127689034
1761132117237785600,5.16378564453125,-0.00045814894838258624,0.00007635815563844517,0.0007635815418325365
1761132117247785500,5.173785400390625,-0.00045814894838258624,0.00007635815563844517,0.0007635815418325365
1761132117257785600,5.18378564453125,-0.0010690141934901476,0.00007635815563844517,-0.00045814894838258624
1761132117267785700,5.19378564453125,-0.00045814894838258624,-0.0005345070967450738,0.0007635815418325365
1761132117277785000,5.20378515625,0.00015271631127689034,0.00007635815563844517,0.0007635815418325365
1761132117287785200,5.21378515625,0.00015271631127689034,-0.0005345070967450738,-0.00045814894838258624
1761132117297785000,5.22378515625,-0.0010690141934901476,0.00007635815563844517,-0.00045814894838258624
1761132117307785200,5.23378515625,0.00015271631127689034,0.0006872233934700489,0.00015271631127689034
1761132117317785900,5.243785888671875,-0.0010690141934901476,-0.0011453722836449742,-0.0010690141934901476
1761132117327786000,5.253785888671875,0.0007635815418325365,0.00007635815563844517,0.00015271631127689034
1761132117337785900,5.263785888671875,0.00015271631127689034,0.00007635815563844517,-0.0010690141934901476
1761132117347786000,5.273785888671875,0.0007635815418325365,0.0019089538836851716,-0.00045814894838258624
1761132117357785900,5.283785888671875,-0.00045814894838258624,0.0012980886967852712,0.0013744467869400978
1761132117367786000,5.293785888671875,-0.0010690141934901476,0.00007635815563844517,0.00015271631127689034
1761132117377785900,5.303785888671875,-0.00045814894838258624,0.0006872233934700489,0.0007635815418325365
1761132117387786000,5.313785888671875,0.00015271631127689034,0.00007635815563844517,-0.0010690141934901476
1761132117397785900,5.323785888671875,0.00015271631127689034,0.0006872233934700489,0.00015271631127689034
1761132117407786000,5.333785888671875,0.00015271631127689034,0.00007635815563844517,-0.0010690141934901476
1761132117417785000,5.34378515625,0.0007635815418325365,0.0006872233934700489,-0.00045814894838258624
1761132117427785200,5.35378515625,-0.00045814894838258624,0.00007635815563844517,-0.0010690141934901476
1761132117437785000,5.36378515625,-0.00045814894838258624,-0.0005345070967450738,0.00015271631127689034
1761132117447785000,5.373784912109375,0.0007635815418325365,0.0006872233934700489,0.0007635815418325365
1761132117457785000,5.38378515625,-0.00045814894838258624,0.00007635815563844517,0.0007635815418325365
1761132117467785000,5.393784912109375,-0.00045814894838258624,0.00007635815563844517,0.00015271631127689034
1761132117477785000,5.40378515625,0.00015271631127689034,0.0006872233934700489,0.0007635815418325365
1761132117487785000,5.413784912109375,-0.00045814894838258624,0.00007635815563844517,0.00015271631127689034
1761132117497785000,5.42378515625,0.0007635815418325365,-0.0005345070967450738,0.0007635815418325365
1761132117507785200,5.43378515625,0.00015271631127689034,0.0012980886967852712,0.0007635815418325365
1761132117517785900,5.443785888671875,0.00015271631127689034,0.00007635815563844517,-0.00045814894838258624
1761132117527786000,5.453785888671875,-0.00045814894838258624,0.0006872233934700489,0.00015271631127689034
1761132117537785900,5.463785888671875,0.0007635815418325365,0.00007635815563844517,0.0007635815418325365
1761132117547786000,5.473785888671875,-0.0010690141934901476,-0.0005345070967450738,0.00015271631127689034
1761132117557785900,5.483785888671875,-0.0010690141934901476,0.0012980886967852712,0.0007635815418325365
1761132117567786000,5.493785888671875,-0.00045814894838258624,0.0006872233934700489,0.00015271631127689034
1761132117577785900,5.503785888671875,0.00015271631127689034,0.00007635815563844517,0.0007635815418325365
1761132117587786000,5.513785888671875,-0.0010690141934901476,0.00007635815563844517,0.00015271631127689034
1761132117597785900,5.523785888671875,0.00015271631127689034,0.0006872233934700489,-0.00045814894838258624
1761132117607786000,5.533785888671875,0.00015271631127689034,0.00007635815563844517,0.00015271631127689034
1761132117617785000,5.54378515625,0.00015271631127689034,0.00007635815563844517,0.0007635815418325365
1761132117627785000,5.553784912109375,0.0007635815418325365,0.0006872233934700489,0.00015271631127689034
1761132117637785000,5.56378515625,-0.0010690141934901476,0.00007635815563844517,0.00015271631127689034
1761132117647785000,5.573784912109375,-0.00045814894838258624,0.0006872233934700489,0.0007635815418325365
1761132117657785000,5.58378515625,0.00015271631127689034,0.00007635815563844517,0.00015271631127689034
1761132117667785000,5.593784912109375,-0.00045814894838258624,0.0006872233934700489,0.0007635815418325365
1761132117677785000,5.60378515625,0.0013744467869400978,0.00007635815563844517,0.0007635815418325365
1761132117687785000,5.613784912109375,-0.00045814894838258624,-0.0005345070967450738,0.0007635815418325365
1761132117697785000,5.62378515625,0.00015271631127689034,0.00007635815563844517,-0.00045814894838258624
1761132117707785000,5.633784912109375,0.00015271631127689034,0.0006872233934700489,0.00015271631127689034
1761132117717785900,5.643785888671875,0.0007635815418325365,0.00007635815563844517,0.00015271631127689034
1761132117727786000,5.653785888671875,0.00015271631127689034,0.00007635815563844517,0.00015271631127689034
1761132117737785900,5.663785888671875,-0.00045814894838258624,-0.0017562375869601965,0.00015271631127689034
1761132117747785000,5.673784912109375,-0.00045814894838258624,-0.0011453722836449742,0.00015271631127689034
1761132117757785000,5.68378515625,0.00015271631127689034,-0.0005345070967450738,-0.00045814894838258624
1761132117767785000,5.693784912109375,-0.00045814894838258624,-0.0005345070967450738,-0.00045814894838258624
1761132117777785000,5.70378515625,-0.001679879380390048,0.0012980886967852712,-0.00045814894838258624
1761132117787785200,5.71378515625,0.00015271631127689034,0.00007635815563844517,0.00015271631127689034
1761132117797785000,5.72378515625,-0.00045814894838258624,-0.0005345070967450738,-0.00045814894838258624
1761132117807785000,5.733784912109375,-0.0010690141934901476,0.00007635815563844517,0.0007635815418325365
1761132117817784000,5.7437841796875,-0.00045814894838258624,-0.0005345070967450738,-0.00045814894838258624
1761132117827784200,5.7537841796875,-0.00045814894838258624,0.0006872233934700489,0.00015271631127689034
1761132117837784000,5.7637841796875,0.0007635815418325365,-0.0005345070967450738,0.00015271631127689034
1761132117847784200,5.7737841796875,0.0007635815418325365,0.0006872233934700489,0.00015271631127689034
1761132117857784000,5.7837841796875,-0.00045814894838258624,0.00007635815563844517,0.0013744467869400978
1761132117867784200,5.7937841796875,0.00015271631127689034,-0.0011453722836449742,0.00015271631127689034
1761132117877784000,5.8037841796875,-0.00045814894838258624,0.00007635815563844517,0.0013744467869400978
1761132117887784200,5.8137841796875,-0.0010690141934901476,0.0012980886967852712,-0.00045814894838258624
1761132117897784000,5.8237841796875,-0.00045814894838258624,0.00007635815563844517,0.00015271631127689034
1761132117907784200,5.8337841796875,-0.001679879380390048,0.00007635815563844517,0.0007635815418325365
1761132117917785000,5.84378515625,0.0007635815418325365,0.00007635815563844517,0.00015271631127689034
1761132117927785000,5.853784912109375,0.00015271631127689034,-0.0011453722836449742,0.00015271631127689034
1761132117937785000,5.86378515625,0.00015271631127689034,0.0012980886967852712,0.00015271631127689034
1761132117947785000,5.873784912109375,0.0007635815418325365,0.00007635815563844517,0.00015271631127689034
1761132117957785000,5.88378515625,0.00015271631127689034,-0.0005345070967450738,0.00015271631127689034
1761132117967785000,5.893784912109375,0.00015271631127689034,-0.0005345070967450738,0.0007635815418325365
1761132117977785000,5.90378515625,-0.00045814894838258624,-0.0005345070967450738,0.00015271631127689034
1761132117987785000,5.913784912109375,0.00015271631127689034,0.00007635815563844517,0.00015271631127689034
1761132117997785000,5.92378515625,0.0007635815418325365,0.0006872233934700489,-0.00045814894838258624
1761132118007785000,5.933784912109375,0.00015271631127689034,-0.0005345070967450738,0.00015271631127689034
1761132118017784000,5.9437841796875,-0.0010690141934901476,0.00007635815563844517,-0.00045814894838258624
1761132118027784200,5.9537841796875,-0.00045814894838258624,-0.0005345070967450738,0.00015271631127689034
1761132118037784000,5.9637841796875,-0.0010690141934901476,0.00007635815563844517,0.00015271631127689034
1761132118047785200,5.97378515625,-0.00045814894838258624,0.00007635815563844517,-0.00045814894838258624
1761132118057785000,5.98378515625,0.00015271631127689034,0.0006872233934700489,-0.0010690141934901476
1761132118067785000,5.993784912109375,-0.00045814894838258624,0.00007635815563844517,0.0007635815418325365
1761132118077785000,6.00378515625,0.00015271631127689034,0.00007635815563844517,0.0007635815418325365
1761132118087785000,6.013784912109375,-0.00045814894838258624,-0.0011453722836449742,-0.00045814894838258624
1761132118097785000,6.02378515625,0.00015271631127689034,0.0006872233934700489,0.0007635815418325365
1761132118107785000,6.033784912109375,-0.0010690141934901476,0.00007635815563844517,0.00015271631127689034
1761132118117785900,6.043785888671875,0.0007635815418325365,0.0006872233934700489,0.0007635815418325365
1761132118127786000,6.053785888671875,0.0013744467869400978,0.00007635815563844517,0.0007635815418325365
1761132118137785900,6.063785888671875,0.0007635815418325365,0.00007635815563844517,0.0007635815418325365
1761132118147786000,6.073785888671875,-0.0010690141934901476,0.0006872233934700489,-0.001679879380390048
1761132118157785900,6.083785888671875,0.0007635815418325365,0.0012980886967852712,-0.00045814894838258624
1761132118167786000,6.093785888671875,-0.00045814894838258624,0.0006872233934700489,-0.001679879380390048
1761132118177785900,6.103785888671875,0.0007635815418325365,0.0019089538836851716,-0.0010690141934901476
1761132118187786000,6.113785888671875,0.0007635815418325365,-0.0005345070967450738,0.0007635815418325365
1761132118197785900,6.123785888671875,0.00015271631127689034,0.00007635815563844517,0.0007635815418325365
1761132118207786000,6.133785888671875,0.00015271631127689034,0.0006872233934700489,0.0007635815418325365
1761132118227785000,6.153784912109375,-0.00045814894838258624,0.00007635815563844517,-0.00045814894838258624
1761132118237785000,6.16378515625,-0.00045814894838258624,0.00007635815563844517,0.00015271631127689034
1761132118247785000,6.173784912109375,-0.00045814894838258624,0.00007635815563844517,0.00015271631127689034
1761132118257785000,6.18378515625,-0.00038179077091626823,-0.0006108652451075613,0.00015271631127689034
1761132118267785000,6.193784912109375,-0.00038179077091626823,0,0.0007635815418325365
1761132118277785000,6.20378515625,-0.0009926559869199991,-0.0006108652451075613,0.0007635815418325365
1761132118287785000,6.213784912109375,0.00022907447419129312,0.0006108652451075613,0.00015271631127689034
1761132118297785000,6.22378515625,0.000839939690195024,-0.0006108652451075613,-0.00045814894838258624
1761132118307785000,6.233784912109375,0.0014508049935102463,0.0006108652451075613,0.0007635815418325365
1761132118317785900,6.243785888671875,-0.00038179077091626823,-0.0006108652451075613,0.0007635815418325365
1761132118327786000,6.253785888671875,0.000839939690195024,-0.0006108652451075613,0.0007635815418325365
1761132118337785900,6.263785888671875,-0.00038179077091626823,0,-0.00045814894838258624
1761132118347786000,6.273785888671875,-0.0009926559869199991,-0.0006108652451075613,-0.00045814894838258624
1761132118357785900,6.283785888671875,0.000839939690195024,0.0012217304902151227,0.00015271631127689034
1761132118367786000,6.293785888671875,0.00022907447419129312,-0.0006108652451075613,-0.00045814894838258624
1761132118377785900,6.303785888671875,0.00022907447419129312,-0.0006108652451075613,-0.00045814894838258624
1761132118387786000,6.313785888671875,-0.00038179077091626823,0.0012217304902151227,-0.00045814894838258624
1761132118397785900,6.323785888671875,0.00022907447419129312,-0.0006108652451075613,-0.00045814894838258624
1761132118407786000,6.333785888671875,-0.00038179077091626823,-0.001832595793530345,-0.00045814894838258624
1761132118417785000,6.34378515625,0.00022907447419129312,-0.0012217304902151227,0.00015271631127689034
1761132118427785000,6.353784912109375,-0.00038179077091626823,0,0.0007635815418325365
1761132118437785000,6.36378515625,0.00022907447419129312,-0.0006108652451075613,0.0013744467869400978
1761132118447785000,6.373784912109375,0.00022907447419129312,0,0.00015271631127689034
1761132118457785000,6.38378515625,0.000839939690195024,-0.0006108652451075613,0.00015271631127689034
1761132118467785000,6.393784912109375,0.00022907447419129312,-0.0006108652451075613,0.0007635815418325365
1761132118477785000,6.40378515625,-0.00038179077091626823,0,-0.00045814894838258624
1761132118487785000,6.413784912109375,-0.0009926559869199991,-0.0006108652451075613,0.00015271631127689034
1761132118507785000,6.433784912109375,0.00022907447419129312,-0.0006108652451075613,0.0007635815418325365
1761132118517785900,6.443785888671875,0.00022907447419129312,0.0006108652451075613,0.00015271631127689034
1761132118527786000,6.453785888671875,0.00022907447419129312,-0.0006108652451075613,0.0007635815418325365
1761132118537785900,6.463785888671875,0.00022907447419129312,-0.0006108652451075613,0.00015271631127689034
1761132118547786000,6.473785888671875,0.000839939690195024,0,0.0007635815418325365
1761132118557785900,6.483785888671875,0.000839939690195024,0.0012217304902151227,0.0007635815418325365
1761132118567786000,6.493785888671875,-0.00038179077091626823,0,-0.00045814894838258624
1761132118577785900,6.503785888671875,-0.00038179077091626823,0,-0.00045814894838258624
1761132118587786000,6.513785888671875,-0.00038179077091626823,0,0.00015271631127689034
1761132118597785900,6.523785888671875,0.000839939690195024,0,0.00015271631127689034
1761132118607786000,6.533785888671875,-0.00038179077091626823,-0.0012217304902151227,0.00015271631127689034
1761132118617785000,6.54378515625,-0.0009926559869199991,0,0.00015271631127689034
1761132118627785000,6.553784912109375,0.000839939690195024,0.0006108652451075613,0.00015271631127689034
1761132118637785000,6.56378515625,0.000839939690195024,0.0006108652451075613,0.0007635815418325365
1761132118647785000,6.573784912109375,0.000839939690195024,0.0006108652451075613,0.0007635815418325365
1761132118657785000,6.58378515625,-0.0009926559869199991,0,-0.00045814894838258624
1761132118667785000,6.593784912109375,-0.00038179077091626823,-0.0006108652451075613,0.00015271631127689034
1761132118677785000,6.60378515625,0.00022907447419129312,0.0006108652451075613,0.0007635815418325365
1761132118687785000,6.613784912109375,0.000839939690195024,0.0006108652451075613,0.00015271631127689034
1761132118697785000,6.62378515625,0.00022907447419129312,-0.0006108652451075613,0.00015271631127689034
1761132118707785000,6.633784912109375,0.000839939690195024,0,0.0013744467869400978
1761132118717785900,6.643785888671875,-0.00038179077091626823,0.0006108652451075613,0.0007635815418325365
1761132118727786000,6.653785888671875,0.00022907447419129312,0.0006108652451075613,0.0013744467869400978
1761132118737785900,6.663785888671875,0.00022907447419129312,0.0006108652451075613,0.0007635815418325365
1761132118747786000,6.673785888671875,0.000839939690195024,0,0.00015271631127689034
1761132118757785900,6.683785888671875,-0.00038179077091626823,0,0.0013744467869400978
1761132118767786000,6.693785888671875,-0.0009926559869199991,0,0.0007635815418325365
1761132118777785900,6.703785888671875,-0.00038179077091626823,0,0.0013744467869400978
1761132118787786000,6.713785888671875,0.0014508049935102463,-0.0006108652451075613,-0.00045814894838258624
1761132118797785900,6.723785888671875,0.00022907447419129312,-0.0006108652451075613,0.0019853119738399982
1761132118807786000,6.733785888671875,0.000839939690195024,0,0.0007635815418325365
1761132118817785000,6.74378515625,0.000839939690195024,0.0006108652451075613,0.00015271631127689034
1761132118827785000,6.753784912109375,0.000839939690195024,-0.0006108652451075613,-0.00045814894838258624
1761132118837785000,6.76378515625,-0.00038179077091626823,0,0.00015271631127689034
1761132118847785000,6.773784912109375,-0.00038179077091626823,-0.0006108652451075613,0.00015271631127689034
1761132118857785000,6.78378515625,0.000839939690195024,-0.0006108652451075613,-0.00045814894838258624
1761132118867785000,6.793784912109375,0.00022907447419129312,-0.0012217304902151227,0.00015271631127689034
1761132118877785000,6.80378515625,-0.00038179077091626823,-0.0006108652451075613,-0.00045814894838258624
1761132118887785000,6.813784912109375,0.00022907447419129312,0,0.00015271631127689034
1761132118897785000,6.82378515625,-0.0009926559869199991,-0.0006108652451075613,0.0007635815418325365
1761132118907785000,6.833784912109375,-0.0009926559869199991,-0.0006108652451075613,-0.00045814894838258624
1761132118917785900,6.843785888671875,-0.00038179077091626823,-0.0012217304902151227,0.00015271631127689034
1761132118927786000,6.853785888671875,-0.00038179077091626823,0.0006108652451075613,0.00015271631127689034
1761132118937785900,6.863785888671875,0.000839939690195024,0,0.00015271631127689034
1761132118947786000,6.873785888671875,0.00022907447419129312,0.0012217304902151227,0.00015271631127689034
1761132118957785900,6.883785888671875,-0.00038179077091626823,0,-0.00045814894838258624
1761132118967786000,6.893785888671875,0.00022907447419129312,-0.0012217304902151227,0.00015271631127689034
1761132118977785900,6.903785888671875,-0.00038179077091626823,-0.0012217304902151227,-0.0010690141934901476
1761132118997785900,6.923785888671875,0.00022907447419129312,0,-0.00045814894838258624
1761132119007786000,6.933785888671875,0.00022907447419129312,0,0.00015271631127689034
1761132119017785000,6.94378515625,-0.00038179077091626823,0,-0.0010690141934901476
1761132119027785200,6.95378515625,0.00022907447419129312,-0.0006108652451075613,0.0019853119738399982
1761132119037785000,6.96378515625,0.00022907447419129312,-0.0006108652451075613,0.0007635815418325365
1761132119047785200,6.97378515625,-0.0009926559869199991,0,0.0013744467869400978
1761132119057785000,6.98378515625,0.00022907447419129312,0,0.0007635815418325365
1761132119067785000,6.993784912109375,0.000839939690195024,-0.0006108652451075613,0.00015271631127689034
1761132119077785000,7.00378515625,0.00022907447419129312,-0.0006108652451075613,0.00015271631127689034
1761132119087785000,7.013784912109375,-0.00038179077091626823,-0.0012217304902151227,0.00015271631127689034
1761132119097785000,7.02378515625,-0.0016035212902352214,0,0.00015271631127689034
1761132119107785000,7.033784912109375,-0.0016035212902352214,-0.0006108652451075613,0.00015271631127689034
1761132119117785900,7.043785888671875,0.000839939690195024,0,0.0007635815418325365
1761132119127786000,7.053785888671875,-0.00038179077091626823,0,-0.00045814894838258624
1761132119137785900,7.063785888671875,-0.00038179077091626823,0.0006108652451075613,-0.00045814894838258624
1761132119147786000,7.073785888671875,0.00022907447419129312,-0.0006108652451075613,-0.0010690141934901476
1761132119157785900,7.083785888671875,-0.00038179077091626823,-0.0006108652451075613,-0.001679879380390048
1761132119167786000,7.093785888671875,-0.00038179077091626823,-0.0012217304902151227,-0.0010690141934901476
1761132119177785900,7.103785888671875,0.000839939690195024,0.0006108652451075613,0.00015271631127689034
1761132119187786000,7.113785888671875,0.00022907447419129312,0.0006108652451075613,-0.00045814894838258624
1761132119197785900,7.123785888671875,0.00022907447419129312,0.0006108652451075613,-0.00045814894838258624
1761132119207786000,7.133785888671875,-0.00038179077091626823,0,-0.00045814894838258624
1761132119217785000,7.14378515625,0.000839939690195024,0.0006108652451075613,-0.00045814894838258624
1761132119227785000,7.153784912109375,-0.0009926559869199991,-0.0006108652451075613,0.0007635815418325365
1761132119237785000,7.16378515625,-0.0016035212902352214,-0.0006108652451075613,-0.0010690141934901476
1761132119247785000,7.173784912109375,-0.00038179077091626823,0,0.00015271631127689034
1761132119257785000,7.18378515625,0.00022907447419129312,-0.0006108652451075613,0.00015271631127689034
1761132119267785200,7.19378515625,0.00022907447419129312,0.0006108652451075613,0.0007635815418325365
1761132119277785000,7.20378515625,0.0014508049935102463,0,0.00015271631127689034
1761132119287785200,7.21378515625,0.00022907447419129312,0,-0.00045814894838258624
1761132119297785000,7.22378515625,0.000839939690195024,0.0006108652451075613,0.0007635815418325365
1761132119307785200,7.23378515625,0.00022907447419129312,0.0006108652451075613,0.0007635815418325365
1761132119317785900,7.243785888671875,-0.0009926559869199991,0.0006108652451075613,0.0007635815418325365
1761132119327786000,7.253785888671875,-0.00038179077091626823,0.0006108652451075613,0.0007635815418325365
1761132119337785900,7.263785888671875,0.000839939690195024,0,0.00015271631127689034
1761132119347786000,7.273785888671875,-0.0009926559869199991,-0.0006108652451075613,-0.00045814894838258624
1761132119357785900,7.283785888671875,0.00022907447419129312,0,0.00015271631127689034
1761132119367786000,7.293785888671875,0.00022907447419129312,0,0.0007635815418325365
1761132119377785900,7.303785888671875,0.00022907447419129312,0,0.0007635815418325365
1761132119387786000,7.313785888671875,0.00022907447419129312,-0.0006108652451075613,-0.00045814894838258624
1761132119397785900,7.323785888671875,0.00022907447419129312,0,0.00015271631127689034
1761132119407786000,7.333785888671875,-0.00038179077091626823,0,-0.00045814894838258624
1761132119417785000,7.34378515625,-0.00038179077091626823,0,-0.00045814894838258624
1761132119427785200,7.35378515625,-0.00038179077091626823,-0.0012217304902151227,-0.00045814894838258624
1761132119437785000,7.36378515625,-0.00038179077091626823,-0.0006108652451075613,-0.00045814894838258624
1761132119447785000,7.373784912109375,0.00022907447419129312,-0.0006108652451075613,-0.00045814894838258624
1761132119457785000,7.38378515625,0.00022907447419129312,-0.0006108652451075613,0.0007635815418325365
1761132119467785000,7.393784912109375,-0.00038179077091626823,0,0.00015271631127689034
1761132119477785000,7.40378515625,-0.00038179077091626823,-0.0006108652451075613,-0.0010690141934901476
1761132119487785000,7.413784912109375,0.000839939690195024,0.0012217304902151227,0.00015271631127689034
1761132119497785000,7.42378515625,0.000839939690195024,0.0006108652451075613,-0.00045814894838258624
1761132119507785200,7.43378515625,0.00022907447419129312,-0.0006108652451075613,0.00015271631127689034
1761132119517785900,7.443785888671875,-0.00038179077091626823,0.0006108652451075613,-0.00045814894838258624
1761132119527786000,7.453785888671875,0.00022907447419129312,0,0.0007635815418325365
1761132119537785900,7.463785888671875,-0.0009926559869199991,0,-0.00045814894838258624
1761132119547786000,7.473785888671875,0.00022907447419129312,0.0006108652451075613,0.00015271631127689034
1761132119557785900,7.483785888671875,-0.0009926559869199991,0,-0.0010690141934901476
1761132119567786000,7.493785888671875,-0.00038179077091626823,-0.0006108652451075613,-0.0010690141934901476
1761132119577785900,7.503785888671875,0.0014508049935102463,0,-0.00045814894838258624
1761132119587786000,7.513785888671875,0.00022907447419129312,0.0006108652451075613,-0.00045814894838258624
1761132119597785900,7.523785888671875,0.000839939690195024,0,0.00015271631127689034
1761132119607786000,7.533785888671875,-0.0009926559869199991,0,-0.0010690141934901476
1761132119617785000,7.54378515625,0.00022907447419129312,-0.0006108652451075613,0.00015271631127689034
1761132119627785200,7.55378515625,-0.00038179077091626823,0,0.0007635815418325365
1761132119637785000,7.56378515625,-0.00038179077091626823,0,0.0007635815418325365
1761132119647785200,7.57378515625,-0.00038179077091626823,0,-0.00045814894838258624
1761132119657785000,7.58378515625,0.000839939690195024,-0.0012217304902151227,0.00015271631127689034
1761132119667785200,7.59378515625,-0.0009926559869199991,-0.0006108652451075613,0.0007635815418325365
1761132119677785000,7.60378515625,-0.00038179077091626823,0,-0.00045814894838258624
1761132119687785200,7.61378515625,0.00022907447419129312,0,0.0007635815418325365
1761132119697785000,7.62378515625,0.00022907447419129312,-0.0006108652451075613,0.00015271631127689034
1761132119707785200,7.63378515625,0.000839939690195024,-0.0006108652451075613,0.00015271631127689034
1761132119717785900,7.643785888671875,0.00022907447419129312,0.0006108652451075613,0.0007635815418325365
1761132119727786000,7.653785888671875,0.00022907447419129312,-0.0006108652451075613,0.0007635815418325365
1761132119737785900,7.663785888671875,-0.00038179077091626823,-0.0006108652451075613,0.0007635815418325365
1761132119747786000,7.673785888671875,0.000839939690195024,0,-0.00045814894838258624
1761132119757785900,7.683785888671875,0.00022907447419129312,0,0.0007635815418325365
1761132119767786000,7.693785888671875,-0.00038179077091626823,0,0.0007635815418325365
1761132119777785900,7.703785888671875,0.00022907447419129312,0,0.00015271631127689034
1761132119787786000,7.713785888671875,0.000839939690195024,0.0006108652451075613,0.0019853119738399982
1761132119797785900,7.723785888671875,-0.00038179077091626823,0.0006108652451075613,0.00015271631127689034
1761132119807786000,7.733785888671875,-0.00038179077091626823,0,0.00015271631127689034
1761132119817785000,7.74378515625,-0.00038179077091626823,-0.0006108652451075613,0.0007635815418325365
1761132119827785000,7.753784912109375,0.00022907447419129312,-0.0006108652451075613,0.00015271631127689034
1761132119837785000,7.76378515625,0.00022907447419129312,0,-0.00045814894838258624
1761132119847785000,7.773784912109375,-0.00038179077091626823,0,-0.0010690141934901476
1761132119857785000,7.78378515625,0.00022907447419129312,-0.0006108652451075613,-0.00045814894838258624
1761132119867785000,7.793784912109375,0.00022907447419129312,0,0.0007635815418325365
1761132119877785000,7.80378515625,-0.0016035212902352214,0.0006108652451075613,0.00015271631127689034
1761132119887785000,7.813784912109375,0.00022907447419129312,0.0006108652451075613,0.0007635815418325365
1761132119897785000,7.82378515625,0.00022907447419129312,-0.0006108652451075613,0.00015271631127689034
1761132119907785000,7.833784912109375,0.0014508049935102463,0.0006108652451075613,0.00015271631127689034
1761132119917785900,7.843785888671875,-0.0009926559869199991,0,0.0007635815418325365
1761132119927786000,7.853785888671875,-0.00038179077091626823,-0.0006108652451075613,0.00015271631127689034
1761132119937785900,7.863785888671875,-0.0009926559869199991,-0.0012217304902151227,-0.0010690141934901476
1761132119947786000,7.873785888671875,0.000839939690195024,-0.0006108652451075613,-0.00045814894838258624
1761132119957785900,7.883785888671875,0.000839939690195024,0,0.00015271631127689034
1761132119967786000,7.893785888671875,-0.00038179077091626823,-0.0006108652451075613,0.0007635815418325365
1761132119977785900,7.903785888671875,-0.00038179077091626823,0.0006108652451075613,0.0007635815418325365
1761132119987786000,7.913785888671875,-0.0009926559869199991,-0.0006108652451075613,0.00015271631127689034
1761132119997785900,7.923785888671875,-0.00038179077091626823,-0.0006108652451075613,-0.0010690141934901476
1761132120007786000,7.933785888671875,0.000839939690195024,-0.0006108652451075613,0.00015271631127689034
1761132120017785000,7.94378515625,0.000839939690195024,-0.0006108652451075613,-0.00045814894838258624
1761132120027785200,7.95378515625,-0.00038179077091626823,-0.0006108652451075613,-0.00045814894838258624
1761132120037785000,7.96378515625,-0.0009926559869199991,-0.0006108652451075613,-0.00045814894838258624
1761132120047785200,7.97378515625,-0.00038179077091626823,0,0.00015271631127689034
1761132120057785000,7.98378515625,0.000839939690195024,0.0006108652451075613,-0.00045814894838258624
1761132120067785000,7.993784912109375,-0.00038179077091626823,-0.0006108652451075613,0.00015271631127689034
1761132120077785000,8.00378515625,0.00022907447419129312,0.0012217304902151227,0.00015271631127689034
1761132120087785000,8.013784912109376,-0.00038179077091626823,0,0.00015271631127689034
1761132120097785000,8.02378515625,-0.0009926559869199991,-0.0006108652451075613,0.00015271631127689034
1761132120107785000,8.033784912109375,0.0014508049935102463,0,-0.00045814894838258624
1761132120117785900,8.043785888671875,0.00022907447419129312,0.0006108652451075613,-0.00045814894838258624
1761132120127786000,8.053785888671875,-0.0016035212902352214,-0.0006108652451075613,0.00015271631127689034
1761132120137785900,8.063785888671875,-0.00038179077091626823,0,0.00015271631127689034
1761132120147786000,8.073785888671875,-0.0009926559869199991,-0.0012217304902151227,-0.00045814894838258624
1761132120157785900,8.083785888671875,0.000839939690195024,0.0006108652451075613,0.0007635815418325365
1761132120167786000,8.093785888671874,0.000839939690195024,0,0.0007635815418325365
1761132120177785900,8.103785888671876,0.00022907447419129312,-0.0006108652451075613,0.00015271631127689034
1761132120187786000,8.113785888671876,0.00022907447419129312,0,-0.0010690141934901476
1761132120197785900,8.123785888671875,-0.00038179077091626823,-0.0006108652451075613,-0.0010690141934901476
1761132120207786000,8.133785888671875,0.000839939690195024,0.0006108652451075613,0.00015271631127689034
1761132120217785000,8.14378515625,-0.00038179077091626823,-0.0006108652451075613,-0.00045814894838258624
1761132120227785200,8.15378515625,0.00022907447419129312,-0.0006108652451075613,-0.00045814894838258624
1761132120237785000,8.16378515625,0.000839939690195024,0.0006108652451075613,-0.00045814894838258624
1761132120247785200,8.17378515625,0.000839939690195024,0,0.00015271631127689034
1761132120257785000,8.18378515625,-0.0009926559869199991,-0.0012217304902151227,0.00015271631127689034
1761132120267785200,8.19378515625,-0.00038179077091626823,-0.0006108652451075613,0.00015271631127689034
1761132120277785000,8.20378515625,-0.00038179077091626823,0,0.00015271631127689034
1761132120287785200,8.21378515625,-0.0016035212902352214,-0.0006108652451075613,-0.00045814894838258624
1761132120297785000,8.22378515625,0.00022907447419129312,0,-0.0010690141934901476
1761132120307785200,8.23378515625,0.00022907447419129312,0.0006108652451075613,-0.00045814894838258624
1761132120317785900,8.243785888671875,-0.00038179077091626823,0.0012217304902151227,0.0007635815418325365
1761132120327786000,8.253785888671874,-0.00038179077091626823,-0.0006108652451075613,0.0007635815418325365
1761132120337785900,8.263785888671874,-0.00038179077091626823,-0.0006108652451075613,-0.00045814894838258624
1761132120347786000,8.273785888671876,0.00022907447419129312,0,-0.00045814894838258624
1761132120357785900,8.283785888671876,-0.00038179077091626823,-0.0006108652451075613,0.00015271631127689034
1761132120367786000,8.293785888671875,0.00022907447419129312,0,0.0007635815418325365
1761132120377785900,8.303785888671875,0.0014508049935102463,0,0.00015271631127689034
1761132120387786000,8.313785888671875,-0.00038179077091626823,0.0006108652451075613,-0.00045814894838258624
1761132120397785900,8.323785888671875,-0.00038179077091626823,0.0006108652451075613,-0.00045814894838258624
1761132120407786000,8.333785888671875,0.000839939690195024,0,0.00015271631127689034
1761132120417785000,8.34378515625,-0.00038179077091626823,0,-0.00045814894838258624
1761132120427785200,8.35378515625,-0.00038179077091626823,-0.0006108652451075613,0.00015271631127689034
1761132120437785000,8.36378515625,0.00022907447419129312,-0.0006108652451075613,0.00015271631127689034
1761132120447785000,8.373784912109375,-0.00038179077091626823,0,0.00015271631127689034
1761132120457785000,8.38378515625,-0.00038179077091626823,0.0006108652451075613,-0.0010690141934901476
1761132120467785000,8.393784912109375,-0.0016035212902352214,-0.0006108652451075613,-0.00045814894838258624
1761132120477785000,8.40378515625,0.00022907447419129312,-0.0006108652451075613,-0.00045814894838258624
1761132120487785000,8.413784912109374,0.00022907447419129312,0.0006108652451075613,-0.00045814894838258624
1761132120497785000,8.42378515625,0.00022907447419129312,0.0006108652451075613,0.0007635815418325365
1761132120507785200,8.43378515625,0.000839939690195024,0.0006108652451075613,0.0013744467869400978
1761132120517785900,8.443785888671876,0.00022907447419129312,-0.0006108652451075613,-0.0010690141934901476
1761132120527786000,8.453785888671876,-0.00038179077091626823,0,0.00015271631127689034
1761132120537785900,8.463785888671875,-0.0009926559869199991,0.0006108652451075613,0.00015271631127689034
1761132120547786000,8.473785888671875,-0.00038179077091626823,0.0006108652451075613,0.00015271631127689034
1761132120557785900,8.483785888671875,-0.0009926559869199991,-0.0006108652451075613,-0.00045814894838258624
1761132120567786000,8.493785888671875,0.00022907447419129312,0,-0.00045814894838258624
1761132120577785900,8.503785888671874,-0.00038179077091626823,-0.0006108652451075613,0.0007635815418325365
1761132120587786000,8.513785888671874,0.000839939690195024,0,0.0007635815418325365
1761132120597785900,8.523785888671876,0.00022907447419129312,0.0006108652451075613,0.00015271631127689034
1761132120607786000,8.533785888671876,0.000839939690195024,-0.0012217304902151227,0.00015271631127689034
1761132120617785000,8.54378515625,0.000839939690195024,-0.0012217304902151227,-0.0010690141934901476
1761132120627785000,8.553784912109375,-0.0009926559869199991,-0.0012217304902151227,0.0007635815418325365
1761132120637785000,8.56378515625,0.00022907447419129312,-0.0006108652451075613,-0.00045814894838258624
1761132120647785000,8.573784912109375,-0.00038179077091626823,-0.0006108652451075613,-0.0010690141934901476
1761132120657785000,8.58378515625,0.0020616701804101467,0.0012217304902151227,0.0007635815418325365
1761132120667785000,8.593784912109374,0.00022907447419129312,0,-0.00045814894838258624
1761132120677785000,8.60378515625,0.00022907447419129312,-0.0006108652451075613,-0.00045814894838258624
1761132120687785000,8.613784912109375,0.00022907447419129312,0,-0.0010690141934901476
1761132120697785000,8.62378515625,0.00022907447419129312,0.0006108652451075613,-0.0010690141934901476
1761132120707785000,8.633784912109375,-0.0016035212902352214,-0.0006108652451075613,-0.00045814894838258624
1761132120717785900,8.643785888671875,0.000839939690195024,0,-0.001679879380390048
1761132120727786000,8.653785888671875,0.00022907447419129312,0,-0.0010690141934901476
1761132120737785900,8.663785888671875,-0.00038179077091626823,0,-0.0010690141934901476
1761132120747786000,8.673785888671874,-0.00038179077091626823,0.0006108652451075613,-0.0010690141934901476
1761132120757785900,8.683785888671874,0.00022907447419129312,0,0.0007635815418325365
1761132120767786000,8.693785888671876,-0.0016035212902352214,0,0.0007635815418325365
1761132120777785900,8.703785888671876,0.000839939690195024,0.0006108652451075613,0.0007635815418325365
1761132120787786000,8.713785888671875,-0.00038179077091626823,-0.0006108652451075613,0.00015271631127689034
1761132120797785900,8.723785888671875,-0.00038179077091626823,-0.0006108652451075613,-0.00045814894838258624
1761132120807786000,8.733785888671875,0.00022907447419129312,0.0006108652451075613,-0.0010690141934901476
1761132120817785000,8.74378515625,0.00022907447419129312,0,0.0007635815418325365
1761132120827785000,8.753784912109374,0.000839939690195024,-0.0006108652451075613,0.0007635815418325365
1761132120837785000,8.76378515625,0.00022907447419129312,0.0006108652451075613,-0.00045814894838258624
1761132120847785000,8.773784912109376,-0.00038179077091626823,0,0.00015271631127689034
1761132120857785000,8.78378515625,-0.00038179077091626823,0.0006108652451075613,0.0007635815418325365
1761132120867785000,8.793784912109375,-0.0009926559869199991,-0.0012217304902151227,0.00015271631127689034
1761132120877785000,8.80378515625,-0.00038179077091626823,0.0006108652451075613,-0.00045814894838258624
1761132120887785000,8.813784912109375,-0.0016035212902352214,-0.0006108652451075613,0.00015271631127689034
1761132120897785000,8.82378515625,0.000839939690195024,-0.0006108652451075613,0.0007635815418325365
1761132120907785000,8.833784912109374,-0.0009926559869199991,-0.0012217304902151227,0.00015271631127689034
1761132120917785900,8.843785888671874,0.000839939690195024,0,0.0007635815418325365
1761132120927786000,8.853785888671876,0.00022907447419129312,0,0.00015271631127689034
1761132120937785900,8.863785888671876,0.0014508049935102463,0.0006108652451075613,0.0007635815418325365
1761132120947786000,8.873785888671875,0.00022907447419129312,-0.0006108652451075613,0.0007635815418325365
1761132120957785900,8.883785888671875,-0.00038179077091626823,-0.0012217304902151227,-0.0010690141934901476
1761132120967786000,8.893785888671875,0.00022907447419129312,-0.0006108652451075613,0.0007635815418325365
1761132120977785900,8.903785888671875,-0.00038179077091626823,-0.0012217304902151227,0.00015271631127689034
1761132120987786000,8.913785888671875,-0.0016035212902352214,-0.0006108652451075613,0.0007635815418325365
1761132120997785900,8.923785888671874,-0.00038179077091626823,0,0.00015271631127689034
1761132121007786000,8.933785888671874,0.00022907447419129312,-0.0006108652451075613,0.0007635815418325365
1761132121017785000,8.94378515625,0.00022907447419129312,0,0.00015271631127689034
1761132121027785200,8.95378515625,0.00022907447419129312,-0.0006108652451075613,0.0007635815418325365
1761132121037785000,8.96378515625,-0.0009926559869199991,0.0006108652451075613,0.00015271631127689034
1761132121047785200,8.97378515625,-0.00038179077091626823,0.0006108652451075613,0.00015271631127689034
1761132121057785000,8.98378515625,-0.0009926559869199991,0.0006108652451075613,0.00015271631127689034
1761132121067785000,8.993784912109374,-0.0022143865935504436,0.10384709388017654,0.04230241850018501
1761132121077785000,9.00378515625,-0.00038179077091626823,0.06963863968849182,0.032528575509786606
1761132121087785000,9.013784912109376,0.00022907447419129312,0.0354301854968071,0.014813481830060482
1761132121097785000,9.02378515625,0.00022907447419129312,-0.009162978269159794,-0.004123340360820293
1761132121107785000,9.033784912109375,0.00022907447419129312,-0.009162978269159794,-0.004734205547720194
1761132121117785900,9.043785888671875,0.0020616701804101467,-0.010995574295520782,-0.005955935921519995
1761132121127786000,9.053785888671875,0.000839939690195024,-0.02687807008624077,-0.013897184282541275
1761132121137785900,9.063785888671875,0.0014508049935102463,-0.05253441259264946,-0.023060163483023643
1761132121147786000,9.073785888671875,0.000839939690195024,-0.051312681287527084,-0.019394971430301666
1761132121157785900,9.083785888671875,0.000839939690195024,-0.021380282938480377,-0.007177666760981083
