time,seconds_elapsed,z,y,x
1761132288761940700,0.074940673828125,-0.6928738951683044,-0.08926268666982651,-0.36651915311813354
1761132288795429000,0.10842919921875,-0.6928738951683044,-0.08926268666982651,-0.36651915311813354
1761132288805420500,0.118420654296875,-0.6928738951683044,-0.08926268666982651,-0.36651915311813354
1761132288815420700,0.128420654296875,-0.2915354371070862,-0.17172949016094208,-0.911410927772522
1761132288825420500,0.138420654296875,-0.09666942805051804,0.2986367344856262,-0.8594874143600464
1761132288835420700,0.148420654296875,-0.030695978552103043,0.563141405582428,-0.7318165898323059
1761132288845420500,0.158420654296875,-0.12110403180122375,0.705473005771637,-0.5589417219161987
1761132288855420700,0.168420654296875,-0.2793181240558624,0.847193717956543,-0.3072652220726013
1761132288865420500,0.178420654296875,-0.4528038501739502,0.8178722262382507,-0.007941247895359993
1761132288875420700,0.188420654296875,-0.6152940392494202,0.6046802401542664,0.2816088795661926
1761132288885420500,0.198420654296875,-0.707534670829773,0.5319872498512268,0.5729916095733643
1761132288895420700,0.208420654296875,-0.7331910133361816,0.6779840588569641,0.8387179970741272
1761132288905420500,0.218420654296875,-0.7472409009933472,0.886289119720459,1.007927656173706
1761132288915420700,0.228420654296875,-0.8052731156349182,0.9669232964515686,1.0708467960357666
1761132288925420500,0.238420654296875,-0.916450560092926,0.8899543285369873,1.0299187898635864
1761132288935420700,0.248420654296875,-1.0367910861968994,0.7354053854942322,0.9340129494667053
1761132288945420500,0.258420654296875,-1.1381946802139282,0.5271003246307373,0.8491026759147644
1761132288955420700,0.268420654296875,-1.2206615209579468,0.22044599056243896,0.8014551997184753
1761132288965419300,0.278419189453125,-1.211498498916626,-0.05322163552045822,0.8106181621551514
1761132288975419400,0.28841943359375,-0.8321511745452881,0.04329507425427437,0.6346889734268188
1761132288985419500,0.29841943359375,-0.3856086730957031,0.23999367654323578,0.4153883755207062
1761132288995419400,0.30841943359375,0.13179416954517365,0.491670161485672,0.43127086758613586
1761132289005418200,0.318418212890625,0.4262312352657318,0.4959462285041809,0.5057964324951172
1761132289015418000,0.328418212890625,0.6430884003639221,0.3701079785823822,0.6102544069290161
1761132289025418200,0.338418212890625,0.8061894178390503,0.36827537417411804,0.749531626701355
1761132289035418000,0.348418212890625,0.9418014883995056,0.12392928451299667,0.7965682744979858
1761132289045418200,0.358418212890625,1.1104003190994263,-0.4374558627605438,0.7464773058891296
1761132289055418000,0.368418212890625,1.1898127794265747,-0.9237046241760254,0.6872233748435974
1761132289065418200,0.378418212890625,1.0560332536697388,-1.0825295448303223,0.7024950385093689
1761132289075418000,0.388418212890625,0.6925684809684753,-1.0556515455245972,0.8356636762619019
1761132289085418200,0.398418212890625,0.3321579694747925,-1.1594985723495483,1.0824532508850098
1761132289095418000,0.408418212890625,0.06154467165470123,-1.2370784282684326,1.4257594347000122
1761132289105419000,0.4184189453125,-0.2591595947742462,-1.1839332580566406,1.7660114765167236
1761132289115419100,0.428419189453125,-0.6501133441925049,-1.1827114820480347,1.9113973379135132
1761132289125419000,0.4384189453125,-0.8901833891868591,-1.4576008319854736,1.6890424489974976
1761132289135419100,0.448419189453125,-0.9818131923675537,-1.6738470792770386,1.2290608882904053
1761132289145419000,0.4584189453125,-0.9622654914855957,-1.499139666557312,0.8112290501594543
1761132289155419100,0.468419189453125,-0.813825249671936,-1.0568732023239136,0.5082398653030396
1761132289165419000,0.4784189453125,-0.6189591884613037,-0.5736788511276245,0.26083946228027344
1761132289175419100,0.488419189453125,-0.4271475374698639,-0.08132143318653107,0.06291911751031876
1761132289185419000,0.4984189453125,-0.26221391558647156,0.33162346482276917,-0.07757988572120667
1761132289195419100,0.508419189453125,-0.13759739696979523,0.6822600960731506,-0.13866640627384186
1761132289205418200,0.518418212890625,0.05726861581206322,0.9962448477745056,-0.18325957655906677
1761132289215418000,0.528418212890625,0.16600263118743896,1.2069933414459229,-0.22052235901355743
1761132289225418200,0.538418212890625,0.17027868330478668,1.44461989402771,-0.2382374405860901
1761132289235418400,0.54841845703125,0.0328340083360672,1.5264759063720703,-0.26083946228027344
1761132289245418200,0.558418212890625,-0.15286903083324432,1.4611133337020874,-0.29016098380088806
1761132289255418400,0.56841845703125,-0.2744311988353729,1.295568823814392,-0.2877175211906433
1761132289265419000,0.5784189453125,-0.3312416672706604,1.14468514919281,-0.26083946228027344
1761132289275419100,0.588419189453125,-0.3617849349975586,1.1397981643676758,-0.2217440903186798
1761132289285419000,0.5984189453125,-0.34956762194633484,1.267469048500061,-0.1062905490398407
1761132289295419100,0.608419189453125,-0.3251330256462097,1.390252947807312,0.06169738993048668
1761132289305420000,0.618419921875,-0.342237263917923,1.4886022806167603,0.25473082065582275
1761132289315420000,0.628419921875,-0.3904955983161926,1.4513394832611084,0.4202753007411957
1761132289325420000,0.638419921875,-0.4356996417045593,1.3590987920761108,0.5748242139816284
1761132289335420000,0.648419921875,-0.4509712755680084,1.2357040643692017,0.6896668672561646
1761132289345420000,0.658419921875,-0.42470407485961914,0.9522625803947449,0.7764097452163696
1761132289355420000,0.668419921875,-0.43447789549827576,0.6834818720817566,0.8649851679801941
1761132289365420000,0.678419921875,-0.4222606122493744,0.5014439821243286,0.9492846131324768
1761132289375420000,0.688419921875,-0.40943244099617004,0.13064880669116974,0.988990843296051
1761132289385420000,0.698419921875,-0.4466952085494995,-0.28290697932243347,0.9749409556388855
1761132289395420000,0.708419921875,-0.44486260414123535,-0.6017786264419556,0.941343367099762
1761132289405419300,0.718419189453125,-0.4179845452308655,-0.7874816656112671,0.8454375267028809
1761132289415419100,0.728419189453125,-0.39354994893074036,-0.8345182538032532,0.6805039048194885
1761132289425419300,0.738419189453125,-0.34345898032188416,-0.6799693703651428,0.4740314185619354
1761132289435419100,0.748419189453125,-0.38438695669174194,-0.2914590835571289,0.0659734457731247
1761132289445419300,0.758419189453125,-0.5389358401298523,-0.12896892428398132,-0.2376265823841095
1761132289455419100,0.768419189453125,-0.6214026808738708,0.28092166781425476,-0.513126790523529
1761132289465419300,0.778419189453125,-0.6702718734741211,0.7421249151229858,-0.8875871896743774
1761132289475419100,0.788419189453125,-0.7331910133361816,0.979751467704773,-1.4947872161865234
1761132289485419300,0.798419189453125,-0.6733261942863464,0.9968557357788086,-2.2241604328155518
1761132289495419100,0.808419189453125,-0.4674646258354187,1.0524444580078125,-2.9407052993774414
1761132289505420000,0.818419921875,-0.17180584371089935,1.0609965324401855,-3.6413676738739014
1761132289515420200,0.828420166015625,0.03527746722102165,0.9742537140846252,-4.229020118713379
1761132289525420000,0.838419921875,0.2704605758190155,1.5234215259552002,-4.821559429168701
1761132289535420200,0.848420166015625,0.4170682430267334,1.2412018775939941,-5.489234924316406
1761132289545420000,0.858419921875,0.6131559610366821,0.12942707538604736,-6.090326309204102
1761132289555420200,0.868420166015625,0.7805330753326416,-1.2334133386611938,-6.625444412231445
1761132289565420000,0.878419921875,0.8086328506469727,-2.0819051265716553,-6.56680154800415
1761132289575420200,0.888420166015625,0.8538368940353394,-1.7514270544052124,-5.629734039306641
1761132289585420000,0.898419921875,0.38347065448760986,-0.9395871162414551,-4.139833927154541
1761132289595420000,0.908419921875,-0.6152940392494202,0.03474296256899834,-2.353663682937622
1761132289605419300,0.918419189453125,-1.277471899986267,0.1483639031648636,-0.8918632864952087
1761132289615419100,0.928419189453125,-1.2328788042068481,-0.07704538106918335,-0.014049900695681572
1761132289625419300,0.938419189453125,-0.8681922554969788,-0.672639012336731,0.4911356568336487
1761132289635419100,0.948419189453125,-0.40943244099617004,-0.739223301410675,0.8100073337554932
1761132289645419300,0.958419189453125,-0.06612616032361984,-0.6365979313850403,0.9224064946174622
1761132289655419100,0.968419189453125,0.05726861581206322,-0.6543130278587341,0.8484918475151062
1761132289665419300,0.978419189453125,-0.10522153973579407,-0.5070945024490356,0.8704829812049866
1761132289675419100,0.988419189453125,-0.35750889778137207,-0.3513238728046417,1.0219775438308716
1761132289685419300,0.998419189453125,-0.5682573914527893,-0.17905987799167633,1.1484266519546509
1761132289695419100,1.008419189453125,-0.6995934247970581,0.0029779679607599974,1.284038782119751
1761132289705420000,1.018419921875,-0.8437576293945312,0.1172097697854042,1.3738359212875366
1761132289715420000,1.028419921875,-0.9702067375183105,0.026801712810993195,1.3585642576217651
1761132289725420000,1.038419921875,-1.0758863687515259,-0.3128393590450287,1.2455542087554932
1761132289735420000,1.048419921875,-1.1192578077316284,-0.9823476672172546,1.1911872625350952
1761132289745420000,1.058419921875,-1.0367910861968994,-1.6237561702728271,1.1527026891708374
1761132289755420000,1.068419921875,-0.9140071272850037,-2.084348678588867,1.1191051006317139
1761132289765420000,1.078419921875,-0.8260425329208374,-2.5406649112701416,1.0561859607696533
1761132289775420000,1.088419921875,-0.7692320346832275,-2.9450576305389404,0.9657779335975647
1761132289785420000,1.098419921875,-0.716697633266449,-3.0544025897979736,0.8527678847312927
1761132289795420000,1.108419921875,-0.6739370822906494,-2.7611873149871826,0.7189884185791016
1761132289805419000,1.1184189453125,-0.6403394937515259,-2.3286945819854736,0.5619960427284241
1761132289815419100,1.128419189453125,-0.5975789427757263,-1.9340757131576538,0.38240164518356323
1761132289825419000,1.1384189453125,-0.5346598029136658,-1.5535067319869995,0.18325957655906677
1761132289835419100,1.148419189453125,-0.47479501366615295,-1.1326205730438232,-0.021991148591041565
1761132289845419000,1.1584189453125,-0.45524731278419495,-0.7569383978843689,-0.24190263450145721
1761132289855419100,1.168419189453125,-0.5065600275993347,-0.4350124001502991,-0.48685958981513977
1761132289865419000,1.1784189453125,-0.6433938145637512,-0.12591460347175598,-0.7367035150527954
1761132289875419100,1.188419189453125,-0.8003861904144287,0.19478964805603027,-0.9230173826217651
1761132289885419000,1.1984189453125,-0.8962920308113098,0.45929431915283203,-1.0519099235534668
1761132289895419100,1.208419189453125,-0.9097310900688171,0.8453611135482788,-1.1191051006317139
1761132289905420000,1.218419921875,-0.8229882121086121,1.2986232042312622,-1.0134254693984985
1761132289915420000,1.228419921875,-0.6659958362579346,1.7463873624801636,-0.817948579788208
1761132289925420000,1.238419921875,-0.483957976102829,1.958357572555542,-0.608421802520752
1761132289935420000,1.248419921875,-0.35934147238731384,1.894216775894165,-0.3995058834552765
1761132289945420000,1.258419921875,-0.27870726585388184,1.6394859552383423,-0.1771509200334549
1761132289955420000,1.268419921875,-0.22739458084106445,1.2552517652511597,0.04764748737215996
1761132289965420000,1.278419921875,-0.1846340149641037,0.6999751925468445,0.24129177629947662
1761132289975420000,1.288419921875,-0.1498146951198578,0.06528622657060623,0.42699480056762695
1761132289985420000,1.298419921875,-0.1547016203403473,-0.500374972820282,0.617584764957428
1761132289995420000,1.308419921875,-0.23716843128204346,-0.9817367792129517,0.8014551997184753
1761132290005419000,1.3184189453125,-0.3715587854385376,-1.425225019454956,1.0054842233657837
1761132290015419100,1.328419189453125,-0.5132794976234436,-1.813124418258667,1.2443325519561768
1761132290025419000,1.3384189453125,-0.6769914031028748,-2.097787618637085,1.482569932937622
1761132290035419000,1.3484189453125,-1.097266674041748,-1.8955912590026855,1.843591332435608
1761132290045418800,1.358418701171875,-1.5279266834259033,-1.4655420780181885,2.222327709197998
1761132290055419000,1.3684189453125,-1.7386752367019653,-1.1259009838104248,2.3768765926361084
1761132290065418800,1.378418701171875,-1.679421305656433,-1.5431219339370728,2.595566511154175
1761132290075418600,1.388418701171875,-1.4735597372055054,-1.899867296218872,2.844188690185547
1761132290085418800,1.398418701171875,-1.316567301750183,-1.5412893295288086,3.1086931228637695
1761132290095418600,1.408418701171875,-1.1015427112579346,-1.3348169326782227,3.123964786529541
1761132290105419500,1.41841943359375,-0.4973970353603363,-2.4032201766967773,2.5613579750061035
1761132290115419600,1.428419677734375,0.20876319706439972,-2.9499447345733643,1.9645426273345947
1761132290125419500,1.43841943359375,0.5917757153511047,-2.2199606895446777,1.3561208248138428
1761132290135419600,1.448419677734375,0.45494189858436584,-1.4392749071121216,0.8955284357070923
1761132290145419800,1.458419677734375,0.266184538602829,-0.35010215640068054,0.48808133602142334
1761132290155437800,1.468437744140625,0.18555031716823578,0.6889796257019043,0.28527405858039856
1761132290165438200,1.478438232421875,0.10980302840471268,1.4330135583877563,0.2223549485206604
1761132290175438000,1.48843798828125,-0.020922135561704636,1.968131422996521,0.19608774781227112
1761132290185438000,1.49843798828125,-0.19624045491218567,2.2112557888031006,0.0959058403968811
1761132290195438000,1.50843798828125,-0.31413745880126953,2.221029758453369,-0.08918632566928864
1761132290205437200,1.518437255859375,-0.3770565688610077,2.16727352142334,-0.31031954288482666
1761132290215437300,1.528437255859375,-0.44180828332901,2.1965949535369873,-0.5094616413116455
1761132290225437200,1.538437255859375,-0.46379944682121277,2.24302077293396,-0.665232241153717
1761132290235437300,1.548437255859375,-0.37461310625076294,2.1831560134887695,-0.7385360598564148
1761132290245437200,1.558437255859375,-0.2255619913339615,1.9094884395599365,-0.7012733221054077
1761132290255436800,1.568436767578125,-0.10399980843067169,1.5417475700378418,-0.5723807215690613
1761132290265437000,1.57843701171875,-0.02825251780450344,1.2460887432098389,-0.4178318381309509
1761132290275436800,1.588436767578125,0.05726861581206322,1.0732139348983765,-0.3182607889175415
1761132290285437000,1.59843701171875,0.16111570596694946,0.9699776768684387,-0.31581732630729675
1761132290295436800,1.608436767578125,0.2515237629413605,0.9107237458229065,-0.36713001132011414
1761132290305437700,1.618437744140625,0.3413209617137909,0.8453611135482788,-0.44837507605552673
1761132290315437800,1.628437744140625,0.4329507350921631,0.7696138620376587,-0.523511528968811
1761132290325437700,1.638437744140625,0.3871358633041382,0.6321691870689392,-0.6340781450271606
1761132290335438000,1.64843798828125,0.35781431198120117,0.5069417953491211,-0.637132465839386
1761132290345438000,1.65843798828125,0.37308594584465027,0.3548363447189331,-0.6053674817085266
1761132290355438000,1.66843798828125,0.38347065448760986,0.1373683214187622,-0.5595525503158569
1761132290365437700,1.678437744140625,0.3010038435459137,0.053068917244672775,-0.5595525503158569
1761132290375437800,1.688437744140625,0.20387627184391022,0.06284276396036148,-0.5748242139816284
1761132290385437700,1.698437744140625,0.13057245314121246,0.14347697794437408,-0.6346889734268188
1761132290395437800,1.708437744140625,0.05421429127454758,0.2338850349187851,-0.7715228199958801
1761132290405437000,1.71843701171875,-0.04352414980530739,0.2906954884529114,-0.9560040831565857
1761132290415436800,1.728436767578125,-0.1443169116973877,0.3132975101470947,-1.1355985403060913
1761132290435436800,1.748436767578125,-0.2945897579193115,0.24488060176372528,-1.3103059530258179
1761132290445436700,1.758436767578125,-0.31291571259498596,0.2387719452381134,-1.263269305229187
1761132290455436500,1.7684365234375,-0.2909245789051056,0.2137264758348465,-1.178359031677246
1761132290465436400,1.7784365234375,-0.21212296187877655,0.21616993844509125,-1.0592403411865234
1761132290475436300,1.788436279296875,-0.09605856239795685,0.21067215502262115,-0.9272934198379517
1761132290485436400,1.7984365234375,0.02733621932566166,0.1935679316520691,-0.7654141783714294
1761132290495436300,1.808436279296875,0.1488984078168869,0.17096590995788574,-0.5320636034011841
1761132290505437200,1.818437255859375,0.275347501039505,0.19051359593868256,-0.23640485107898712
1761132290515437300,1.828437255859375,0.40912699699401855,0.26565003395080566,0.06536258012056351
1761132290525437200,1.838437255859375,0.5337435007095337,0.36766451597213745,0.3219259977340698
1761132290535437300,1.848437255859375,0.6204863786697388,0.4464661478996277,0.503963828086853
1761132290545437200,1.858437255859375,0.6327036619186401,0.38171443343162537,0.6236934065818787
1761132290555437600,1.8684375,0.5765040516853333,0.18440493941307068,0.7617489695549011
1761132290565437700,1.878437744140625,0.4488332271575928,-0.026343563571572304,0.9517280459403992
1761132290575437600,1.8884375,0.13545936346054077,-0.2205987125635147,1.1172724962234497
1761132290585437700,1.898437744140625,-0.3874412775039673,-0.5351943373680115,1.0934487581253052
1761132290595437600,1.9084375,-0.7099781036376953,-0.8302422165870667,0.7855727076530457
1761132290605436700,1.918436767578125,-0.9152288436889648,-0.9646325707435608,0.28038713335990906
1761132290615436800,1.928436767578125,-0.8211556077003479,-0.8125271201133728,-0.2021963894367218
1761132290625436700,1.938436767578125,-0.4356996417045593,-0.5443572998046875,-0.37629300355911255
1761132290635436800,1.948436767578125,0.06948592513799667,-0.35010215640068054,-0.0861319974064827
1761132290645436700,1.958436767578125,0.5765040516853333,-0.368428111076355,0.6310238242149353
1761132290655436800,1.968436767578125,1.1397218704223633,-0.5669593214988708,1.5192219018936157
1761132290665437200,1.978437255859375,1.7176003456115723,-0.9023243188858032,2.308459758758545
1761132290675437000,1.98843701171875,2.1305453777313232,-1.1814897060394287,2.9486465454101562
1761132290685437200,1.998437255859375,2.300365686416626,-1.3610841035842896,3.3316590785980225
1761132290695437000,2.00843701171875,2.2710442543029785,-1.471039891242981,3.369532585144043
1761132290705438000,2.01843798828125,2.068237066268921,-1.5144113302230835,3.0549371242523193
1761132290715437800,2.028437744140625,1.6986634731292725,-1.4111751317977905,2.499049663543701
1761132290725438000,2.03843798828125,1.241125464439392,-1.2022591829299927,1.8197675943374634
1761132290735438000,2.04843798828125,0.7835873961448669,-0.9200394153594971,1.122159481048584
1761132290745438000,2.05843798828125,0.39385536313056946,-0.6872997879981995,0.5051855444908142
1761132290755438000,2.06843798828125,0.11835514008998871,-0.5333617329597473,-0.003054326167330146
1761132290765438000,2.07843798828125,-0.08811730891466141,-0.5522985458374023,-0.384845107793808
1761132290775437800,2.088437744140625,-0.2616030275821686,-0.6879106163978577,-0.6340781450271606
1761132290785438000,2.09843798828125,-0.432645320892334,-0.8540659546852112,-0.7250970602035522
1761132290795437800,2.108437744140625,-0.5926920175552368,-1.0464885234832764,-0.6774495840072632
1761132290805437200,2.118437255859375,-0.7515169382095337,-1.2431871891021729,-0.588874101638794
1761132290815437000,2.12843701171875,-0.9286679029464722,-1.3201560974121094,-0.5100724697113037
1761132290825437200,2.138437255859375,-1.2206615209579468,-1.1167380809783936,-0.44654250144958496
1761132290835437000,2.14843701171875,-1.306793451309204,-0.8894961476325989,-0.4001167416572571
1761132290845437200,2.158437255859375,-1.30801522731781,-0.7813730239868164,-0.16249015927314758
1761132290855437000,2.16843701171875,-1.2139419317245483,-0.8974373936653137,0.20891591906547546
1761132290865437200,2.178437255859375,-1.011745572090149,-1.0110583305358887,0.6120869517326355
1761132290875437000,2.18843701171875,-0.7680103182792664,-1.0910817384719849,1.0042624473571777
1761132290885437200,2.198437255859375,-0.613461434841156,-1.0855839252471924,1.2705997228622437
1761132290895437000,2.20843701171875,-0.535881519317627,-0.9438631534576416,1.341460108757019
1761132290905438000,2.21843798828125,-0.4918992519378662,-0.6268240809440613,1.236391305923462
1761132290915437800,2.228437744140625,-0.5248859524726868,-0.17905987799167633,0.9718865752220154
1761132290925438000,2.23843798828125,-0.6214026808738708,0.34139731526374817,0.5723807215690613
1761132290935437800,2.248437744140625,-0.7820602059364319,0.8807913064956665,0.13316862285137177
1761132290945438000,2.25843798828125,-0.9793696999549866,1.3340532779693604,-0.2535090744495392
1761132290955437800,2.268437744140625,-1.1791226863861084,1.5600734949111938,-0.5516113042831421
1761132290965438000,2.27843798828125,-1.3739886283874512,1.5973362922668457,-0.7336491346359253
1761132290975438000,2.28843798828125,-1.5309810638427734,1.503262996673584,-0.8185594081878662
1761132290985438000,2.29843798828125,-1.6226108074188232,1.3419946432113647,-0.8442157506942749
1761132290995438000,2.30843798828125,-1.6531540155410767,1.1788935661315918,-0.816726803779602
1761132291005437000,2.31843701171875,-1.6458237171173096,1.0261772871017456,-0.7654141783714294
1761132291015437000,2.32843701171875,-1.6201673746109009,0.905225932598114,-0.7073819637298584
1761132291025437000,2.33843701171875,-1.5767959356307983,0.8245916962623596,-0.6633996367454529
1761132291035437000,2.34843701171875,-1.5712981224060059,0.7934376001358032,-0.6762278079986572
1761132291045437000,2.35843701171875,-1.6018413305282593,0.8197047710418701,-0.7623597979545593
1761132291055437000,2.36843701171875,-1.6409367322921753,0.9449321627616882,-0.9896016716957092
1761132291065437000,2.37843701171875,-1.6067283153533936,1.000520944595337,-1.1239920854568481
1761132291075437000,2.38843701171875,-1.479668378829956,0.9540951251983643,-1.224173903465271
1761132291085437000,2.39843701171875,-1.3287845849990845,0.7751116156578064,-1.303586483001709
1761132291095437000,2.40843701171875,-1.155909776687622,0.4910593032836914,-1.299310326576233
1761132291105438000,2.41843798828125,-0.9518807530403137,0.14592044055461884,-1.1942415237426758
1761132291115437800,2.428437744140625,-0.7063129544258118,-0.08071056753396988,-0.9156870245933533
1761132291125438000,2.43843798828125,-0.44058656692504883,-0.064217209815979,-0.4691445231437683
1761132291135437800,2.448437744140625,-0.17608191072940826,-0.1399645060300827,-0.13377949595451355
1761132291145438000,2.45843798828125,0.09392052888870239,-0.467999130487442,-0.0507018156349659
1761132291155437800,2.468437744140625,0.3217732608318329,-0.9927324056625366,-0.1765400618314743
1761132291165438000,2.47843798828125,0.46043968200683594,-1.5309046506881714,-0.4331034719944
1761132291175437800,2.488437744140625,0.5355761051177979,-1.9817231893539429,-0.7116580009460449
1761132291185438000,2.49843798828125,0.6485861539840698,-2.4594197273254395,-1.0629055500030518
1761132291195437800,2.508437744140625,0.8947648406028748,-3.0849459171295166,-1.4019356966018677
1761132291205437000,2.51843701171875,1.1800389289855957,-3.6432766914367676,-1.4245377779006958
1761132291215437000,2.52843701171875,1.327257513999939,-3.800879955291748,-0.8319984674453735
1761132291225437000,2.53843701171875,1.2429580688476562,-3.409926176071167,0.1722639948129654
1761132291235437000,2.54843701171875,0.9686795473098755,-2.5119543075561523,0.8729264140129089
1761132291245437000,2.55843701171875,0.5881105065345764,-1.4484378099441528,0.8802568316459656
1761132291255437000,2.56843701171875,0.16233743727207184,-0.520533561706543,0.3439171314239502
1761132291265437000,2.57843701171875,-0.290313720703125,0.16913332045078278,-0.3390302062034607
1761132291275437000,2.58843701171875,-0.764955997467041,0.5497023463249207,-0.9297369122505188
1761132291285437000,2.59843701171875,-1.2860240936279297,0.6132323741912842,-1.4007140398025513
1761132291295437000,2.60843701171875,-1.4265230894088745,0.5167156457901001,-1.4031574726104736
1761132291305438000,2.61843798828125,-1.4448490142822266,0.5167156457901001,-1.292590856552124
1761132291315437800,2.628437744140625,-1.3788756132125854,0.6059019565582275,-1.1081095933914185
1761132291325438000,2.63843798828125,-1.286634922027588,0.7812203168869019,-0.8381071090698242
1761132291335437800,2.648437744140625,-1.200502872467041,1.0127382278442383,-0.5064072608947754
1761132291345438000,2.65843798828125,-1.1217013597488403,1.2008846998214722,-0.13439035415649414
1761132291355437800,2.668437744140625,-0.9964739084243774,1.2784645557403564,0.24923302233219147
1761132291365438000,2.67843798828125,-0.7857254147529602,1.2069933414459229,0.6224716901779175
1761132291375437800,2.688437744140625,-0.5126686692237854,1.0328967571258545,0.9706648588180542
1761132291385438000,2.69843798828125,-0.20845776796340942,0.8429176807403564,1.2748757600784302
1761132291395437800,2.708437744140625,0.10064005106687546,0.6840927004814148,1.5155566930770874
1761132291405437000,2.71843701171875,0.3767511546611786,0.591852068901062,1.6597208976745605
1761132291415437000,2.72843701171875,0.5948300361633301,0.5619196891784668,1.6853772401809692
1761132291425437000,2.73843701171875,0.7237225770950317,0.5863542556762695,1.5961909294128418
1761132291435437000,2.74843701171875,0.7499898076057434,0.6614906787872314,1.4117095470428467
1761132291445437000,2.75843701171875,0.6998988389968872,0.7946593165397644,1.1661417484283447
1761132291455437000,2.76843701171875,0.6052147150039673,0.989525318145752,0.8869763612747192
1761132291465437000,2.77843701171875,0.48976120352745056,1.1947760581970215,0.5992587804794312
1761132291475437000,2.78843701171875,0.3706424832344055,1.3981941938400269,0.33536502718925476
1761132291485437000,2.79843701171875,0.275958389043808,1.6034449338912964,0.1014036312699318
1761132291495437000,2.80843701171875,0.22281309962272644,1.7463873624801636,-0.11178833991289139
1761132291505438000,2.81843798828125,0.20082195103168488,1.808695673942566,-0.2938261926174164
1761132291515437800,2.828437744140625,0.18799377977848053,1.787926197052002,-0.455705463886261
1761132291525438000,2.83843798828125,0.19715675711631775,1.6889660358428955,-0.5027421116828918
1761132291535437800,2.848437744140625,0.21914790570735931,1.543580174446106,-0.5009095072746277
1761132291545438000,2.85843798828125,0.25335636734962463,1.4189635515213013,-0.4691445231437683
1761132291555437800,2.868437744140625,0.27229318022727966,1.3108404874801636,-0.44593164324760437
1761132291565438000,2.87843798828125,0.27779096364974976,1.1941652297973633,-0.4282165467739105
1761132291575437800,2.888437744140625,0.2716823220252991,1.0652726888656616,-0.37568211555480957
1761132291585438000,2.89843798828125,0.26801711320877075,1.0335075855255127,-0.2382374405860901
1761132291595437800,2.908437744140625,0.3260493278503418,1.1147527694702148,-0.10567969083786011
1761132291605437200,2.918437255859375,0.49464812874794006,1.1306352615356445,-0.1258382350206375
1761132291615437000,2.92843701171875,0.812298059463501,0.9272170662879944,-0.3017674386501312
1761132291625437200,2.938437255859375,1.2851077318191528,0.5258786082267761,-0.44165557622909546
1761132291635437000,2.94843701171875,1.8544341325759888,-0.08315403014421463,-0.4098905920982361
1761132291645437200,2.958437255859375,2.445140838623047,-1.136285662651062,-0.10384709388017654
1761132291655437000,2.96843701171875,3.068223476409912,-2.5718190670013428,0.6145304441452026
1761132291665437200,2.978437255859375,3.5990653038024902,-3.8466947078704834,1.5595389604568481
1761132291675437000,2.98843701171875,3.6894733905792236,-4.60477876663208,2.14902400970459
1761132291685437200,2.998437255859375,3.2398765087127686,-5.145394325256348,1.8093829154968262
1761132291695437000,3.00843701171875,2.5111143589019775,-5.461211681365967,0.607200026512146
1761132291705438000,3.01843798828125,1.7737998962402344,-5.081253528594971,-0.8106181621551514
1761132291715437800,3.028437744140625,1.0926852226257324,-3.976809024810791,-1.8692476749420166
1761132291725438000,3.03843798828125,0.5691736936569214,-2.466139316558838,-2.4752259254455566
1761132291735438000,3.04843798828125,0.33276882767677307,-0.9518043994903564,-2.540588617324829
1761132291745438000,3.05843798828125,0.15317445993423462,0.42386412620544434,-1.8020524978637695
1761132291755438000,3.06843798828125,-0.06918048858642578,0.4000403881072998,-1.1551461219787598
1761132291765438000,3.07843798828125,-0.3471241891384125,-0.05871942266821861,-0.3597996234893799
1761132291775438000,3.08843798828125,-0.5395467281341553,-0.5767331719398499,0.30543261766433716
1761132291785438000,3.09843798828125,-0.6476698517799377,-0.8931613564491272,0.6621779203414917
1761132291795438000,3.10843798828125,-0.8223773241043091,-0.8705593347549438,0.6921103000640869
1761132291805437200,3.118437255859375,-1.1345294713974,-0.46555566787719727,0.45692721009254456
1761132291815437300,3.128437255859375,-1.5346461534500122,0.17890715599060059,0.15882496535778046
1761132291825437200,3.138437255859375,-1.9188804626464844,0.9302713871002197,-0.04764748737215996
1761132291835437000,3.14843701171875,-2.205376148223877,1.721341848373413,-0.11178833991289139
1761132291845437200,3.158437255859375,-2.300060272216797,2.4238369464874268,-0.05497787147760391
1761132291855437000,3.16843701171875,-2.1766655445098877,2.8031842708587646,0.03726277872920036
1761132291865437200,3.178437255859375,-1.8602373600006104,2.8551077842712402,0.17531833052635193
1761132291875437000,3.18843701171875,-1.4356859922409058,2.622368097305298,0.39095374941825867
1761132291885437200,3.198437255859375,-0.9659306406974792,2.1752147674560547,0.6707300543785095
1761132291895437000,3.20843701171875,-0.5090034604072571,1.6309338808059692,0.9749409556388855
1761132291905438000,3.21843798828125,-0.11804971098899841,1.1312460899353027,1.2693779468536377
1761132291915438000,3.22843798828125,0.1837177276611328,0.7781659364700317,1.5112806558609009
1761132291925438000,3.23843798828125,0.4005748927593231,0.6260605454444885,1.674992561340332
1761132291935438000,3.24843798828125,0.5429064631462097,0.6566037535667419,1.7342463731765747
1761132291945438000,3.25843798828125,0.5936083197593689,0.7952702045440674,1.6578882932662964
1761132291955438000,3.26843798828125,0.5636758804321289,0.9834166765213013,1.454470157623291
1761132291965438000,3.27843798828125,0.4885394871234894,1.1984412670135498,1.150259256362915
1761132291975438000,3.28843798828125,0.35292738676071167,1.44461989402771,0.5546656250953674
1761132291985438000,3.29843798828125,0.24724771082401276,1.4727197885513306,0.14416420459747314
1761132291995438000,3.30843798828125,0.14278975129127502,1.4061354398727417,-0.23457226157188416
1761132292005437200,3.318437255859375,0.05360342562198639,1.247921347618103,-0.5552765130996704
1761132292015437000,3.32843701171875,0.012675453908741474,1.0157924890518188,-0.7874053120613098
1761132292025437200,3.338437255859375,0.005345070734620094,0.7690029740333557,-0.9187413454055786
1761132292035437000,3.34843701171875,0.008399397134780884,0.5399284958839417,-0.9456194043159485
1761132292045437200,3.358437255859375,0.046273041516542435,0.3450624942779541,-0.9077457785606384
1761132292055437000,3.36843701171875,0.09758572280406952,0.1324813961982727,-0.8680394887924194
1761132292065437200,3.378437255859375,0.11652254313230515,-0.144851416349411,-0.8613200187683105
1761132292075437000,3.38843701171875,0.07681630551815033,-0.429514616727829,-0.8851437568664551
1761132292085437200,3.398437255859375,0.004123340360820293,-0.6323218941688538,-0.950506329536438
1761132292095437000,3.40843701171875,-0.014813481830060482,-0.824133574962616,-1.0793988704681396
1761132292105438000,3.41843798828125,0.12202033400535583,-1.138729214668274,-1.2321151494979858
1761132292115437800,3.428437744140625,0.4366159439086914,-1.5706108808517456,-1.3335188627243042
1761132292125438000,3.43843798828125,0.7408268451690674,-2.097787618637085,-1.3329079151153564
1761132292135437800,3.448437744140625,0.9619600176811218,-2.4875197410583496,-1.0946705341339111
1761132292145437700,3.458437744140625,1.1171197891235352,-2.4960718154907227,-0.5943718552589417
1761132292155437800,3.468437744140625,1.2234103679656982,-2.337246894836426,-0.06352998316287994
1761132292165437700,3.478437744140625,1.365131139755249,-2.18147611618042,0.27122417092323303
1761132292175437800,3.488437744140625,1.4353805780410767,-2.18147611618042,0.28099802136421204
1761132292185437700,3.498437744140625,1.280220866203308,-2.429487466812134,-0.05009094998240471
1761132292195437800,3.508437744140625,0.841008722782135,-2.837545394897461,-0.5558874011039734
1761132292205437000,3.51843701171875,0.10919216275215149,-3.1771864891052246,-0.9395107626914978
1761132292215437000,3.52843701171875,-0.9188940525054932,-2.6738336086273193,-1.1643091440200806
1761132292225437000,3.53843701171875,-1.0942124128341675,-1.7239381074905396,-1.0476338863372803
1761132292235437000,3.54843701171875,-0.8730791807174683,-0.6365979313850403,-0.59803706407547
1761132292245437000,3.55843701171875,-0.5761986374855042,0.258930504322052,0.08124507963657379
1761132292255437000,3.56843701171875,-0.5352706909179688,0.5503132343292236,0.7574729323387146
1761132292265437000,3.57843701171875,-0.755182147026062,0.36216673254966736,1.1056660413742065
1761132292275437000,3.58843701171875,-1.1217013597488403,0.06039930135011673,0.9156870245933533
1761132292285437000,3.59843701171875,-1.5871806144714355,-0.05077817291021347,0.3341432809829712
1761132292295437000,3.60843701171875,-2.099085807800293,0.258930504322052,-0.26511552929878235
1761132292305437700,3.618437744140625,-2.475989580154419,0.9015607237815857,-0.5638286471366882
1761132292315437800,3.628437744140625,-2.568230152130127,1.5221998691558838,-0.5626068711280823
1761132292325437700,3.638437744140625,-2.4582743644714355,1.9479728937149048,-0.33719760179519653
1761132292335437800,3.648437744140625,-2.23897385597229,2.240577459335327,0.00366519158706069
1761132292345437700,3.658437744140625,-1.9598084688186646,2.404900074005127,0.3701843321323395
1761132292355437800,3.668437744140625,-1.627497673034668,2.388406753540039,0.7446447610855103
1761132292365437700,3.678437744140625,-1.2835805416107178,2.22408390045166,1.1349875926971436
1761132292375437800,3.688437744140625,-0.9476047158241272,1.9950095415115356,1.4856243133544922
1761132292385437700,3.698437744140625,-0.6049093008041382,1.740278720855713,1.7269160747528076
1761132292395437800,3.708437744140625,-0.29397889971733093,1.5875624418258667,1.9022343158721924
1761132292405437000,3.71843701171875,-0.005650503560900688,1.5038738250732422,2.0274617671966553
1761132292415437000,3.72843701171875,0.27290403842926025,1.4305700063705444,2.098932981491089
1761132292425437000,3.73843701171875,0.5001459121704102,1.3743704557418823,2.090991735458374
1761132292435437000,3.74843701171875,0.6455318331718445,1.2693016529083252,1.9950858354568481
1761132292445437000,3.75843701171875,0.7133378982543945,0.9846383929252625,1.6853772401809692
1761132292455437000,3.76843701171875,0.6925684809684753,0.773279070854187,1.4025466442108154
1761132292465437000,3.77843701171875,0.6241515874862671,0.6388887166976929,1.1044443845748901
1761132292475437000,3.78843701171875,0.508698046207428,0.6095671653747559,0.827111542224884
1761132292485437000,3.79843701171875,0.35475999116897583,0.5582544803619385,0.5375614166259766
1761132292495437000,3.80843701171875,0.17760907113552094,0.4550182521343231,0.23396138846874237
1761132292505438000,3.81843798828125,-0.00931569468230009,0.3346777856349945,-0.07941248267889023
1761132292515437800,3.828437744140625,-0.1693623960018158,0.15508341789245605,-0.4746423065662384
1761132292525438000,3.83843798828125,-0.20906862616539001,0.04207334294915199,-0.816726803779602
1761132292535437800,3.848437744140625,-0.1241583600640297,-0.00862847175449133,-1.0335839986801147
1761132292545438000,3.85843798828125,-0.020922135561704636,-0.032452214509248734,-1.1649199724197388
1761132292555437800,3.868437744140625,0.06154467165470123,-0.0746019184589386,-1.2388347387313843
1761132292565438000,3.87843798828125,0.14095716178417206,-0.12347114086151123,-1.2443325519561768
1761132292575437800,3.888437744140625,0.20570887625217438,-0.17783814668655396,-1.2278391122817993
1761132292585438000,3.89843798828125,0.2515237629413605,-0.2700788080692291,-1.2235630750656128
1761132292595437800,3.908437744140625,0.29306259751319885,-0.38980838656425476,-1.2370021343231201
1761132292605437200,3.918437255859375,0.31871894001960754,-0.45028403401374817,-1.273043155670166
1761132292615437000,3.92843701171875,0.3669773042201996,-0.39469531178474426,-1.357953429222107
1761132292625437200,3.938437255859375,0.4714352488517761,-0.28901562094688416,-1.4782938957214355
1761132292635437000,3.94843701171875,0.611934244632721,-0.21265746653079987,-1.5448782444000244
1761132292645437200,3.958437255859375,0.7402159571647644,-0.2615266740322113,-1.4758504629135132
1761132292655437000,3.96843701171875,0.8422304391860962,-0.5834526419639587,-1.2205088138580322
1761132292665437200,3.978437255859375,0.9998337030410767,-1.175381064414978,-0.7904596328735352
1761132292675437000,3.98843701171875,1.4439327716827393,-2.4557547569274902,-0.03237585723400116
1761132292685437200,3.998437255859375,1.8391625881195068,-3.3970980644226074,0.33597588539123535
1761132292695437000,4.00843701171875,2.2679898738861084,-3.9731438159942627,0.608421802520752
1761132292705438000,4.01843798828125,2.6534459590911865,-3.8161516189575195,0.7898487448692322
1761132292715437800,4.028437744140625,2.919783115386963,-3.0702850818634033,0.7507534027099609
1761132292725438000,4.03843798828125,3.0615038871765137,-2.609081745147705,0.21135938167572021
1761132292735437800,4.048437744140625,3.0101912021636963,-2.98598575592041,-0.8063421249389648
1761132292745438000,4.05843798828125,2.7401888370513916,-3.1264846324920654,-1.5442672967910767
1761132292755437800,4.068437744140625,2.297311544418335,-2.6988790035247803,-1.8796323537826538
1761132292765438000,4.07843798828125,1.7890715599060059,-2.5852580070495605,-1.8387043476104736
1761132292775437800,4.088437744140625,1.3498594760894775,-2.207132577896118,-1.2443325519561768
1761132292785438000,4.09843798828125,0.8739954233169556,-1.3708579540252686,-0.6359107494354248
1761132292795437800,4.108437744140625,0.46593746542930603,-0.18150334060192108,-0.4605923891067505
1761132292805437000,4.11843701171875,-0.044135015457868576,0.49900054931640625,-0.7104362845420837
1761132292815437000,4.12843701171875,-0.7276932001113892,0.8349764347076416,-1.149037480354309
1761132292825437000,4.13843701171875,-1.5529721975326538,1.029842495918274,-1.5357152223587036
1761132292835437000,4.14843701171875,-2.132683277130127,1.2631930112838745,-1.9126191139221191
1761132292845437000,4.15843701171875,-2.4979805946350098,1.3560445308685303,-2.1502456665039062
1761132292855437000,4.16843701171875,-2.6842947006225586,1.3725378513336182,-2.0085248947143555
1761132292865437000,4.17843701171875,-2.7148377895355225,1.4061354398727417,-1.4495831727981567
1761132292875437000,4.18843701171875,-2.5951082706451416,1.4831044673919678,-0.7165449261665344
1761132292885437000,4.19843701171875,-2.353816509246826,1.579010248184204,-0.03481931984424591
1761132292895437000,4.20843701171875,-2.0636556148529053,1.683468222618103,0.5076290369033813
1761132292905437700,4.218437744140625,-1.5987870693206787,1.6523141860961914,1.0690141916275024
1761132292915437800,4.228437744140625,-1.30801522731781,1.464167594909668,1.3151928186416626
1761132292925437700,4.238437744140625,-1.0960450172424316,1.2265410423278809,1.4801265001296997
1761132292935437800,4.248437744140625,-0.9335548281669617,1.0231229066848755,1.6041321754455566
1761132292945437700,4.258437744140625,-0.7057020664215088,0.8539132475852966,1.6908750534057617
1761132292955437800,4.268437744140625,-0.5535966157913208,0.6755406260490417,1.718363881111145
1761132292965437700,4.278437744140625,-0.4607451260089874,0.5808565020561218,1.6920967102050781
1761132292975437800,4.288437744140625,-0.3856086730957031,0.5258786082267761,1.568701982498169
1761132292985437700,4.298437744140625,-0.3911064863204956,0.46295949816703796,1.3524556159973145
1761132292995437800,4.308437744140625,-0.5004513263702393,0.4654029607772827,1.0769554376602173
1761132293005437000,4.31843701171875,-0.6550002694129944,0.5252677798271179,0.7476990818977356
1761132293015437000,4.32843701171875,-0.7967209815979004,0.6394995450973511,0.3805690407752991
1761132293025437000,4.33843701171875,-0.916450560092926,0.8026005625724792,0.015882495790719986
1761132293035437000,4.34843701171875,-0.9958630800247192,0.9632581472396851,-0.2932153046131134
1761132293045437000,4.35843701171875,-1.010523796081543,1.0640509128570557,-0.5167919993400574
1761132293055437000,4.36843701171875,-0.9347765445709229,1.087263822555542,-0.6450737118721008
1761132293065437000,4.37843701171875,-0.7906123399734497,1.038394570350647,-0.6994407176971436
1761132293075436800,4.388436767578125,-0.6244570016860962,0.9119454622268677,-0.6927211880683899
1761132293085437000,4.39843701171875,-0.46563202142715454,0.6737080216407776,-0.6493497490882874
1761132293095437000,4.40843701171875,-0.33246341347694397,0.34139731526374817,-0.5937610268592834
1761132293105437700,4.418437744140625,-0.20784689486026764,0.09094256162643433,-0.5094616413116455
1761132293115437800,4.428437744140625,-0.06062837690114975,-0.013515393249690533,-0.41172316670417786
1761132293125437700,4.438437744140625,0.12507465481758118,-0.0593302883207798,-0.3549126982688904
1761132293135437800,4.448437744140625,0.3975205719470978,-0.11064296960830688,-0.33108896017074585
1761132293145437700,4.458437744140625,0.5038111209869385,-0.14668402075767517,-0.32498031854629517
1761132293155437800,4.468437744140625,0.4879286289215088,-0.2609158158302307,-0.36224308609962463
1761132293165437700,4.478437744140625,0.375529408454895,-0.4130212664604187,-0.46242499351501465
1761132293175437800,4.488437744140625,0.29306259751319885,-0.5700136423110962,-0.5992587804794312
1761132293185437700,4.498437744140625,0.30344730615615845,-0.6946301460266113,-0.7128797173500061
1761132293195437800,4.508437744140625,0.4011857509613037,-0.8577311635017395,-0.7483099102973938
1761132293205437000,4.51843701171875,0.5917757153511047,-0.9774607419967651,-0.616973876953125
1761132293215437000,4.52843701171875,0.8440630435943604,-0.8962156772613525,-0.3390302062034607
1761132293225437000,4.53843701171875,1.0071641206741333,-0.6976844668388367,-0.10995574295520782
1761132293235437000,4.54843701171875,1.012050986289978,-0.4942663311958313,-0.06414084881544113
1761132293245437000,4.55843701171875,0.9906707406044006,-0.4643339514732361,-0.2223549485206604
1761132293255437000,4.56843701171875,1.0242682695388794,-0.6689738035202026,-0.4337143301963806
1761132293265437000,4.57843701171875,1.018770456314087,-0.9133198857307434,-0.48685958981513977
1761132293275437000,4.58843701171875,0.8941540122032166,-1.1301770210266113,-0.3903428912162781
1761132293285437000,4.59843701171875,0.7438811659812927,-1.3128257989883423,-0.31581732630729675
1761132293295436800,4.608436767578125,0.670577347278595,-1.3812426328659058,-0.33536502718925476
1761132293305437700,4.618437744140625,0.669355571269989,-1.4453835487365723,-0.32131510972976685
1761132293315437800,4.628437744140625,0.6345362663269043,-1.4459943771362305,-0.0757472887635231
1761132293325438000,4.63843798828125,0.3956879675388336,-1.1729376316070557,0.34574973583221436
1761132293335437800,4.648437744140625,-0.06062837690114975,-0.7807621359825134,0.5326744914054871
1761132293345438000,4.65843798828125,-0.5829181671142578,-0.18150334060192108,0.34147366881370544
1761132293355437800,4.668437744140625,-1.0538952350616455,0.4922810196876526,-0.13439035415649414
1761132293365438500,4.6784384765625,-1.5755741596221924,1.3896421194076538,-0.7623597979545593
1761132293375438300,4.688438232421875,-1.7368426322937012,1.7787632942199707,-0.959669291973114
1761132293385438500,4.6984384765625,-1.6898059844970703,1.9571359157562256,-0.9541715383529663
1761132293395438300,4.708438232421875,-1.5053247213363647,1.9937877655029297,-0.7531968355178833
1761132293405437400,4.7184375,-1.2701416015625,1.8771125078201294,-0.37079519033432007
1761132293415437600,4.7284375,-1.0062477588653564,1.6382641792297363,0.16310101747512817
1761132293425437400,4.7384375,-0.7606799602508545,1.389031171798706,0.7635815739631653
1761132293435437600,4.7484375,-0.5371032953262329,1.123915672302246,1.312138557434082
1761132293445437700,4.758437744140625,-0.3361285924911499,0.8624653816223145,1.7116444110870361
1761132293455437600,4.7684375,-0.13454307615756989,0.6150649189949036,1.9419406652450562
1761132293465437700,4.778437744140625,0.03649919852614403,0.349338561296463,2.0134117603302
1761132293475437600,4.7884375,0.13484850525856018,0.061621032655239105,1.938886284828186
1761132293485437700,4.798437744140625,0.1586722433567047,-0.16684256494045258,1.7910568714141846
1761132293495437600,4.8084375,0.11774427443742752,-0.26824620366096497,1.615127682685852
1761132293505438500,4.8184384765625,-0.00931569468230009,-0.2303725630044937,1.4110987186431885
1761132293515438600,4.8284384765625,-0.21090123057365417,-0.12896892428398132,1.131933331489563
1761132293525438500,4.8384384765625,-0.4332561790943146,-0.051999904215335846,0.7397578358650208
1761132293535438300,4.848438232421875,-0.6378960609436035,-0.0006872233934700489,0.2626720666885376
1761132293545438500,4.8584384765625,-0.8193230032920837,0.06345362961292267,-0.19914206862449646
1761132293555438300,4.868438232421875,-0.9598219990730286,0.16180293262004852,-0.5607742667198181
1761132293565438500,4.8784384765625,-1.04289972782135,0.2491566687822342,-0.8038986921310425
1761132293575438300,4.888438232421875,-1.062447428703308,0.3542254865169525,-0.9346238374710083
1761132293585438500,4.8984384765625,-1.0355693101882935,0.4305836260318756,-1.0097602605819702
1761132293595438300,4.908438232421875,-0.8700248003005981,0.46295949816703796,-1.0286970138549805
1761132293605437700,4.918437744140625,-0.6837109327316284,0.43241623044013977,-1.0012081861495972
1761132293615437600,4.9284375,-0.4717406928539276,0.34200817346572876,-0.9364564418792725
1761132293625437400,4.9384375,-0.2506074607372284,0.23021984100341797,-0.817337691783905
1761132293635437600,4.9484375,-0.056352317333221436,0.07078400999307632,-0.6780604124069214
1761132293645437400,4.9584375,0.0835358202457428,-0.12896892428398132,-0.5436700582504272
1761132293655437600,4.9684375,0.16111570596694946,-0.34032830595970154,-0.4489859640598297
1761132293665437000,4.97843701171875,0.18738290667533875,-0.5413029789924622,-0.43188172578811646
1761132293675437000,4.98843701171875,0.1745547503232956,-0.7019605040550232,-0.4996877610683441
1761132293685437000,4.99843701171875,0.16294831037521362,-0.824133574962616,-0.5949827432632446
1761132293695437000,5.00843701171875,0.2154827117919922,-0.8864418268203735,-0.6010913848876953
1761132293705437700,5.018437744140625,0.3865249752998352,-0.862618088722229,-0.4508185386657715
1761132293715437800,5.028437744140625,0.6015495657920837,-0.8369617462158203,-0.2217440903186798
1761132293725438000,5.03843798828125,0.7121161818504333,-0.7306711673736572,-0.031154127791523933
1761132293735437800,5.048437744140625,0.6620252132415771,-0.6610325574874878,-0.030543262138962746
1761132293745438000,5.05843798828125,0.5123631954193115,-0.7636579275131226,-0.24068090319633484
1761132293755437800,5.068437744140625,0.3156646192073822,-0.9579130411148071,-0.6524040699005127
1761132293765438000,5.07843798828125,0.194713294506073,-1.2065352201461792,-1.150259256362915
1761132293775437800,5.088437744140625,0.304669052362442,-1.471039891242981,-1.4471397399902344
1761132293785437700,5.098437744140625,0.6571382880210876,-1.7911332845687866,-1.4141530990600586
1761132293795437800,5.108437744140625,1.0945178270339966,-2.195526123046875,-0.9828822016716003
1761132293805437000,5.11843701171875,1.5056301355361938,-2.1747565269470215,-0.35063666105270386
1761132293815437000,5.12843701171875,1.7939585447311401,-1.7636443376541138,0.3738495409488678
1761132293825437000,5.13843701171875,1.6723963022232056,-0.6585890650749207,1.5570955276489258
1761132293835437000,5.14843701171875,1.3297009468078613,-0.08132143318653107,1.7751743793487549
1761132293845437000,5.15843701171875,0.9082038998603821,0.18990273773670197,1.6536122560501099
1761132293855437000,5.16843701171875,0.5007568001747131,0.23205243051052094,1.2712105512619019
1761132293865437000,5.17843701171875,0.14034628868103027,0.2039526402950287,0.8607091307640076
1761132293875437000,5.18843701171875,-0.12049316614866257,0.05490151420235634,0.5992587804794312
1761132293885437000,5.19843701171875,-0.2548835277557373,-0.24808764457702637,0.53328537940979
1761132293895437000,5.20843701171875,-0.26343563199043274,-0.6463717818260193,0.6493497490882874
1761132293905438000,5.21843798828125,-0.21273382008075714,-0.9634108543395996,0.9437867999076843
1761132293915437800,5.228437744140625,-0.11988230794668198,-1.0580949783325195,1.3720033168792725
1761132293925438000,5.23843798828125,-0.038637228310108185,-1.0275516510009766,1.7941112518310547
1761132293935437800,5.248437744140625,0.0022907445672899485,-1.0067822933197021,2.138028383255005
1761132293945438000,5.25843798828125,-0.013591751456260681,-1.0263299942016602,2.378098487854004
1761132293955437800,5.268437744140625,-0.09117163717746735,-1.0562623739242554,2.4544565677642822
1761132293965438000,5.27843798828125,-0.18096883594989777,-1.0208321809768677,2.3707680702209473
1761132293975437800,5.288437744140625,-0.260992169380188,-0.891939640045166,2.175291061401367
1761132293985438000,5.29843798828125,-0.36972618103027344,-0.6640868782997131,1.9083430767059326
1761132293995437800,5.308437744140625,-0.483957976102829,-0.3122285008430481,1.5968017578125
1761132294005437000,5.31843701171875,-0.5823072791099548,0.06834054738283157,1.2443325519561768
1761132294015437000,5.32843701171875,-0.6574437022209167,0.4311945140361786,0.8723155856132507
1761132294025437000,5.33843701171875,-0.7252497673034668,0.7451792359352112,0.5088507533073425
1761132294035437000,5.34843701171875,-0.8077165484428406,0.9204975366592407,0.1612684279680252
1761132294045437000,5.35843701171875,-0.926224410533905,0.9919688105583191,-0.16432274878025055
1761132294055437000,5.36843701171875,-1.146135926246643,1.1062005758285522,-0.6029239892959595
1761132294065437000,5.37843701171875,-1.265865445137024,1.1495720148086548,-0.8472700715065002
1761132294075437000,5.38843701171875,-1.3422236442565918,1.17950439453125,-1.0250319242477417
1761132294085437000,5.39843701171875,-1.352608323097229,1.2412018775939941,-1.1484266519546509
1761132294095437000,5.40843701171875,-1.2903001308441162,1.3468815088272095,-1.2315043210983276
1761132294105438000,5.41843798828125,-1.1791226863861084,1.4580589532852173,-1.2736539840698242
1761132294115437800,5.428437744140625,-1.0349584817886353,1.550910472869873,-1.2583824396133423
1761132294125438000,5.43843798828125,-0.8828529715538025,1.6058883666992188,-1.2021827697753906
1761132294135437800,5.448437744140625,-0.7600690722465515,1.5564082860946655,-1.1465940475463867
1761132294145438000,5.45843798828125,-0.6574437022209167,1.439122200012207,-1.0787880420684814
1761132294155437800,5.468437744140625,-0.5535966157913208,1.285794973373413,-0.9999864101409912
1761132294165438000,5.47843798828125,-0.43386703729629517,1.1831696033477783,-0.9272934198379517
1761132294175437800,5.488437744140625,-0.2958115041255951,1.0445032119750977,-0.9291260242462158
1761132294185438000,5.49843798828125,-0.10277807712554932,0.8722392320632935,-0.9144652485847473
1761132294195437800,5.508437744140625,0.12507465481758118,0.6804275512695312,-0.8155050873756409
1761132294205437000,5.51843701171875,0.3303253948688507,0.5258786082267761,-0.608421802520752
1761132294215437000,5.52843701171875,0.4867068827152252,0.4470770061016083,-0.3084869384765625
1761132294225437000,5.53843701171875,0.5355761051177979,0.2790890634059906,-0.06719517707824707
1761132294235437000,5.54843701171875,0.45066583156585693,-0.1607339233160019,-0.11239920556545258
1761132294245437000,5.55843701171875,0.3425426781177521,-0.7410559058189392,-0.4495968222618103
1761132294255437000,5.56843701171875,0.28695395588874817,-1.138729214668274,-0.8930850028991699
1761132294265437000,5.57843701171875,0.2912299931049347,-1.2181416749954224,-1.2596040964126587
1761132294275437000,5.58843701171875,0.3101668357849121,-1.3348169326782227,-1.645671010017395
1761132294285437000,5.59843701171875,0.3113885521888733,-1.9255236387252808,-2.0060815811157227
1761132294295437000,5.60843701171875,0.42928555607795715,-2.2895991802215576,-1.5570955276489258
1761132294305438000,5.61843798828125,0.8098546266555786,-1.9578994512557983,-0.9871582388877869
1761132294315437800,5.628437744140625,1.1049025058746338,-1.667738437652588,-0.15882496535778046
1761132294325438000,5.63843798828125,1.1604912281036377,-1.44294011592865,0.4960225820541382
1761132294335437800,5.648437744140625,1.040150761604309,-1.3604732751846313,0.8051204085350037
1761132294345438000,5.65843798828125,0.7145596146583557,-1.299386739730835,0.9071348905563354
1761132294355437800,5.668437744140625,0.2093740701675415,-1.1564443111419678,0.8814785480499268
1761132294365438000,5.67843798828125,-0.33857205510139465,-0.9487500786781311,0.7727445363998413
1761132294375437800,5.688437744140625,-0.8199338912963867,-0.8552877306938171,0.6255260109901428
1761132294385438000,5.69843798828125,-1.1381946802139282,-0.6952410340309143,0.588874101638794
1761132294395437800,5.708437744140625,-1.2023354768753052,-0.4435645341873169,0.7195992469787598
1761132294405437000,5.71843701171875,-1.013578176498413,-0.25419628620147705,0.9999864101409912
1761132294415437000,5.72843701171875,-0.7002043128013611,-0.22731822729110718,1.3811663389205933
1761132294425437000,5.73843701171875,-0.3605632185935974,-0.33055445551872253,1.8191566467285156
1761132294435437000,5.74843701171875,-0.0936150997877121,-0.477772980928421,2.3121249675750732
1761132294445437000,5.75843701171875,0.03039054572582245,-0.6048329472541809,2.799595355987549
1761132294455437000,5.76843701171875,0.04993823543190956,-0.7538840770721436,3.165503740310669
1761132294465437000,5.77843701171875,-0.005039638374000788,-0.9139307737350464,3.3402111530303955
1761132294475437000,5.78843701171875,-0.13454307615756989,-1.0018953084945679,3.330437421798706
1761132294485437000,5.79843701171875,-0.3471241891384125,-0.9744064211845398,3.1196887493133545
1761132294495437000,5.80843701171875,-0.5981897711753845,-0.7563275098800659,2.6957483291625977
1761132294505438000,5.81843798828125,-0.8498662710189819,-0.3769802153110504,2.059837579727173
1761132294515437800,5.828437744140625,-1.088714599609375,0.0921642929315567,1.302364706993103
1761132294525438000,5.83843798828125,-1.412473201751709,0.8026005625724792,0.13500121235847473
1761132294535437800,5.848437744140625,-1.6134477853775024,1.2033281326293945,-0.5516113042831421
1761132294545438000,5.85843798828125,-1.80037260055542,1.5557974576950073,-1.1081095933914185
1761132294555437800,5.868437744140625,-1.9378172159194946,1.8581757545471191,-1.5161675214767456
1761132294565437700,5.878437744140625,-1.9927951097488403,2.0915262699127197,-1.7886134386062622
1761132294575437800,5.888437744140625,-1.9549214839935303,2.2417991161346436,-1.938886284828186
1761132294585437700,5.898437744140625,-1.8309158086776733,2.343202829360962,-1.977981686592102
1761132294595437800,5.908437744140625,-1.637271523475647,2.4067327976226807,-1.9327776432037354
1761132294605437000,5.91843701171875,-1.3984233140945435,2.404900074005127,-1.8332066535949707
1761132294615437000,5.92843701171875,-1.155909776687622,2.32182240486145,-1.7055357694625854
1761132294625437000,5.93843701171875,-0.9537133574485779,2.1355085372924805,-1.547932505607605
1761132294635437000,5.94843701171875,-0.7735081315040588,1.9253709316253662,-1.3432927131652832
1761132294645437000,5.95843701171875,-0.603076696395874,1.7207310199737549,-1.1337659358978271
1761132294655437000,5.96843701171875,-0.4430300295352936,1.416520118713379,-0.9224064946174622
1761132294665437000,5.97843701171875,-0.25671613216400146,1.0994811058044434,-0.655458390712738
1761132294675437000,5.98843701171875,-0.018478672951459885,0.8398633599281311,-0.3799581825733185
1761132294685437000,5.99843701171875,0.24785856902599335,0.5093852281570435,-0.14233160018920898
1761132294695437000,6.00843701171875,0.5349652171134949,0.21739166975021362,0.17104226350784302
1761132294705437700,6.018437744140625,0.811687171459198,0.09949467331171036,0.5943718552589417
1761132294715437800,6.028437744140625,1.0340421199798584,0.27664560079574585,1.0604621171951294
1761132294725437700,6.038437744140625,1.3187053203582764,0.7592291235923767,1.274264931678772
1761132294735437800,6.048437744140625,1.6742289066314697,1.1489611864089966,0.7709119319915771
1761132294745437700,6.058437744140625,1.7902933359146118,1.3499358892440796,-0.5717698931694031
1761132294755437800,6.068437744140625,0.9387471675872803,1.0817660093307495,-2.8130345344543457
1761132294765438000,6.07843798828125,-0.21700987219810486,0.3261256814002991,-3.79652738571167
1761132294775437800,6.088437744140625,-1.3110694885253906,-0.3733150362968445,-4.36096715927124
1761132294785437700,6.098437744140625,-2.0386099815368652,-0.4686099886894226,-4.665788650512695
1761132294795437800,6.108437744140625,-2.336101531982422,0.2332741618156433,-4.805066108703613
1761132294805437000,6.11843701171875,-2.1864395141601562,1.5765668153762817,-4.784907341003418
1761132294815437000,6.12843701171875,-1.7692184448242188,3.1550426483154297,-4.5381178855896
1761132294825437000,6.13843701171875,-1.3800972700119019,4.192291736602783,-4.138000965118408
1761132294835436800,6.148436767578125,-1.0435105562210083,4.147698879241943,-3.582113742828369
1761132294845437000,6.15843701171875,-0.6140722632408142,3.1996357440948486,-2.8014280796051025
1761132294855436800,6.168436767578125,-0.09300423413515091,1.7329483032226562,-1.7794504165649414
1761132294865437000,6.17843701171875,0.42928555607795715,0.026190847158432007,-0.5992587804794312
1761132294875437000,6.18843701171875,0.7744244337081909,-1.6170367002487183,0.5021312236785889
1761132294885437000,6.19843701171875,0.9051495790481567,-2.745915651321411,1.398881435394287
1761132294895437000,6.20843701171875,0.7909177541732788,-2.9762117862701416,2.026850938796997
1761132294905437700,6.218437744140625,0.6229298114776611,-2.412994146347046,2.2437081336975098
1761132294915437800,6.228437744140625,0.5703954100608826,-1.4185054302215576,2.0396790504455566
1761132294925437700,6.238437744140625,0.5936083197593689,-0.32383492588996887,1.6242907047271729
1761132294935437800,6.248437744140625,0.6449210047721863,0.5112178325653076,1.2675453424453735
1761132294945437700,6.258437744140625,0.7457137703895569,0.905225932598114,1.111163854598999
1761132294955437800,6.268437744140625,0.8965974450111389,0.8636870980262756,1.1746938228607178
1761132294965437700,6.278437744140625,1.0603092908859253,0.45379650592803955,1.454470157623291
1761132294975437800,6.288437744140625,1.1977540254592896,-0.18272507190704346,1.966986060142517
1761132294985437700,6.298437744140625,1.3730723857879639,-1.1271227598190308,2.937040090560913
1761132294995437800,6.308437744140625,1.4494304656982422,-1.640249490737915,3.461162567138672
1761132295005437000,6.31843701171875,1.457371711730957,-1.99210786819458,3.7727036476135254
1761132295015437000,6.32843701171875,1.3797918558120728,-2.210186719894409,3.855170488357544
1761132295025437000,6.33843701171875,1.1830933094024658,-2.2810471057891846,3.6670241355895996
1761132295035436800,6.348436767578125,0.8813258409500122,-2.2272911071777344,3.2204816341400146
1761132295045437000,6.35843701171875,0.5203045010566711,-2.069687843322754,2.6108381748199463
1761132295055436800,6.368436767578125,0.1189660057425499,-1.7978527545928955,1.9297232627868652
1761132295065437000,6.37843701171875,-0.2744311988353729,-1.450270414352417,1.238223910331726
1761132295075436800,6.388436767578125,-0.5981897711753845,-1.0629818439483643,0.6017022728919983
1761132295085437000,6.39843701171875,-0.8309294581413269,-0.671417236328125,0.060475658625364304
1761132295095436800,6.408436767578125,-1.003804326057434,-0.35437819361686707,-0.3286454975605011
1761132295105437700,6.418437744140625,-1.1107057332992554,-0.031230485066771507,-0.5082398653030396
1761132295115437800,6.428437744140625,-1.1259773969650269,0.27175867557525635,-0.5192354321479797
1761132295125437700,6.438437744140625,-1.059393048286438,0.5521458387374878,-0.44715335965156555
1761132295135437800,6.448437744140625,-0.936609148979187,0.7928267121315002,-0.3640756905078888
1761132295145437700,6.458437744140625,-0.7918340563774109,0.9516516923904419,-0.3219259977340698
1761132295155437800,6.468437744140625,-0.6794348955154419,1.0047969818115234,-0.32559117674827576
1761132295165437700,6.478437744140625,-0.6159048676490784,0.9815840721130371,-0.3439171314239502
1761132295175437800,6.488437744140625,-0.5517640113830566,0.9394344091415405,-0.3500257730484009
1761132295185437700,6.498437744140625,-0.4112650156021118,0.8716283440589905,-0.3323107063770294
1761132295195437800,6.508437744140625,-0.15103642642498016,0.8404742479324341,-0.22907446324825287
1761132295205437000,6.51843701171875,0.22770002484321594,0.9308822751045227,-0.02932153269648552
1761132295215437000,6.52843701171875,0.8715519905090332,1.4116332530975342,0.08124507963657379
1761132295225437000,6.53843701171875,1.2252429723739624,1.6559792757034302,-0.27061331272125244
1761132295235437000,6.54843701171875,1.3895657062530518,1.5136476755142212,-1.0433578491210938
1761132295245437000,6.55843701171875,1.221577763557434,0.837419867515564,-2.107485055923462
1761132295255437000,6.56843701171875,0.7286095023155212,-0.6011677384376526,-3.201544761657715
1761132295265437000,6.57843701171875,0.39813143014907837,-2.114891767501831,-3.8392879962921143
1761132295275437000,6.58843701171875,0.6296493411064148,-2.628018617630005,-4.061032295227051
1761132295285437000,6.59843701171875,1.200197458267212,-2.5150086879730225,-4.0854668617248535
1761132295295437000,6.60843701171875,1.5893186330795288,-2.0275380611419678,-3.1532864570617676
1761132295305437700,6.618437744140625,1.6736180782318115,-1.091692566871643,-1.82404363155365
1761132295315437800,6.628437744140625,1.507462739944458,-0.11430815607309341,-1.205847978591919
1761132295325437700,6.638437744140625,1.1623238325119019,0.7512878775596619,-1.4831807613372803
1761132295335437800,6.648437744140625,0.527634859085083,1.4861587285995483,-2.310903310775757
1761132295345437700,6.658437744140625,-0.24388794600963593,2.103743553161621,-3.1844406127929688
1761132295355437800,6.668437744140625,-1.0129673480987549,2.41650652885437,-3.880216121673584
1761132295365437700,6.678437744140625,-1.6586518287658691,2.1947624683380127,-4.225965976715088
1761132295375437800,6.688437744140625,-2.0386099815368652,1.781206727027893,-4.078136444091797
1761132295385437700,6.698437744140625,-2.2872321605682373,1.4336243867874146,-3.4550538063049316
1761132295395437800,6.708437744140625,-2.391690254211426,1.1788935661315918,-2.6554312705993652
1761132295405437000,6.71843701171875,-2.323273181915283,0.9033933281898499,-1.9327776432037354
1761132295415437000,6.72843701171875,-2.06854248046875,0.6608798503875732,-1.3096951246261597
1761132295425437000,6.73843701171875,-1.7062993049621582,0.4519639313220978,-0.7079927921295166
1761132295435437000,6.74843701171875,-1.327562928199768,0.2754238545894623,-0.09224065393209457
1761132295445437000,6.75843701171875,-0.8260425329208374,-0.0031306843739002943,0.8087855577468872
1761132295455437000,6.76843701171875,-0.5340489149093628,-0.26946792006492615,1.36650550365448
1761132295465437000,6.77843701171875,-0.27809640765190125,-0.5669593214988708,1.86191725730896
1761132295475437000,6.78843701171875,-0.05390885844826698,-0.8100836873054504,2.252871036529541
1761132295485437000,6.79843701171875,0.1281289905309677,-0.9230937361717224,2.5137104988098145
1761132295495437000,6.80843701171875,0.2747366428375244,-0.9249263405799866,2.654820442199707
1761132295505438000,6.81843798828125,0.38896843791007996,-0.8577311635017395,2.7122416496276855
1761132295515437800,6.828437744140625,0.4677700698375702,-0.7263951301574707,2.6707029342651367
1761132295525438000,6.83843798828125,0.47571131587028503,-0.45578181743621826,2.48988676071167
1761132295535437800,6.848437744140625,0.39813143014907837,-0.064217209815979,2.169182538986206
1761132295545438000,6.85843798828125,0.2692388594150543,0.34689509868621826,1.7470746040344238
1761132295555437800,6.868437744140625,0.14645494520664215,0.7494552731513977,1.3280210494995117
1761132295565438000,6.87843798828125,0.06582073122262955,1.1080331802368164,0.9474520087242126
1761132295575437800,6.888437744140625,0.03222314268350601,1.360931396484375,0.6236934065818787
1761132295585438000,6.89843798828125,0.04688390716910362,1.5185346603393555,0.3805690407752991
1761132295595437800,6.908437744140625,0.08781187981367111,1.5551865100860596,0.18997909128665924
1761132295605437000,6.91843701171875,0.14340060949325562,1.4568372964859009,0.05497787147760391
1761132295615437000,6.92843701171875,0.20387627184391022,1.229595422744751,-0.010995574295520782
1761132295625437000,6.93843701171875,0.25274550914764404,0.875904381275177,-0.004886921960860491
1761132295635437000,6.94843701171875,0.30405816435813904,0.4470770061016083,0.08368854224681854
1761132295645437000,6.95843701171875,0.36392298340797424,0.008475755341351032,0.23396138846874237
1761132295655437000,6.96843701171875,0.4060726761817932,-0.41974079608917236,0.39156460762023926
1761132295665437000,6.97843701171875,0.3926336467266083,-0.7538840770721436,0.5491678714752197
1761132295675437000,6.98843701171875,0.3266601860523224,-0.9878454804420471,0.7538077235221863
1761132295685437000,6.99843701171875,0.29245173931121826,-1.0257190465927124,0.7947356700897217
1761132295695437000,7.00843701171875,0.2893974184989929,-0.9414197206497192,0.7898487448692322
1761132295705437700,7.018437744140625,0.38835757970809937,-0.739834189414978,0.7849618196487427
1761132295715437800,7.028437744140625,0.6327036619186401,-0.5455790162086487,0.8240572214126587
1761132295725438000,7.03843798828125,0.9723447561264038,-0.4221842288970947,0.9205739498138428
1761132295735437800,7.048437744140625,1.3321443796157837,-0.3562107980251312,1.1032226085662842
1761132295745438000,7.05843798828125,1.6339118480682373,-0.4747186601161957,1.3561208248138428
1761132295755437800,7.068437744140625,1.7273741960525513,-0.8827766180038452,1.6175711154937744
1761132295765438000,7.07843798828125,1.5276212692260742,-1.5498415231704712,1.665218710899353
1761132295775437800,7.088437744140625,1.0877982378005981,-2.9279534816741943,1.0903944969177246
1761132295785438000,7.09843798828125,0.6168211698532104,-4.499098777770996,0.04153883829712868
1761132295795437800,7.108437744140625,0.2454151064157486,-5.2803955078125,-0.9908234477043152
1761132295805437000,7.11843701171875,-0.013591751456260681,-4.979849815368652,-1.8020524978637695
1761132295815437000,7.12843701171875,-0.07528914511203766,-3.6121225357055664,-2.1734585762023926
1761132295825437000,7.13843701171875,-0.021532999351620674,-1.4380531311035156,-2.0702223777770996
1761132295835437000,7.14843701171875,-0.06551529467105865,0.7659486532211304,-1.9620991945266724
1761132295845437000,7.15843701171875,-0.26832255721092224,2.2332470417022705,-2.1459696292877197
1761132295855437000,7.16843701171875,-0.5865833759307861,2.812347173690796,-2.5699100494384766
1761132295865437000,7.17843701171875,-1.0013608932495117,2.7995190620422363,-3.009122133255005
1761132295875437000,7.18843701171875,-1.3562735319137573,2.4091761112213135,-3.336545944213867
1761132295885437000,7.19843701171875,-1.5175420045852661,1.8881081342697144,-3.508810043334961
1761132295895437000,7.20843701171875,-1.4509576559066772,1.1495720148086548,-3.3182199001312256
1761132295905437700,7.218437744140625,-1.1840095520019531,0.17707456648349762,-2.593122959136963
1761132295915437800,7.228437744140625,-0.8645270466804504,-1.11795973777771,-0.6047565937042236
1761132295925437700,7.238437744140625,-0.8254316449165344,-1.4630986452102661,0.902247965335846
1761132295935437800,7.248437744140625,-0.7863363027572632,-1.489365816116333,1.9816468954086304
1761132295945437700,7.258437744140625,-0.6207917928695679,-1.3122148513793945,2.467284679412842
1761132295955437800,7.268437744140625,-0.36361753940582275,-0.9017134308815002,2.524095296859741
1761132295965438000,7.27843798828125,-0.11499538272619247,-0.3989713490009308,2.3133466243743896
1761132295975437800,7.288437744140625,0.013286318629980087,0.0567341111600399,2.009746551513672
1761132295985438000,7.29843798828125,-0.0025961773935705423,0.3560580909252167,1.7678439617156982
1761132295995437800,7.308437744140625,-0.08567385375499725,0.5423719882965088,1.644449234008789
1761132296005437000,7.31843701171875,-0.18341228365898132,0.6456081867218018,1.6310101747512817
1761132296015437000,7.32843701171875,-0.3147483170032501,0.7079164385795593,1.6951510906219482
1761132296025437000,7.33843701171875,-0.3776674270629883,0.7292967438697815,1.7641788721084595
1761132296035437000,7.34843701171875,-0.4369213581085205,0.6468299627304077,1.757459282875061
1761132296045437000,7.35843701171875,-0.5823072791099548,0.5356524586677551,1.6701055765151978
1761132296055437000,7.36843701171875,-0.7814493775367737,0.4867832362651825,1.5320500135421753
1761132296065437000,7.37843701171875,-0.9714284539222717,0.5209916830062866,1.3139711618423462
1761132296075437000,7.38843701171875,-1.116814374923706,0.6052911281585693,0.9865473508834839
1761132296085437000,7.39843701171875,-1.2182179689407349,0.6871470212936401,0.5839871764183044
1761132296095437000,7.40843701171875,-1.2701416015625,0.7592291235923767,0.19608774781227112
1761132296105438000,7.41843798828125,-1.2353222370147705,0.8453611135482788,-0.08857546001672745
1761132296115437800,7.428437744140625,-1.126588225364685,0.9033933281898499,-0.30970868468284607
1761132296125438000,7.43843798828125,-0.9860892295837402,0.94432133436203,-0.4050036668777466
1761132296135437800,7.448437744140625,-0.7979426980018616,1.007851243019104,-0.3799581825733185
1761132296145438000,7.45843798828125,-0.46868637204170227,1.0310641527175903,-0.24129177629947662
1761132296155437800,7.468437744140625,-0.24205535650253296,0.94432133436203,-0.09407325088977814
1761132296165438000,7.47843798828125,-0.033139441162347794,0.8148179054260254,0.09346238523721695
1761132296175437800,7.488437744140625,0.11652254313230515,0.6694319248199463,0.2718350291252136
1761132296185438000,7.49843798828125,0.1537853181362152,0.49289190769195557,0.40072759985923767
1761132296195437800,7.508437744140625,0.10980302840471268,0.31146490573883057,0.4544837474822998
1761132296205437000,7.51843701171875,0.11041389405727386,0.13553573191165924,0.42088615894317627
1761132296215437000,7.52843701171875,0.23747386038303375,-0.05077817291021347,0.3323107063770294
1761132296225437200,7.538437255859375,0.5013676285743713,-0.2609158158302307,0.21380282938480377
1761132296235437000,7.54843701171875,0.8361217975616455,-0.5052618980407715,0.09529497474431992
1761132296245437200,7.558437255859375,1.067639708518982,-0.9481391906738281,0.05742133408784866
1761132296255437000,7.56843701171875,1.116508960723877,-1.4875332117080688,0.16798794269561768
1761132296265437000,7.57843701171875,0.974177360534668,-2.2138519287109375,0.1459967941045761
1761132296275437000,7.58843701171875,0.7903069257736206,-2.8161652088165283,-0.1771509200334549
1761132296285437000,7.59843701171875,0.6950119137763977,-2.9902617931365967,-0.8332201838493347
1761132296295437000,7.60843701171875,0.7212791442871094,-2.6823856830596924,-1.7427985668182373
1761132296305438000,7.61843798828125,0.7848091125488281,-2.0544161796569824,-2.7293457984924316
1761132296315437800,7.628437744140625,0.811687171459198,-0.9792933464050293,-3.2791247367858887
1761132296325438000,7.63843798828125,0.8440630435943604,0.2796999216079712,-3.154508113861084
1761132296335437800,7.648437744140625,0.9381362795829773,1.3786464929580688,-2.626720666885376
1761132296345438000,7.65843798828125,0.9760099649429321,1.9272035360336304,-2.1252002716064453
1761132296355437800,7.668437744140625,0.869719386100769,1.9571359157562256,-1.7812830209732056
1761132296365438000,7.67843798828125,0.6834055185317993,1.5722907781600952,-1.567480206489563
1761132296375437800,7.688437744140625,0.3162754774093628,0.7305184602737427,-1.3487904071807861
1761132296385438000,7.69843798828125,0.10552696883678436,0.2949715554714203,-1.214400053024292
1761132296395437800,7.708437744140625,-0.04841107130050659,0.0188604649156332,-1.0873401165008545
1761132296405437000,7.71843701171875,-0.17302757501602173,-0.06360634416341782,-1.0024298429489136
1761132296415437000,7.72843701171875,-0.26832255721092224,-0.017180584371089935,-0.8784242272377014
1761132296425437000,7.73843701171875,-0.28787025809288025,0.12637275457382202,-0.5766568183898926
1761132296435437000,7.74843701171875,-0.24694228172302246,0.30230194330215454,-0.11667526513338089
1761132296445437000,7.75843701171875,-0.16569720208644867,0.3792709708213806,0.39767327904701233
1761132296455436800,7.768436767578125,-0.035582900047302246,0.3585015535354614,0.9059131741523743
1761132296465437000,7.77843701171875,0.10064005106687546,0.27053695917129517,1.3622294664382935
1761132296475436800,7.788436767578125,0.20631973445415497,0.12576188147068024,1.7342463731765747
1761132296485437000,7.79843701171875,0.24785856902599335,-0.028787024319171906,2.0054705142974854
1761132296495436800,7.808436767578125,0.21609358489513397,-0.1509600728750229,2.188730239868164
1761132296505437700,7.818437744140625,0.13484850525856018,-0.2260964959859848,2.29746413230896
1761132296515437800,7.828437744140625,0.05054909735918045,-0.21387919783592224,2.3487768173217773
1761132296525437700,7.838437744140625,-0.012980886735022068,-0.15829046070575714,2.280359983444214
1761132296535437800,7.848437744140625,-0.23105977475643158,-0.18883371353149414,2.065335512161255
1761132296545437700,7.858437744140625,-0.584750771522522,-0.12347114086151123,1.7831156253814697
1761132296555437800,7.868437744140625,-0.916450560092926,-0.002519819187000394,1.4330898523330688
1761132296565437700,7.878437744140625,-1.1791226863861084,0.16485725343227386,1.0409144163131714
1761132296575437800,7.888437744140625,-1.3562735319137573,0.4409683346748352,0.6951646208763123
1761132296585437700,7.898437744140625,-1.4369077682495117,0.8062657713890076,0.3988949954509735
1761132296595437800,7.908437744140625,-1.4650075435638428,1.0622183084487915,0.13072516024112701
1761132296605437000,7.91843701171875,-1.3923145532608032,1.31206214427948,-0.1014036312699318
1761132296615437000,7.92843701171875,-1.257924199104309,1.3786464929580688,-0.17104226350784302
1761132296625437000,7.93843701171875,-1.0856602191925049,1.359709620475769,-0.1973094791173935
1761132296635437000,7.94843701171875,-0.9488264322280884,1.2521973848342896,-0.19914206862449646
1761132296645437000,7.95843701171875,-0.887739896774292,1.028620719909668,-0.21013765037059784
1761132296655437000,7.96843701171875,-0.8437576293945312,0.7354053854942322,-0.2321287989616394
1761132296665437000,7.97843701171875,-0.783892810344696,0.3853796124458313,-0.2620611786842346
1761132296675437000,7.98843701171875,-0.6837109327316284,-0.00862847175449133,-0.26939156651496887
1761132296685437000,7.99843701171875,-0.5071708559989929,-0.39041924476623535,-0.2070833146572113
1761132296695437000,8.00843701171875,-0.2444988191127777,-0.701349675655365,-0.07024950534105301
1761132296705437700,8.018437744140625,0.09636399149894714,-0.930424153804779,0.1313360333442688
1761132296715437800,8.028437744140625,0.4512766897678375,-1.1436160802841187,0.4092797040939331
1761132296725438000,8.03843798828125,0.7658722996711731,-1.2682325839996338,0.7672467231750488
1761132296735437800,8.048437744140625,1.0468703508377075,-1.0642036199569702,1.1087204217910767
1761132296745438000,8.05843798828125,1.2246321439743042,-0.7868707776069641,1.1661417484283447
1761132296755437800,8.068437744140626,1.2441798448562622,-0.6091089844703674,0.8301658630371094
1761132296765438000,8.07843798828125,1.0951286554336548,-0.5852852463722229,0.016493361443281174
1761132296775437800,8.088437744140625,0.8660541772842407,-0.7141778469085693,-1.1355985403060913
1761132296785438000,8.09843798828125,0.6418666839599609,-1.0000628232955933,-2.3487768173217773
1761132296795437800,8.108437744140625,0.45555275678634644,-1.5052483081817627,-3.405573844909668
1761132296805437000,8.11843701171875,0.39813143014907837,-1.7214946746826172,-3.6700782775878906
1761132296815437000,8.12843701171875,0.611934244632721,-0.910876452922821,-3.012176513671875
1761132296825437000,8.13843701171875,0.9130908250808716,0.3145192563533783,-2.216830015182495
1761132296835437000,8.14843701171875,1.1366674900054932,1.44767427444458,-1.5540411472320557
1761132296845437000,8.15843701171875,1.040150761604309,1.7207310199737549,-1.4025466442108154
1761132296855437000,8.16843701171875,0.7567093372344971,1.750052571296692,-1.3176363706588745
1761132296865437000,8.17843701171875,0.41951170563697815,1.591227650642395,-1.2034045457839966
1761132296875437000,8.18843701171875,0.14767667651176453,1.2302062511444092,-1.0879509449005127
1761132296885437000,8.19843701171875,0.04749477282166481,0.8172613382339478,-0.9144652485847473
1761132296895437000,8.20843701171875,0.1690569519996643,0.4971679449081421,-0.5791002511978149
1761132296905438000,8.21843798828125,0.43478333950042725,0.2943606972694397,-0.07513642311096191
1761132296915437800,8.228437744140624,0.7200574278831482,0.14103351533412933,0.5369505286216736
1761132296925438000,8.23843798828125,0.982729434967041,0.004810563754290342,1.187522053718567
1761132296935437800,8.248437744140626,1.1782063245773315,-0.11614075303077698,1.8038851022720337
1761132296945438000,8.25843798828125,1.2832751274108887,-0.24381159245967865,2.3102922439575195
1761132296955437800,8.268437744140625,1.3235923051834106,-0.39103010296821594,2.669481039047241
1761132296965438000,8.27843798828125,1.3364204168319702,-0.46189048886299133,2.933985710144043
1761132296975437800,8.288437744140625,1.3009902238845825,-0.4539492428302765,3.087312936782837
1761132296985438000,8.29843798828125,1.2081387042999268,-0.45028403401374817,3.1196887493133545
1761132296995437800,8.308437744140624,1.0395399332046509,-0.43684500455856323,3.067765235900879
1761132297005437000,8.31843701171875,0.8055785298347473,-0.4386776089668274,2.9358184337615967
1761132297015437000,8.32843701171875,0.5636758804321289,-0.439288467168808,2.7452285289764404
1761132297025437000,8.33843701171875,0.40424007177352905,-0.368428111076355,2.5143213272094727
1761132297035437000,8.34843701171875,0.3254384696483612,-0.34460434317588806,2.2296581268310547
1761132297045437000,8.35843701171875,0.2093740701675415,-0.41118866205215454,1.955379605293274
1761132297055437000,8.36843701171875,0.029168816283345222,-0.477772980928421,1.777006983757019
1761132297065437000,8.37843701171875,-0.3666718602180481,-0.6225480437278748,1.5986343622207642
1761132297075437000,8.38843701171875,-0.7276932001113892,-0.7092909216880798,1.4355332851409912
1761132297085437000,8.39843701171875,-1.1137601137161255,-0.8992699980735779,1.2302825450897217
1761132297095437000,8.40843701171875,-1.4344643354415894,-1.1173489093780518,1.0574077367782593
1761132297105437700,8.418437744140626,-1.6281086206436157,-1.2108112573623657,0.9425650835037231
1761132297115437800,8.428437744140625,-1.7185167074203491,-1.358029842376709,0.8503243923187256
1761132297125437700,8.438437744140625,-1.774105429649353,-1.5620588064193726,0.8533787727355957
1761132297135437800,8.448437744140625,-1.7453947067260742,-1.605430245399475,1.086118459701538
1761132297145437700,8.458437744140625,-1.6226108074188232,-1.6103171110153198,1.557706356048584
1761132297155437800,8.468437744140624,-1.4301882982254028,-1.5883259773254395,2.020742177963257
1761132297165438000,8.47843798828125,-1.2078332901000977,-1.7416532039642334,2.328618288040161
1761132297175437800,8.488437744140626,-1.0734429359436035,-1.8247308731079102,2.5106561183929443
1761132297185437700,8.498437744140626,-1.013578176498413,-1.7331010103225708,2.6090054512023926
1761132297195437800,8.508437744140625,-1.0031934976577759,-1.4068989753723145,2.538145065307617
1761132297205437000,8.51843701171875,-1.1302534341812134,-1.2401328086853027,2.0952677726745605
1761132297215437000,8.52843701171875,-1.419803500175476,-1.4918092489242554,1.1178834438323975
1761132297225437000,8.53843701171875,-1.8852828741073608,-2.2755494117736816,-0.30543261766433716
1761132297235437000,8.54843701171875,-2.1901047229766846,-2.7837893962860107,-1.7666223049163818
1761132297245437000,8.55843701171875,-2.1626157760620117,-3.1851277351379395,-3.0335566997528076
1761132297255437000,8.56843701171875,-2.020895004272461,-3.4447455406188965,-3.7079520225524902
1761132297265437000,8.57843701171875,-1.8535178899765015,-3.0898327827453613,-3.5246925354003906
1761132297275436800,8.588436767578125,-1.731955647468567,-2.155819892883301,-2.7061331272125244
1761132297285437000,8.59843701171875,-1.5725198984146118,-0.956691324710846,-1.6395623683929443
1761132297295436800,8.608436767578125,-1.0270172357559204,0.6822600960731506,-0.29993483424186707
1761132297305437700,8.618437744140625,-0.5560401082038879,1.391474723815918,0.13500121235847473
1761132297315437800,8.628437744140625,-0.0630718395113945,1.8099173307418823,0.12400564551353455
1761132297325437700,8.638437744140624,0.36819902062416077,1.7286722660064697,-0.22113321721553802
1761132297335437800,8.648437744140624,0.650418758392334,1.5496888160705566,-0.5925393104553223
1761132297345437700,8.658437744140626,0.9582948684692383,1.313283920288086,-0.8478809595108032
1761132297355437800,8.668437744140626,1.2838860750198364,0.8972846865653992,-0.9254608750343323
1761132297365437000,8.67843701171875,1.440267562866211,0.43913576006889343,-0.8503243923187256
1761132297375437000,8.68843701171875,1.363909363746643,0.0365755558013916,-0.6841690540313721
1761132297385437000,8.69843701171875,1.1201741695404053,-0.2713005244731903,-0.4709770977497101
1761132297395437000,8.70843701171875,0.7945829629898071,-0.32444581389427185,-0.25961771607398987
1761132297405436200,8.718436279296874,0.4970915913581848,-0.21693351864814758,-0.04337143152952194
1761132297415436000,8.72843603515625,0.2814561724662781,0.04268420860171318,0.1472185254096985
1761132297425436200,8.738436279296875,0.15561792254447937,0.3090214431285858,0.27611109614372253
1761132297435436000,8.74843603515625,0.0731511116027832,0.5051091909408569,0.3292563557624817
1761132297445436200,8.758436279296875,0.020616702735424042,0.6865361928939819,0.35063666105270386
1761132297455436000,8.76843603515625,0.013897184282541275,0.9180541038513184,0.3732386529445648
1761132297465436200,8.778436279296875,0.08659014850854874,1.323057770729065,0.43615779280662537
1761132297475436000,8.78843603515625,0.19288070499897003,1.4513394832611084,0.4893030524253845
1761132297485436200,8.798436279296874,0.2961169183254242,1.5832864046096802,0.5919284224510193
1761132297495436000,8.80843603515625,0.37797287106513977,1.855121374130249,0.7586946487426758
1761132297505437000,8.81843701171875,0.36942076683044434,1.9461402893066406,0.8552113175392151
1761132297515437000,8.82843701171875,0.2295326143503189,1.7372243404388428,0.7904596328735352
1761132297525437000,8.83843701171875,-0.20906862616539001,0.8820130825042725,0.34025195240974426
1761132297535437000,8.84843701171875,-0.5768095254898071,0.13981178402900696,-0.14844025671482086
1761132297545437000,8.85843701171875,-0.8804095387458801,-0.5125923156738281,-0.675616979598999
1761132297555437000,8.86843701171875,-1.0282388925552368,-0.995786726474762,-1.1478158235549927
1761132297565437200,8.878437255859374,-1.0465649366378784,-1.2670109272003174,-1.4886785745620728
1761132297575437000,8.88843701171875,-0.9738719463348389,-1.3574188947677612,-1.6389514207839966
1761132297585437200,8.898437255859376,-0.8480336666107178,-1.375133991241455,-1.6016886234283447
1761132297595437000,8.90843701171875,-0.7185302376747131,-1.282893419265747,-1.4135421514511108
1761132297605436200,8.918436279296875,-0.6690501570701599,-1.0458776950836182,-1.072068452835083
1761132297615436300,8.928436279296875,-0.49617528915405273,-0.7306711673736572,-0.6133087277412415
1761132297625436200,8.938436279296875,-0.29275718331336975,-0.38003453612327576,-0.13561208546161652
1761132297635436300,8.948436279296875,-0.12232576310634613,-0.1497383415699005,0.2742784917354584
1761132297645436200,8.958436279296874,-0.006261368747800589,-0.032452214509248734,0.5748242139816284
1761132297655436300,8.968436279296874,0.06154467165470123,-0.00557414535433054,0.770301103591919
1761132297665437000,8.97843701171875,0.11041389405727386,0.023747386410832405,0.8643743395805359
1761132297675437000,8.98843701171875,0.16661348938941956,0.08116871863603592,0.8570439219474792
1761132297685437000,8.99843701171875,0.22403483092784882,0.12148582190275192,0.7507534027099609
1761132297695437000,9.00843701171875,0.24908030033111572,0.16058120131492615,0.5638286471366882
1761132297705438000,9.01843798828125,0.21670444309711456,0.19234620034694672,0.3121521472930908
1761132297715437800,9.028437744140625,0.12996158003807068,0.15935947000980377,0.036651913076639175
1761132297725438000,9.03843798828125,0.012064588256180286,0.13370312750339508,-0.23945917189121246
1761132297735437800,9.048437744140625,-0.09483683109283447,0.1727984994649887,-0.4813618063926697
1761132297745438000,9.05843798828125,-0.17730364203453064,0.2393828183412552,-0.6780604124069214
1761132297755437800,9.068437744140626,-0.2249511331319809,0.258930504322052,-0.8045095205307007
1761132297765438000,9.07843798828125,-0.23716843128204346,0.21555908024311066,-0.8063421249389648
1761132297775437800,9.088437744140625,-0.19624045491218567,0.2289981096982956,-0.6743952035903931
1761132297785438000,9.09843798828125,-0.11316278576850891,0.3004693388938904,-0.47219884395599365
1761132297795437800,9.108437744140625,-0.006261368747800589,0.4018729627132416,-0.26022860407829285
1761132297805437000,9.11843701171875,0.10552696883678436,0.5093852281570435,-0.07635815441608429
1761132297815437000,9.12843701171875,0.19226983189582825,0.5466480255126953,0.07024950534105301
1761132297825437000,9.13843701171875,0.23686300218105316,0.5099961161613464,0.20402899384498596
1761132297835437000,9.14843701171875,0.24297164380550385,0.42386412620544434,0.3390302062034607
1761132297845437000,9.15843701171875,0.2246456891298294,0.32307136058807373,0.4593706727027893
1761132297855437000,9.16843701171875,0.1941024363040924,0.25037840008735657,0.5247332453727722
1761132297865437000,9.17843701171875,0.14767667651176453,0.1984548419713974,0.5112941861152649
1761132297875437000,9.18843701171875,0.0933096632361412,0.14347697794437408,0.44287729263305664
1761132297885437000,9.19843701171875,0.05360342562198639,0.09399688988924026,0.35185837745666504
1761132297895437000,9.20843701171875,0.0377209298312664,0.05062545835971832,0.251676470041275
1761132297905437700,9.218437744140624,0.046273041516542435,-0.0031306843739002943,0.16432274878025055
1761132297915437800,9.228437744140624,0.06459899991750717,-0.08132143318653107,0.12400564551353455
1761132297925437700,9.238437744140626,0.0884227454662323,-0.14790575206279755,0.14355333149433136
1761132297935437800,9.248437744140626,0.12507465481758118,-0.15218180418014526,0.20586158335208893
1761132297945437700,9.258437744140625,0.164170041680336,-0.09292787313461304,0.27061331272125244
1761132297955437800,9.268437744140625,0.19288070499897003,-0.0012980886967852712,0.30115658044815063
1761132297965437700,9.278437744140625,0.19654589891433716,0.09949467331171036,0.2571742534637451
1761132297975437800,9.288437744140625,0.18310685455799103,0.20150917768478394,0.16065755486488342
1761132297985438000,9.29843798828125,0.16172657907009125,0.3035236597061157,0.06352998316287994
1761132297995437800,9.308437744140624,0.08720101416110992,0.3994295001029968,-0.02626720629632473
1761132298005437200,9.318437255859376,0.028557950630784035,0.4568508565425873,-0.03787364438176155
1761132298015437000,9.32843701171875,0.0010690141934901476,0.5179373621940613,-0.0024434609804302454
1761132298025437000,9.33843701171875,-0.008704829961061478,0.6052911281585693,0.10384709388017654
1761132298035437000,9.34843701171875,-0.055741455405950546,0.46784642338752747,0.25045475363731384
1761132298045437000,9.35843701171875,-0.047189339995384216,0.10499246418476105,0.2632829248905182
1761132298055437000,9.36843701171875,-0.01542434748262167,-0.1705077588558197,0.20097467303276062
1761132298065437000,9.37843701171875,0.02733621932566166,-0.397138774394989,0.1368338167667389
1761132298075437000,9.38843701171875,0.08231408894062042,-0.559018075466156,0.08307767659425735
1761132298085437000,9.39843701171875,0.1385136991739273,-0.65248042345047,0.021380282938480377
1761132298095437000,9.40843701171875,0.1440114825963974,-0.6750824451446533,-0.03481931984424591
1761132298105438000,9.41843798828125,0.12324206531047821,-0.6237697601318359,-0.06780604273080826
