time,seconds_elapsed,z,y,x
1761132079135867000,0.119866943359375,0.020376205444335938,0.01700711064040661,0.02533690631389618
1761132079165865700,0.14986572265625,0.020383834838867188,0.01751912198960781,0.024949148297309875
1761132079175865900,0.159865966796875,0.0203857421875,0.017684681341052055,0.024833545088768005
1761132079185865700,0.16986572265625,0.020386695861816406,0.01767866499722004,0.024775013327598572
1761132079195865900,0.179865966796875,0.0203857421875,0.01759861595928669,0.02476353943347931
1761132079205865700,0.18986572265625,0.0203857421875,0.017598489299416542,0.024763479828834534
1761132079215862000,0.199862060546875,0.0203857421875,0.01758462004363537,0.024823874235153198
1761132079225862100,0.209862060546875,0.020384788513183594,0.017571130767464638,0.024884402751922607
1761132079235862000,0.219862060546875,0.020384788513183594,0.017694206908345222,0.024930909276008606
1761132079245862100,0.229862060546875,0.020384788513183594,0.017733601853251457,0.024927034974098206
1761132079255862000,0.239862060546875,0.0203857421875,0.017791373655200005,0.024920731782913208
1761132079265862100,0.249862060546875,0.0203857421875,0.01778523065149784,0.024862155318260193
1761132079275862000,0.259862060546875,0.0203857421875,0.01770074851810932,0.02481164038181305
1761132079285862100,0.269862060546875,0.020386695861816406,0.017692724242806435,0.024733588099479675
1761132079295862300,0.2798623046875,0.020386695861816406,0.017678847536444664,0.024793997406959534
1761132079305862100,0.289862060546875,0.02038860321044922,0.017745232209563255,0.02466905117034912
1761132079315862300,0.2998623046875,0.020387649536132812,0.017726527526974678,0.02467121183872223
1761132079325862100,0.309862060546875,0.02038860321044922,0.017836762592196465,0.024600476026535034
1761132079335862300,0.3198623046875,0.02039051055908203,0.01795049197971821,0.02454952895641327
1761132079345862100,0.329862060546875,0.02039051055908203,0.01805443875491619,0.02459818124771118
1761132079355862300,0.3398623046875,0.020391464233398438,0.01810733787715435,0.024533763527870178
1761132079365862100,0.349862060546875,0.025180816650390625,0.013432363048195839,-0.02100697159767151
1761132079375862300,0.3598623046875,0.02517986297607422,0.013358330354094505,-0.020959928631782532
1761132079385862100,0.369862060546875,0.022785186767578125,0.0036624595522880554,-0.006602182984352112
1761132079395862300,0.3798623046875,0.03235912322998047,-0.0012508630752563477,-0.004077032208442688
1761132079405862100,0.389862060546875,0.008417129516601562,0.01082884892821312,0.010394871234893799
1761132079415861200,0.399861328125,0.022780418395996094,0.003514062613248825,0.017630696296691895
1761132079425861400,0.409861328125,0.027570724487304688,0.00356094166636467,0.0031425505876541138
1761132079435861200,0.419861328125,0.010809898376464844,-0.01086985319852829,0.005661860108375549
1761132079445861400,0.429861328125,0.03235912322998047,-0.0013071298599243164,-0.00405140221118927
1761132079455861200,0.439861328125,0.027570724487304688,-0.006218615919351578,-0.008886292576789856
1761132079465861400,0.449861328125,0.013203620910644531,0.015319723635911942,-0.0039983391761779785
1761132079475861200,0.459861328125,0.02996349334716797,0.0008706599473953247,-0.0039847493171691895
1761132079485861400,0.469861328125,0.017992019653320312,0.008051838725805283,-0.0016053467988967896
1761132079495861200,0.479861328125,-0.008344650268554688,0.007861044257879257,-0.0015466809272766113
1761132079505861400,0.489861328125,-0.10411548614501953,0.02204049378633499,0.012935712933540344
1761132079515862000,0.499862060546875,-0.5542287826538086,0.0002941340208053589,0.020296022295951843
1761132079525862100,0.509862060546875,0.9828424453735352,0.0905597060918808,-0.04160548746585846
1761132079535862300,0.5198623046875,0.5279245376586914,-0.01876542717218399,0.002576008439064026
1761132079545862100,0.529862060546875,-0.0035734176635742188,0.09413428604602814,0.025514721870422363
1761132079575862000,0.559862060546875,0.11855316162109375,0.0661705732345581,-0.0017495304346084595
1761132079585862000,0.56986181640625,0.18558311462402344,-0.02027396857738495,0.04187987744808197
1761132079595861800,0.57986181640625,-0.14241886138916016,-0.04444732517004013,0.055915966629981995
1761132079605862000,0.58986181640625,0.013210296630859375,-0.02800401672720909,0.017056867480278015
1761132079615861000,0.599861083984375,0.23108291625976562,0.029342878609895706,-0.0021461844444274902
1761132079625861000,0.609861083984375,0.03236198425292969,0.03431003913283348,-0.037926048040390015
1761132079635861000,0.619861083984375,-0.1448068618774414,0.024964148178696632,-0.006860122084617615
1761132079645861000,0.629861083984375,-0.053824424743652344,0.0011048763990402222,-0.026197880506515503
1761132079655861000,0.639861083984375,0.1616535186767578,0.008090276271104813,-0.0501432791352272
1761132079665861000,0.649861083984375,0.1113739013671875,0.005599969998002052,-0.0572982132434845
1761132079675861000,0.659861083984375,-0.053826332092285156,0.003047354519367218,-0.03338203579187393
1761132079685861000,0.669861083984375,-0.053826332092285156,0.01011187955737114,0.03605939447879791
1761132079695861000,0.679861083984375,0.1377086639404297,-0.0019096620380878448,0.05531559884548187
1761132079705861000,0.689861083984375,0.032360076904296875,-0.023517809808254242,0.041171878576278687
1761132079715861800,0.69986181640625,-0.26691532135009766,-0.03095575049519539,0.060327157378196716
1761132079725862000,0.70986181640625,-0.49436473846435547,0.007129602134227753,0.03632467985153198
1761132079735861800,0.71986181640625,1.1528387069702148,0.13821280002593994,-0.02075199782848358
1761132079745862000,0.72986181640625,0.30767154693603516,0.022051813080906868,-0.03679841756820679
1761132079755861800,0.73986181640625,-0.4321174621582031,-0.18540015816688538,-0.05716359615325928
1761132079765862000,0.74986181640625,-0.2860536575317383,0.017356043681502342,-0.06038299947977066
1761132079775862000,0.759862060546875,0.09700965881347656,0.11092308163642883,-0.011845499277114868
1761132079785862000,0.76986181640625,0.14010143280029297,0.05369095131754875,-0.030624262988567352
1761132079795862000,0.779862060546875,0.03714275360107422,-0.051845625042915344,0.015393301844596863
1761132079805862000,0.78986181640625,-0.14960289001464844,-0.08589696884155273,0.086968332529068
1761132079815861000,0.799861083984375,0.10657978057861328,-0.031078189611434937,0.08420105278491974
1761132079835861000,0.819861083984375,-0.03946685791015625,0.04342261701822281,0.012449756264686584
1761132079845861000,0.829861083984375,-0.1495962142944336,-0.0019893310964107513,-0.009340852499008179
1761132079855861000,0.839861083984375,0.0036373138427734375,0.00774092972278595,-0.050330422818660736
1761132079865861000,0.849861083984375,0.18559646606445312,0.036337774246931076,-0.0646451935172081
1761132079875861200,0.859861328125,0.032364845275878906,0.0026499591767787933,-0.07652340084314346
1761132079885861400,0.869861328125,-0.0897378921508789,-0.002204805612564087,-0.05746251344680786
1761132079895861200,0.879861328125,0.02039337158203125,-0.006881270557641983,0.00495438277721405
1761132079905861400,0.889861328125,0.11137104034423828,0.04115413501858711,0.03624367713928223
1761132079915862000,0.899862060546875,0.013210296630859375,0.010082904249429703,0.04575686156749725
1761132079925862100,0.909862060546875,-0.0945272445678711,-0.04736825451254845,0.07197412848472595
1761132079935862000,0.919862060546875,-0.15916919708251953,-0.025833800435066223,0.07421183586120605
1761132079945862100,0.929862060546875,-0.8415193557739258,-0.009178295731544495,0.02170562744140625
1761132079955862000,0.939862060546875,1.6221065521240234,0.1840389370918274,-0.04252433776855469
1761132079965862100,0.949862060546875,0.1903553009033203,-0.1077880710363388,-0.03922513127326965
1761132079975862300,0.9598623046875,-0.4273223876953125,-0.2597212493419647,-0.052878499031066895
1761132079985862100,0.969862060546875,-0.3291454315185547,0.09438186138868332,-0.02713426947593689
1761132079995862300,0.9798623046875,0.05152130126953125,0.16412392258644104,-0.002312377095222473
1761132080005862100,0.989862060546875,0.07546043395996094,-0.012885071337223053,-0.009212881326675415
1761132080015861200,0.999861328125,0.04672431945800781,-0.05614535138010979,0.05581815540790558
1761132080025861400,1.009861328125,-0.06580066680908203,-0.04963446781039238,0.08907750248908997
1761132080035861200,1.019861328125,0.1616506576538086,0.028948407620191574,0.04799790680408478
1761132080045861400,1.029861328125,0.26698970794677734,0.006981901824474335,0.019676029682159424
1761132080055861200,1.039861328125,-0.05383110046386719,-0.04532526805996895,-0.006769061088562012
1761132080065861400,1.049861328125,-0.15198993682861328,-0.008788961917161942,-0.011628955602645874
1761132080075861200,1.059861328125,-0.07297706604003906,0.06335314363241196,-0.03339981287717819
1761132080085861000,1.069861083984375,0.14249706268310547,0.027562987059354782,-0.02114357054233551
1761132080095861200,1.079861328125,0.037148475646972656,-0.020394448190927505,-0.03999589383602142
1761132080105861000,1.089861083984375,-0.027495384216308594,-0.03249865397810936,-0.020791709423065186
1761132080115862000,1.099862060546875,0.013205528259277344,0.03693319857120514,0.012727111577987671
1761132080125862100,1.109862060546875,0.15206623077392578,0.03225792571902275,-0.0038643479347229004
1761132080135862000,1.119862060546875,-0.005950927734375,-0.034611742943525314,0.008230611681938171
1761132080145862100,1.129862060546875,-0.08735084533691406,-0.05366716533899307,0.03671689331531525
1761132080155862000,1.139862060546875,0.049118995666503906,0.0036715418100357056,0.017514362931251526
1761132080165862100,1.149862060546875,0.13770198822021484,0.04197219759225845,0.029643341898918152
1761132080175862000,1.159862060546875,-0.027497291564941406,-0.012975543737411499,0.024864763021469116
1761132080185862100,1.169862060546875,-0.013129234313964844,-0.04645071551203728,0.010318636894226074
1761132080195862000,1.179862060546875,0.010814666748046875,0.013410346582531929,-0.013781405985355377
1761132080205862100,1.189862060546875,0.049121856689453125,0.04465673118829727,-0.01133844256401062
1761132080215861200,1.199861328125,0.022785186767578125,0.03518374636769295,-0.020845308899879456
1761132080225861400,1.209861328125,-0.00833892822265625,-0.012764636427164078,-0.042466163635253906
1761132080235861800,1.21986181640625,0.049121856689453125,-0.02007177099585533,-0.03056388348340988
1761132080245861600,1.229861572265625,0.08742904663085938,-0.0009934790432453156,-0.02812425047159195
1761132080255861800,1.23986181640625,0.051514625549316406,0.013359734788537025,-0.0016887485980987549
1761132080265861600,1.249861572265625,-0.015522956848144531,0.001361500471830368,0.02215719223022461
1761132080275861800,1.25986181640625,0.013210296630859375,-0.03217192366719246,0.02916388213634491
1761132080285861600,1.269861572265625,0.08024883270263672,-0.015300147235393524,0.019518837332725525
1761132080295861800,1.27986181640625,0.06109809875488281,0.025523124262690544,0.0432734489440918
1761132080305861600,1.289861572265625,0.013214111328125,0.013409191742539406,0.016870543360710144
1761132080315862500,1.299862548828125,0.01800537109375,-0.029740892350673676,0.01909179985523224
1761132080325862700,1.309862548828125,0.06589031219482422,-0.0032912082970142365,-0.007293298840522766
1761132080335862500,1.319862548828125,0.04194831848144531,0.02302589640021324,-0.016868464648723602
1761132080345862400,1.3298623046875,-0.02508831024169922,0.006137857213616371,-0.005024567246437073
1761132080355862500,1.339862548828125,0.010825157165527344,0.006137857213616371,-0.005024567246437073
1761132080365862400,1.3498623046875,0.02998065948486328,0.0061333756893873215,-0.012265652418136597
1761132080375862500,1.359862548828125,0.044345855712890625,0.013355458155274391,-0.00029775500297546387
1761132080385862400,1.3698623046875,0.04434680938720703,0.015798568725585938,0.01873372495174408
1761132080395862500,1.379862548828125,0.006039619445800781,-0.005809508264064789,0.013930633664131165
1761132080405862700,1.389862548828125,0.039559364318847656,-0.015272416174411774,0.009093359112739563
1761132080415861800,1.39986181640625,0.04195213317871094,0.011112630367279053,0.01399579644203186
1761132080425861600,1.409861572265625,0.0036439895629882812,0.008703745901584625,-0.014674372971057892
1761132080435861800,1.41986181640625,0.006039619445800781,0.006406450644135475,-0.0003174096345901489
1761132080445861600,1.429861572265625,0.03237438201904297,-0.007836621254682541,0.018885105848312378
1761132080455861500,1.439861572265625,0.056313514709472656,0.00883914902806282,0.0023095309734344482
1761132080465861400,1.449861328125,-0.0011472702026367188,-0.00797603651881218,-0.007223457098007202
1761132080475861500,1.459861572265625,-0.0011463165283203125,0.015941184014081955,-0.00009799003601074219
1761132080485861400,1.469861328125,-0.4847755432128906,-0.03690917044878006,0.047780945897102356
1761132080495861500,1.479861572265625,-0.14958953857421875,0.025087596848607063,-0.07667691260576248
1761132080505861400,1.489861328125,1.5502700805664062,0.3205311894416809,-0.024980634450912476
1761132080515862300,1.4998623046875,-0.3722867965698242,-0.3362346589565277,0.013548970222473145
1761132080525862400,1.5098623046875,-0.7648906707763672,-0.12469439208507538,0.008542850613594055
1761132080535861800,1.51986181640625,-0.0298614501953125,0.15260881185531616,0.03705105185508728
1761132080545862000,1.52986181640625,0.056321144104003906,0.1481214463710785,0.011477604508399963
1761132080555861800,1.53986181640625,0.34361839294433594,-0.026908032596111298,0.021567344665527344
1761132080568952600,1.55295263671875,-0.12564849853515625,-0.1036890521645546,0.01691068708896637
1761132080578952400,1.562952392578125,-0.01790618896484375,-0.042159974575042725,0.018931537866592407
1761132080588952600,1.57295263671875,0.31009864807128906,0.06763692945241928,-0.04095430672168732
1761132080598952400,1.582952392578125,0.09461116790771484,0.07966190576553345,-0.03312670439481735
1761132080608952600,1.59295263671875,-0.06340408325195312,-0.022957731038331985,-0.023596882820129395
1761132080618951700,1.60295166015625,-0.18310832977294922,0.013158204033970833,-0.00004582107067108154
1761132080628951800,1.612951904296875,0.06110191345214844,0.04423309862613678,-0.04086160659790039
1761132080638951700,1.62295166015625,0.22150897979736328,0.03683904930949211,-0.014232151210308075
1761132080648951800,1.632951904296875,-0.008336067199707031,-0.02332834154367447,0.0025533437728881836
1761132080658951700,1.64295166015625,-0.14240741729736328,-0.02578473463654518,0.026224851608276367
1761132080668951800,1.652951904296875,0.08983135223388672,-0.006444159895181656,0.05484117567539215
1761132080678951700,1.66295166015625,0.18080711364746094,0.02717718482017517,0.03597424924373627
1761132080688951800,1.672951904296875,-0.09691905975341797,-0.0015361644327640533,0.002415001392364502
1761132080698951700,1.68295166015625,-0.10170459747314453,-0.0517721101641655,0.016579851508140564
1761132080708951800,1.692951904296875,0.11616706848144531,0.010405823588371277,0.01905885338783264
1761132080718952700,1.70295263671875,0.11616134643554688,0.026981864124536514,-0.009282231330871582
1761132080728952600,1.71295263671875,-0.2788867950439453,-0.025824617594480515,-0.008995741605758667
1761132080738952700,1.72295263671875,-1.0665788650512695,-0.06431347131729126,-0.006664857268333435
1761132080748952600,1.73295263671875,1.526331901550293,0.22691209614276886,-0.07802551239728928
1761132080758953000,1.742952880859375,0.30047130584716797,-0.0435546450316906,-0.028414137661457062
1761132080768952800,1.752952880859375,-0.4967794418334961,-0.2199055403470993,-0.02487500011920929
1761132080778953000,1.762952880859375,-0.4799947738647461,0.03874768316745758,0.012164533138275146
1761132080788952800,1.772952880859375,0.0682687759399414,0.11815294623374939,0.06557191908359528
1761132080798953000,1.782952880859375,0.2717742919921875,0.04664153233170509,0.02749459445476532
1761132080808952800,1.792952880859375,0.039528846740722656,-0.06601643562316895,0.04242168366909027
1761132080818952000,1.802951904296875,-0.17115402221679688,-0.07861222326755524,0.0681205540895462
1761132080828952000,1.8129521484375,0.06587982177734375,-0.004447504878044128,0.00999501347541809
1761132080838952000,1.822951904296875,0.28613948822021484,0.07940022647380829,-0.01573515683412552
1761132080848952000,1.8329521484375,0.015593528747558594,0.041295234113931656,-0.034826844930648804
1761132080858952000,1.842951904296875,-0.2333993911743164,-0.003995854407548904,-0.035040006041526794
1761132080868951300,1.852951416015625,-0.022705078125,-0.02076530084013939,-0.044970400631427765
1761132080878951200,1.862951171875,0.26220226287841797,0.05578356236219406,-0.07353809475898743
1761132080888951300,1.872951416015625,0.06826972961425781,0.026967573910951614,-0.04703753441572189
1761132080898951200,1.882951171875,-0.14242076873779297,-0.03779365494847298,-0.01350916177034378
1761132080908951300,1.892951416015625,-0.015529632568359375,-0.025757521390914917,0.03923659026622772
1761132080918952200,1.9029521484375,0.21191787719726562,-0.006430458277463913,0.05859196186065674
1761132080928952000,1.9129521484375,0.0084075927734375,0.010363098233938217,0.05637204647064209
1761132080938952200,1.9229521484375,-0.14481735229492188,-0.023332417011260986,0.05852539837360382
1761132080948952000,1.9329521484375,0.032355308532714844,-0.049723945558071136,0.048756375908851624
1761132080958952200,1.9429521484375,-0.19988250732421875,0.010119147598743439,0.044067129492759705
1761132080968952000,1.9529521484375,-0.5661964416503906,0.0603855699300766,-0.07554372400045395
1761132080978952200,1.9629521484375,1.1719741821289062,0.3800465166568756,-0.1222490444779396
1761132080988952000,1.9729521484375,-0.5183448791503906,-0.3664805293083191,-0.04580708593130112
1761132080998952200,1.9829521484375,-0.5781583786010742,-0.1403910219669342,-0.06485909968614578
1761132081008952000,1.9929521484375,-0.005939483642578125,0.20395810902118683,0.04059748351573944
1761132081018951200,2.002951171875,-0.17354393005371094,0.1298682689666748,0.041433483362197876
1761132081028951300,2.012951416015625,0.2526206970214844,-0.10472084581851959,0.05367664992809296
1761132081038951200,2.022951171875,-0.20946311950683594,-0.11409817636013031,0.1114158034324646
1761132081048951300,2.032951416015625,0.19755077362060547,-0.05973752960562706,0.11361256241798401
1761132081058951200,2.042951171875,0.36515140533447266,0.05486307293176651,-0.00185336172580719
1761132081068951300,2.052951416015625,0.1137533187866211,0.047600772231817245,-0.030124418437480927
1761132081078951200,2.062951171875,-0.058623313903808594,-0.06433987617492676,-0.06392795592546463
1761132081088951300,2.072951416015625,-0.15678119659423828,0.03659814968705177,-0.06168333441019058
1761132081098951200,2.082951171875,0.049121856689453125,0.07261547446250916,-0.09536826610565186
1761132081108951300,2.092951416015625,0.15206623077392578,0.03189314901828766,-0.08533702790737152
1761132081118952200,2.1029521484375,0.046718597412109375,-0.016175542026758194,-0.04448259621858597
1761132081128952000,2.1129521484375,-0.089752197265625,-0.047584809362888336,-0.001264914870262146
1761132081138952200,2.1229521484375,0.09460067749023438,0.01705458201467991,0.048974111676216125
1761132081148952000,2.1329521484375,0.19994354248046875,0.03876279294490814,0.05883246660232544
1761132081158952200,2.1429521484375,-0.08017730712890625,-0.04240876063704491,0.07074491679668427
1761132081168952000,2.1529521484375,-0.04186439514160156,-0.06624358892440796,0.0727759301662445
1761132081178952200,2.1629521484375,0.13291549682617188,0.020041711628437042,0.06291556358337402
1761132081188952000,2.1729521484375,0.10657978057861328,0.03682553768157959,0.007905945181846619
1761132081198952200,2.1829521484375,-0.06819820404052734,-0.0037729106843471527,-0.030350618064403534
1761132081208952000,2.1929521484375,-0.0059452056884765625,-0.04441887512803078,-0.035419151186943054
1761132081218951200,2.202951171875,0.049121856689453125,0.027269113808870316,-0.0641576275229454
1761132081228951300,2.212951416015625,0.0539093017578125,0.05610661208629608,-0.06404859572649002
1761132081238951200,2.222951171875,0.034752845764160156,0.020269136875867844,-0.0279449000954628
1761132081248951300,2.232951416015625,-0.039467811584472656,-0.03491763398051262,-0.013608910143375397
1761132081258951200,2.242951171875,-0.03946685791015625,-0.03494242951273918,-0.013666056096553802
1761132081268951300,2.252951416015625,0.1041860580444336,-0.0012497492134571075,0.024607017636299133
1761132081278951200,2.262951171875,0.029966354370117188,0.01776542328298092,0.043752431869506836
1761132081288951300,2.272951416015625,-0.04425334930419922,-0.015940669924020767,0.04841862618923187
1761132081298951200,2.282951171875,0.03236103057861328,-0.04485549405217171,0.029181748628616333
1761132081318952200,2.3029521484375,-0.0035524368286132812,0.05315522849559784,-0.04498601704835892
1761132081328952000,2.3129521484375,-0.05622386932373047,0.009976942092180252,-0.03785541653633118
1761132081338952200,2.3229521484375,0.04433250427246094,-0.04030304774641991,-0.03308660537004471
1761132081348952000,2.3329521484375,0.09939861297607422,0.014764830470085144,-0.05461500585079193
1761132081358952200,2.3429521484375,0.061089515686035156,0.036163151264190674,-0.04015851020812988
1761132081368952000,2.3529521484375,-0.020315170288085938,0.007282428443431854,-0.0329040065407753
1761132081378952200,2.3629521484375,0.017989158630371094,-0.023968040943145752,0.03428168594837189
1761132081388952000,2.3729521484375,0.09939193725585938,-0.019082292914390564,0.036667630076408386
1761132081398952200,2.3829521484375,0.017989158630371094,0.01683073304593563,0.034273430705070496
1761132081408952000,2.3929521484375,-0.037075042724609375,-0.019147418439388275,0.0270175039768219
1761132081418951200,2.402951171875,-0.07059478759765625,-0.009707555174827576,0.03899982571601868
1761132081428951300,2.412951416015625,-2.1463699340820312,-0.09373471885919571,0.05104893445968628
1761132081438951200,2.422951171875,3.5302772521972656,0.26723712682724,-0.07562091201543808
1761132081448951300,2.432951416015625,-0.1712045669555664,-0.2555587887763977,-0.022592708468437195
1761132081458951200,2.442951171875,-0.5039596557617188,-0.38341155648231506,-0.05394195020198822
1761132081468951300,2.452951416015625,-0.7242002487182617,0.14856231212615967,0.012561559677124023
1761132081478951200,2.462951171875,0.2909269332885742,0.18210645020008087,0.05187077820301056
1761132081488951300,2.472951416015625,0.2191009521484375,0.02707081101834774,0.004174530506134033
1761132081498951200,2.482951171875,0.1616230010986328,-0.10509361326694489,0.06269845366477966
1761132081508951300,2.492951416015625,-0.1663799285888672,-0.10604819655418396,0.13656489551067352
1761132081518952200,2.5029521484375,-0.051444053649902344,0.04507593810558319,0.05175955593585968
1761132081528952000,2.5129521484375,0.39865589141845703,0.06903471052646637,-0.007427588105201721
1761132081538952200,2.5229521484375,-0.02989959716796875,-0.004818219691514969,-0.06760798394680023
1761132081548952000,2.5329521484375,-0.3004436492919922,-0.02617257460951805,-0.05088448524475098
1761132081558952200,2.5429521484375,-0.0562286376953125,0.03600107505917549,-0.08243601024150848
1761132081568952000,2.5529521484375,0.2717742919921875,0.04072227329015732,-0.08708125352859497
1761132081578952200,2.5629521484375,0.09459877014160156,-0.004942342638969421,-0.07244572043418884
1761132081588952000,2.5729521484375,-0.1903085708618164,-0.021818220615386963,-0.015192098915576935
1761132081598952200,2.5829521484375,-0.08257007598876953,0.0021816231310367584,0.04465791583061218
1761132081608952000,2.5929521484375,0.23585891723632812,0.0478978157043457,0.07590150833129883
1761132081618951400,2.602951416015625,0.11135578155517578,-0.009577345103025436,0.0833805650472641
1761132081628951300,2.612951416015625,-0.15439605712890625,-0.0814904272556305,0.07826460897922516
1761132081638951400,2.622951416015625,0.020384788513183594,-0.019366879016160965,0.058786675333976746
1761132081648951300,2.632951416015625,0.19037246704101562,0.04745127260684967,0.010862007737159729
1761132081658951400,2.642951416015625,-0.17594337463378906,0.03524065017700195,-0.005700439214706421
1761132081668951300,2.652951416015625,-1.947652816772461,-0.06571970880031586,-0.09201561659574509
1761132081678951400,2.662951416015625,1.574209213256836,0.3378315567970276,-0.09400628507137299
1761132081688951300,2.672951416015625,1.5741767883300781,0.33444005250930786,-0.0924258828163147
1761132081698951400,2.682951416015625,-0.6380329132080078,-0.23312042653560638,-0.05125020444393158
1761132081708951300,2.692951416015625,-0.4776020050048828,0.1362871676683426,0.04384823143482208
1761132081718952200,2.7029521484375,0.11614418029785156,0.11200671643018723,0.10243944823741913
1761132081728952000,2.7129521484375,0.34359073638916016,-0.05305808037519455,0.047578081488609314
1761132081738952200,2.7229521484375,-0.02750682830810547,-0.06762635707855225,0.1095096617937088
1761132081748952000,2.7329521484375,-0.02031993865966797,-0.08537956327199936,0.12568241357803345
1761132081758952200,2.7429521484375,-0.02988147735595703,0.010608721524477005,0.035956889390945435
1761132081768952000,2.7529521484375,0.30769824981689453,0.04678512364625931,-0.028354354202747345
1761132081778952200,2.7629521484375,0.03476428985595703,0.05449715629220009,-0.11480605602264404
1761132081788952300,2.772952392578125,-0.22859477996826172,0.040300510823726654,-0.11252392828464508
1761132081798952200,2.7829521484375,-0.08733463287353516,0.030559293925762177,-0.08172021806240082
1761132081808952300,2.792952392578125,0.2933387756347656,0.023327205330133438,-0.0550258606672287
1761132081818951400,2.802951416015625,0.12813472747802734,-0.0008139647543430328,-0.021293863654136658
1761132081828951300,2.812951416015625,-0.1376199722290039,-0.01782095432281494,0.03363601863384247
1761132081838951200,2.822951171875,-0.11367416381835938,0.0038031041622161865,0.08365190029144287
1761132081848951300,2.832951416015625,0.2263021469116211,0.032774172723293304,0.09089308977127075
1761132081858951200,2.842951171875,0.013216018676757812,-0.007931418716907501,0.06473466753959656
1761132081868951300,2.852951416015625,-0.1543722152709961,-0.07024078071117401,0.037911415100097656
1761132081878951200,2.862951171875,0.049141883850097656,-0.0007852837443351746,0.03031317889690399
1761132081888951300,2.872951416015625,0.17363929748535156,0.03257717564702034,-0.04149988293647766
1761132081898951200,2.882951171875,-0.05620765686035156,0.04465233534574509,-0.0387994647026062
1761132081908951300,2.892951416015625,-0.3483009338378906,-0.04637334868311882,-0.014932386577129364
1761132081918952200,2.9029521484375,-0.7337665557861328,0.0010921135544776917,-0.11794668436050415
1761132081928952000,2.9129521484375,1.3779058456420898,0.31861963868141174,-0.07169336080551147
1761132081938952200,2.9229521484375,-0.0011854171752929688,-0.177424818277359,-0.0006678998470306396
1761132081948952000,2.9329521484375,-0.6380147933959961,-0.23792648315429688,0.01917995512485504
1761132081958952200,2.9429521484375,-0.3530855178833008,0.03257583826780319,0.08778667449951172
1761132081968952000,2.9529521484375,-0.3530874252319336,0.03298862278461456,0.0880085676908493
1761132081978952200,2.9629521484375,0.3172769546508789,0.013590758666396141,0.04575979709625244
1761132081988952000,2.9729521484375,-0.1040964126586914,-0.056055568158626556,0.054882243275642395
1761132081998952200,2.9829521484375,-0.060996055603027344,-0.1165904551744461,0.08780786395072937
1761132082008952000,2.9929521484375,0.1712512969970703,0.008065439760684967,-0.01345081627368927
1761132082018951200,3.002951171875,0.22870826721191406,0.1111862063407898,-0.06333009153604507
1761132082028951300,3.012951416015625,-0.0633840560913086,0.03951651230454445,-0.08489090204238892
1761132082038951400,3.022951416015625,-0.1567535400390625,-0.03458557650446892,-0.08034827560186386
1761132082048951300,3.032951416015625,0.0467529296875,0.03961025923490524,-0.07561686635017395
1761132082058951400,3.042951416015625,0.2718038558959961,0.07072988152503967,-0.05126114934682846
1761132082068951300,3.052951416015625,0.029985427856445312,-0.018093183636665344,-0.0007662773132324219
1761132082078951400,3.062951416015625,-0.14239501953125,-0.05888701230287552,0.06610208749771118
1761132082088951300,3.072951416015625,0.08505725860595703,-0.044284332543611526,0.0778564065694809
1761132082098951200,3.082951171875,0.17364025115966797,0.04930609464645386,0.05654644966125488
1761132082108951300,3.092951416015625,-0.0059261322021484375,-0.005772821605205536,0.06380914151668549
1761132082118952200,3.1029521484375,-0.15436172485351562,-0.060912638902664185,0.008335292339324951
1761132082128952000,3.1129521484375,0.08984947204589844,-0.013002108782529831,-0.022948801517486572
1761132082138952200,3.1229521484375,0.12815380096435547,0.0780157744884491,-0.03231210261583328
1761132082148952300,3.132952392578125,-0.19985389709472656,0.027598898857831955,-0.044055163860321045
1761132082158952200,3.1429521484375,-0.5972929000854492,-0.07068227231502533,-0.058430179953575134
1761132082168952300,3.152952392578125,1.0427303314208984,0.0532623827457428,-0.09413977712392807
1761132082178952200,3.1629521484375,0.5279560089111328,0.0831121951341629,-0.06176815181970596
1761132082188952300,3.172952392578125,-0.32677173614501953,-0.10151611268520355,0.00026738643646240234
1761132082198952200,3.1829521484375,-0.4225282669067383,-0.03322173282504082,0.04284554719924927
1761132082208952300,3.192952392578125,0.09700870513916016,0.026903565973043442,0.10550530254840851
1761132082218951400,3.202951416015625,0.1784076690673828,0.01994713395833969,0.07473577558994293
1761132082228951300,3.212951416015625,0.10657882690429688,0.0007690340280532837,0.07012653350830078
1761132082238951400,3.222951416015625,-0.15917396545410156,-0.04526955634355545,0.05770909786224365
1761132082248951300,3.232951416015625,0.03476428985595703,-0.0551723875105381,0.025981739163398743
1761132082258951400,3.242951416015625,0.2622108459472656,0.028680432587862015,-0.04086369276046753
1761132082268951300,3.252951416015625,0.008423805236816406,0.06707882881164551,-0.0909920483827591
1761132082278951400,3.262951416015625,-0.1448068618774414,0.011939646676182747,-0.08374404907226562
1761132082288951300,3.272951416015625,-0.008336067199707031,0.009459149092435837,-0.06707587838172913
1761132082298951400,3.282951416015625,0.21432209014892578,0.006964296102523804,-0.03574594855308533
1761132082308951300,3.292951416015625,0.0754547119140625,0.023722311481833458,-0.018769927322864532
1761132082318952200,3.3029521484375,-0.10650444030761719,-0.026680927723646164,0.021843641996383667
1761132082328952300,3.312952392578125,-0.027492523193359375,-0.043416667729616165,0.0671541839838028
1761132082338952200,3.3229521484375,0.14489173889160156,-0.016907788813114166,0.10061930119991302
1761132082348952000,3.3329521484375,0.07545948028564453,-0.0071917250752449036,0.043166786432266235
1761132082358952200,3.3429521484375,-0.0897359848022461,-0.03105916455388069,0.026125609874725342
1761132082368952000,3.3529521484375,0.022795677185058594,-0.02149241790175438,-0.0005641728639602661
1761132082378952200,3.3629521484375,0.12334918975830078,0.05027078092098236,-0.012333571910858154
1761132082388952000,3.3729521484375,0.020399093627929688,0.026391033083200455,-0.019481800496578217
1761132082398952200,3.3829521484375,-0.07057857513427734,-0.026351790875196457,-0.02200809121131897
1761132082408952000,3.3929521484375,0.07546710968017578,-0.0217665433883667,-0.050800733268260956
1761132082418951200,3.402951171875,0.10419559478759766,0.030713306739926338,-0.05074552446603775
1761132082428951300,3.412951416015625,0.13292312622070312,0.04980821907520294,-0.021774068474769592
1761132082438951200,3.422951171875,-0.03466987609863281,-0.014825981110334396,0.006837397813796997
1761132082448951300,3.432951416015625,-0.03706169128417969,-0.07931912690401077,0.04265926778316498
1761132082458951200,3.442951171875,0.061102867126464844,-0.01437150314450264,0.042535558342933655
1761132082468951300,3.452951416015625,0.061102867126464844,-0.014307994395494461,0.04258932173252106
1761132082478951200,3.462951171875,-0.008328437805175781,0.016812140122056007,0.009011983871459961
1761132082488951300,3.472951416015625,-0.0035381317138671875,-0.035925816744565964,0.035274773836135864
1761132082498951200,3.482951171875,0.0970163345336914,-0.035979706794023514,0.03294403851032257
1761132082508951300,3.492951416015625,0.049134254455566406,0.0215739905834198,-0.01979515701532364
1761132082518952000,3.502951904296875,0.006038665771484375,0.02629927173256874,-0.046185024082660675
1761132082528952000,3.5129521484375,-0.0035381317138671875,-0.00004182010889053345,-0.05103205889463425
1761132082538952000,3.522951904296875,0.0778646469116211,-0.02879178151488304,-0.02708841860294342
1761132082548952000,3.5329521484375,0.06589317321777344,0.009636353701353073,-0.024664729833602905
1761132082558952000,3.542951904296875,0.0060405731201171875,0.026467882096767426,-0.0008073747158050537
1761132082568952000,3.5529521484375,-0.0035352706909179688,-0.01665463298559189,0.00627937912940979
1761132082578952000,3.562951904296875,0.0515289306640625,0.00021335482597351074,0.03034992516040802
1761132082588952000,3.5729521484375,0.05631732940673828,0.0025920644402503967,0.054352059960365295
1761132082598952000,3.582951904296875,0.006041526794433594,0.0121575016528368,0.049426838755607605
1761132082608952000,3.5929521484375,0.001255035400390625,-0.0310109443962574,0.01094856858253479
1761132082618951200,3.602951171875,0.06589794158935547,-0.004673536866903305,-0.0081854909658432
1761132082628951300,3.612951416015625,0.02280139923095703,0.019153259694576263,0.015785813331604004
1761132082638951200,3.622951171875,-0.08733177185058594,-0.007422804832458496,-0.005801171064376831
1761132082648951300,3.632951416015625,-0.0705728530883789,-0.005107298493385315,-0.04170785844326019
1761132082658951200,3.642951171875,0.44178104400634766,0.05676821619272232,-0.06302758306264877
1761132082668951300,3.652951416015625,0.097015380859375,-0.0033589638769626617,-0.03186073154211044
1761132082678951200,3.662951171875,-0.190277099609375,-0.05791643261909485,-0.0014674067497253418
1761132082688951300,3.672951416015625,-0.19027328491210938,-0.057375259697437286,-0.001590922474861145
1761132082698951200,3.682951171875,0.04675006866455078,0.02414032630622387,0.04885523021221161
1761132082708951300,3.692951416015625,0.08505439758300781,0.017075641080737114,0.04191829264163971
1761132082718952000,3.702951904296875,0.02519989013671875,-0.009283367544412613,0.07061123847961426
1761132082728952000,3.7129521484375,0.010837554931640625,-0.04539379104971886,0.027275994420051575
1761132082738952200,3.7229521484375,0.0706949234008789,-0.014230456203222275,-0.020847447216510773
1761132082748952000,3.7329521484375,0.09224414825439453,0.0074146948754787445,-0.023249894380569458
1761132082758952200,3.7429521484375,0.013235092163085938,0.02188250422477722,-0.05192979425191879
1761132082768952000,3.7529521484375,-0.029859542846679688,0.01475352793931961,-0.0639643594622612
1761132082778952200,3.7629521484375,0.037177085876464844,0.010011948645114899,-0.03992800414562225
1761132082788952000,3.7729521484375,0.08027267456054688,0.0052642617374658585,-0.023152291774749756
1761132082798952200,3.7829521484375,0.013233184814453125,0.0027788281440734863,-0.006306573748588562
1761132082808952000,3.7929521484375,-0.008313179016113281,0.014841865748167038,0.024751126766204834
1761132082818951400,3.802951416015625,0.03478431701660156,-0.01139785721898079,0.0462714284658432
1761132082828951300,3.812951416015625,0.05393695831298828,0.0007538013160228729,0.05110381543636322
1761132082838951200,3.822951171875,-0.01788806915283203,-0.025548193603754044,0.03428250551223755
1761132082848951300,3.832951416015625,-0.09929084777832031,-0.013634201139211655,0.034306928515434265
1761132082858951200,3.842951171875,-0.16872215270996094,-0.02080414816737175,0.000708162784576416
1761132082868951300,3.852951416015625,0.49207305908203125,0.053077276796102524,-0.03501925617456436
1761132082878951200,3.862951171875,0.3148937225341797,0.028407912701368332,-0.05848735570907593
1761132082888951300,3.872951416015625,-0.18788719177246094,-0.10819022357463837,-0.013124600052833557
1761132082898951200,3.882951171875,-0.1998462677001953,-0.0017504207789897919,-0.023264601826667786
1761132082908951300,3.892951416015625,0.013235092163085938,0.09680308401584625,0.02003486454486847
1761132082918952200,3.9029521484375,0.044358253479003906,0.032272372394800186,0.015414401888847351
1761132082928952000,3.9129521484375,0.049144744873046875,-0.03008401393890381,0.03708936274051666
1761132082938952200,3.9229521484375,-0.0011339187622070312,-0.0376306027173996,0.05611598491668701
1761132082948952000,3.9329521484375,0.09224128723144531,0.005102226510643959,0.03924909234046936
1761132082958952200,3.9429521484375,0.11618232727050781,0.024120653048157692,-0.0038156211376190186
1761132082968952000,3.9529521484375,0.006047248840332031,0.009924400597810745,-0.03240279108285904
1761132082978952200,3.9629521484375,-0.049017906188964844,-0.011452894657850266,-0.04444722831249237
1761132082988952000,3.9729521484375,0.006051063537597656,0.022114824503660202,-0.04696357995271683
1761132082998952200,3.9829521484375,0.08266448974609375,0.02920089289546013,-0.04933010786771774
1761132083008952000,3.9929521484375,0.053931236267089844,-0.004483278840780258,-0.02525608241558075
1761132083018951200,4.002951171875,-0.008317947387695312,-0.011643093079328537,0.005906015634536743
1761132083028951300,4.012951416015625,0.020414352416992188,0.00993732362985611,0.017795592546463013
1761132083038951200,4.022951171875,0.0682973861694336,-0.021082688122987747,0.044202014803886414
1761132083048951300,4.032951416015625,0.03477954864501953,-0.013741832226514816,0.03463184833526611
1761132083058951200,4.042951171875,-0.008315086364746094,-0.030508127063512802,0.03215932846069336
1761132083068951300,4.052951416015625,0.03477954864501953,0.010133039206266403,0.041721463203430176
1761132083078951200,4.062951171875,0.07308769226074219,0.04361114650964737,0.020157352089881897
1761132083088951300,4.072951416015625,-0.0035276412963867188,-0.0019125118851661682,-0.010905250906944275
1761132083098951200,4.082951171875,-0.005923271179199219,-0.028324857354164124,-0.02524442970752716
1761132083108951300,4.092951416015625,0.04674816131591797,0.02906060963869095,-0.02998725324869156
1761132083118952200,4.1029521484375,0.056324005126953125,0.06491987407207489,-0.03710635006427765
1761132083128952000,4.1129521484375,0.013228416442871094,0.02421955205500126,-0.01553916186094284
1761132083138952200,4.1229521484375,0.02998638153076172,0.01700435020029545,-0.020246140658855438
1761132083148952000,4.1329521484375,0.027591705322265625,-0.018988095223903656,0.010865569114685059
1761132083158952200,4.1429521484375,0.04913902282714844,0.014498133212327957,0.018129602074623108
1761132083168952000,4.1529521484375,0.02759075164794922,-0.002364266663789749,0.022867351770401
1761132083178952200,4.1629521484375,0.0084381103515625,-0.007276829332113266,0.008433565497398376
1761132083188952000,4.1729521484375,0.034775733947753906,-0.002494245767593384,0.027528375387191772
1761132083198952200,4.1829521484375,0.044353485107421875,-0.02633853629231453,0.005972445011138916
1761132083208952000,4.1929521484375,0.020409584045410156,0.03112678788602352,0.008425131440162659
1761132083218951200,4.202951171875,0.010834693908691406,0.002384614199399948,-0.015653841197490692
1761132083228951300,4.212951416015625,0.006046295166015625,-0.011995270848274231,-0.04192979633808136
1761132083238951200,4.222951171875,0.04435157775878906,0.009600427001714706,-0.020268134772777557
1761132083248951300,4.232951416015625,0.039562225341796875,0.028739366680383682,0.010916739702224731
1761132083258951200,4.242951171875,0.008436203002929688,-0.016884811222553253,-0.017763487994670868
1761132083268951300,4.252951416015625,0.01801300048828125,-0.0024585649371147156,0.006193473935127258
1761132083278951200,4.262951171875,0.05153179168701172,0.002308666706085205,0.02772335708141327
1761132083288951300,4.272951416015625,0.02519512176513672,-0.007262449711561203,0.018205344676971436
1761132083298951200,4.282951171875,0.0036468505859375,-0.004887793213129044,0.037360578775405884
1761132083308951300,4.292951416015625,0.032379150390625,-0.028895068913698196,0.0301046222448349
1761132083318952200,4.3029521484375,0.05392742156982422,0.004621697589755058,0.008537247776985168
1761132083328952000,4.3129521484375,0.022802352905273438,0.01652962528169155,-0.003487527370452881
1761132083338951700,4.32295166015625,0.022803306579589844,0.016539817675948143,-0.0036062896251678467
1761132083348951600,4.33295166015625,0.022803306579589844,0.01891486346721649,-0.025152340531349182
1761132083358951700,4.34295166015625,0.056324005126953125,0.019026875495910645,-0.020432449877262115
1761132083368951600,4.35295166015625,0.0060443878173828125,0.011771736666560173,-0.017972849309444427
1761132083378951700,4.36295166015625,0.013226509094238281,0.0021949298679828644,-0.0060018450021743774
1761132083388951600,4.37295166015625,-0.10408878326416016,-0.012244775891304016,-0.0059562623500823975
1761132083398951700,4.38295166015625,-0.3530874252319336,-0.00040746480226516724,0.018036186695098877
1761132083408951600,4.39295166015625,0.5279731750488281,0.07577568292617798,-0.005653366446495056
1761132083418951000,4.402950927734375,0.4417695999145508,0.031612787395715714,0.004582718014717102
1761132083428950800,4.41295068359375,-0.13043880462646484,-0.11677928268909454,0.01858946681022644
1761132083438951000,4.422950927734375,-0.27886390686035156,-0.036523208022117615,0.012949526309967041
1761132083448950800,4.43295068359375,-0.005925178527832031,0.052485574036836624,0.03701375424861908
1761132083458951000,4.442950927734375,0.053928375244140625,0.05030306428670883,0.0012799501419067383
1761132083468950800,4.45295068359375,0.053925514221191406,0.050405219197273254,0.0015665143728256226
1761132083478951000,4.462950927734375,-0.044236183166503906,-0.02394406497478485,0.022987112402915955
1761132083488950800,4.47295068359375,0.03716850280761719,-0.0026547685265541077,-0.015593670308589935
1761132083498951000,4.482950927734375,0.1353311538696289,0.013868477195501328,-0.03714154660701752
1761132083508950800,4.49295068359375,0.05153179168701172,0.02832648530602455,-0.044154733419418335
1761132083518951700,4.50295166015625,-0.046630859375,0.016479110345244408,-0.029721148312091827
1761132083528951600,4.51295166015625,-0.03944873809814453,-0.005045909434556961,-0.015318460762500763
1761132083538951700,4.52295166015625,0.106597900390625,0.011626774445176125,-0.010621294379234314
1761132083548951800,4.532951904296875,0.04913616180419922,-0.0003752075135707855,-0.02488553524017334
1761132083558951700,4.54295166015625,-0.09930419921875,-0.0026871338486671448,0.003896772861480713
1761132083568951800,4.552951904296875,-0.1543722152709961,0.016507068648934364,0.0517970472574234
1761132083578951700,4.56295166015625,0.14490032196044922,0.01141444407403469,0.03994987905025482
1761132083588951800,4.572951904296875,0.4250144958496094,0.0371980145573616,0.018861114978790283
1761132083598951700,4.58295166015625,0.02997303009033203,-0.04190545529127121,-0.00048157572746276855
1761132083608951800,4.592951904296875,-0.18549346923828125,-0.04827190563082695,0.0037076324224472046
1761132083618951000,4.602950927734375,-0.07535648345947266,0.021803278475999832,0.003634631633758545
1761132083628950800,4.61295068359375,-0.008320808410644531,0.015033796429634094,0.008663997054100037
1761132083638951200,4.622951171875,-0.015506744384765625,-0.035248544067144394,-0.003129333257675171
1761132083648951300,4.632951416015625,0.0754709243774414,-0.016406424343585968,0.013675466179847717
1761132083658951200,4.642951171875,0.08265304565429688,-0.007322322577238083,0.018465250730514526
1761132083668951300,4.652951416015625,0.10659217834472656,0.004420643672347069,-0.014955900609493256
1761132083678951200,4.662951171875,0.027581214904785156,-0.014619003981351852,-0.009980157017707825
1761132083688951300,4.672951416015625,-0.022696495056152344,0.004815561696887016,-0.021895602345466614
1761132083698951200,4.682951171875,-0.015512466430664062,0.02431761659681797,-0.007598742842674255
1761132083708951300,4.692951416015625,0.041950225830078125,0.0005482584238052368,-0.010046660900115967
1761132083718952200,4.7029521484375,0.027584075927734375,0.012502970173954964,-0.007611751556396484
1761132083728952000,4.7129521484375,0.008429527282714844,-0.009156860411167145,0.006821975111961365
1761132083738952200,4.7229521484375,0.034766197204589844,0.01697741262614727,0.009154245257377625
1761132083748952000,4.7329521484375,0.06828594207763672,0.005060167983174324,0.02345593273639679
1761132083758952200,4.7429521484375,0.03955554962158203,0.021797895431518555,0.00667843222618103
1761132083768952000,4.7529521484375,-0.0059337615966796875,-0.03087945654988289,-0.012533679604530334
1761132083778952200,4.7629521484375,0.025191307067871094,-0.004424348473548889,0.0018413364887237549
1761132083788952000,4.7729521484375,0.056316375732421875,0.014826994389295578,0.020986810326576233
1761132083798952200,4.7829521484375,0.05631732940673828,0.014881186187267303,0.020923301577568054
1761132083808952000,4.7929521484375,-0.005931854248046875,-0.009002193808555603,-0.003023594617843628
1761132083818951400,4.802951416015625,0.04195117950439453,-0.03541256859898567,0.0065990835428237915
1761132083828951300,4.812951416015625,0.04913330078125,0.005215933546423912,0.011452749371528625
1761132083838951200,4.822951171875,0.04913330078125,0.005215803161263466,0.01145268976688385
1761132083848951300,4.832951416015625,0.01082611083984375,-0.00669575110077858,-0.007705628871917725
1761132083858951200,4.842951171875,0.015615463256835938,-0.030603930354118347,-0.005373448133468628
1761132083868951300,4.852951416015625,0.051527976989746094,-0.00911637768149376,0.008977100253105164
1761132083878951200,4.862951171875,0.027585983276367188,0.0004416555166244507,-0.022145643830299377
1761132083888951300,4.872951416015625,0.018011093139648438,-0.018780726939439774,-0.003104567527770996
1761132083898951200,4.882951171875,0.053925514221191406,-0.004361361265182495,0.01837986707687378
1761132083908951300,4.892951416015625,0.053925514221191406,-0.004302725195884705,0.018375009298324585
1761132083918952200,4.9029521484375,0.010831832885742188,-0.006766669452190399,0.035002559423446655
1761132083928952000,4.9129521484375,0.029985427856445312,-0.00918080285191536,0.01345624029636383
1761132083938952200,4.9229521484375,0.025196075439453125,-0.006905496120452881,-0.0033129900693893433
1761132083948952000,4.9329521484375,0.05871391296386719,0.019298385828733444,-0.0032431036233901978
1761132083958952200,4.9429521484375,0.04195404052734375,0.00002177804708480835,0.008659720420837402
1761132083968952000,4.9529521484375,0.027589797973632812,-0.009639319032430649,-0.008171230554580688
1761132083978952200,4.9629521484375,-0.013110160827636719,0.0022677965462207794,-0.02019614726305008
1761132083988952000,4.9729521484375,0.056321144104003906,0.0023260414600372314,-0.0058359503746032715
1761132083998952200,4.9829521484375,0.051532745361328125,0.011883175000548363,-0.024987980723381042
1761132084008952000,4.9929521484375,0.013225555419921875,0.002246495336294174,-0.010637298226356506
1761132084018951200,5.002951171875,0.013226509094238281,0.0022216960787773132,0.006064966320991516
1761132084028951300,5.012951416015625,0.03956317901611328,-0.002449437975883484,-0.005915790796279907
1761132084038951200,5.022951171875,0.025197982788085938,-0.002409953624010086,0.010840505361557007
1761132084048951300,5.032951416015625,0.015621185302734375,-0.016833417117595673,-0.003519698977470398
1761132084058951200,5.042951171875,0.03477668762207031,0.0024273358285427094,0.008324161171913147
1761132084068951300,5.052951416015625,0.03477764129638672,0.002416647970676422,0.008206695318222046
1761132084078951200,5.062951171875,0.027597427368164062,0.00497622974216938,0.008074551820755005
1761132084088951300,5.072951416015625,0.032385826110839844,0.01694641448557377,0.00568021833896637
1761132084098951200,5.082951171875,0.00605010986328125,0.00489235483109951,-0.023102357983589172
1761132084108951300,5.092951416015625,0.027597427368164062,0.024048438295722008,0.00806109607219696
1761132084118952200,5.1029521484375,0.015625953674316406,0.0024223104119300842,-0.006297677755355835
1761132084128952000,5.1129521484375,0.032385826110839844,-0.002426743507385254,-0.008706673979759216
1761132084138952200,5.1229521484375,-0.1136636734008789,-0.03148092329502106,0.0105724036693573
1761132084148952000,5.1329521484375,-1.0402202606201172,-0.03644121065735817,0.017808988690376282
1761132084158952200,5.1429521484375,1.7466230392456055,0.17586371302604675,-0.04170595109462738
1761132084168952000,5.1529521484375,0.35077476501464844,-0.041800424456596375,0.01260441541671753
1761132084178952200,5.1629521484375,0.3507986068725586,-0.04071095585823059,0.011056944727897644
1761132084188952000,5.1729521484375,-0.43686485290527344,0.06271714717149734,0.038348257541656494
1761132084198952200,5.1829521484375,0.14252090454101562,0.11799860000610352,0.029678985476493835
1761132084208952000,5.1929521484375,0.12575817108154297,0.024805011227726936,-0.01076139509677887
1761132084218951200,5.202951171875,0.11856842041015625,-0.054282329976558685,0.01605352759361267
1761132084228951300,5.212951416015625,-0.08254146575927734,-0.07864364981651306,0.05406069755554199
1761132084238951200,5.222951171875,0.0706930160522461,-0.00248674675822258,-0.015903867781162262
1761132084248951300,5.232951416015625,0.2598295211791992,0.057143434882164,-0.044261351227760315
1761132084258951200,5.242951171875,-0.04184436798095703,0.03563953936100006,-0.053546592593193054
1761132084268951300,5.252951416015625,-0.14000606536865234,0.004690693691372871,-0.03680184483528137
1761132084278951200,5.262951171875,0.008437156677246094,0.016689034178853035,-0.022576838731765747
1761132084288951300,5.272951416015625,0.18560791015625,0.02856556326150894,-0.03689482808113098
1761132084298951200,5.282951171875,0.09941482543945312,0.01647890917956829,-0.04165394604206085
1761132084308951300,5.292951416015625,-0.1016998291015625,-0.01483512669801712,0.032641589641571045
1761132084318952200,5.3029521484375,-0.046629905700683594,-0.019481785595417023,0.05160629749298096
1761132084328952000,5.3129521484375,0.13772201538085938,-0.016843684017658234,0.05170394480228424
1761132084338952200,5.3229521484375,0.022798538208007812,-0.028839677572250366,0.02315250039100647
1761132084348952000,5.3329521484375,-0.1998577117919922,-0.028899893164634705,0.051632076501846313
1761132084358952000,5.342951904296875,-0.19028091430664062,-0.026572883129119873,0.0395682156085968
1761132084368952000,5.3529521484375,0.3005256652832031,0.037819281220436096,-0.0008369535207748413
1761132084378952200,5.3629521484375,0.5758476257324219,0.09446317702531815,-0.055323824286460876
1761132084388952000,5.3729521484375,-0.07537460327148438,-0.10232065618038177,-0.04582693427801132
1761132084398952000,5.382951904296875,-0.25971317291259766,-0.07982513308525085,-0.03715549409389496
1761132084408952000,5.3929521484375,0.020412445068359375,0.08857022225856781,0.008267700672149658
1761132084418951200,5.402951171875,0.025197982788085938,0.07204736024141312,0.018080726265907288
1761132084428951300,5.412951416015625,0.03956127166748047,0.005024721845984459,0.008679956197738647
1761132084438951200,5.422951171875,0.010830879211425781,-0.05503266304731369,0.056501924991607666
1761132084448951300,5.432951416015625,0.07068634033203125,-0.014577973634004593,0.08511488139629364
1761132084458951200,5.442951171875,0.12096595764160156,0.021325305104255676,0.03471939265727997
1761132084468951300,5.452951416015625,0.0012569427490234375,0.03089522384107113,-0.03718498349189758
1761132084478951200,5.462951171875,-0.05141448974609375,-0.016952313482761383,-0.03243868798017502
1761132084488951300,5.472951416015625,0.0012598037719726562,0.019190382212400436,-0.044487833976745605
1761132084498951200,5.482951171875,0.08505725860595703,0.04556530341506004,-0.03970281779766083
1761132084508951300,5.492951416015625,0.05632495880126953,0.028631605207920074,-0.06121646612882614
1761132084518952000,5.502951904296875,-0.029867172241210938,-0.01928827539086342,-0.01329009234905243
1761132084528952000,5.5129521484375,-0.029867172241210938,-0.019167359918355942,-0.013260602951049805
1761132084538952200,5.5229521484375,0.08984088897705078,0.014423813670873642,0.0371883362531662
1761132084548952000,5.5329521484375,0.025196075439453125,-0.004676084965467453,0.022995784878730774
1761132084558952200,5.5429521484375,-0.029870033264160156,-0.062141016125679016,0.03251422941684723
1761132084568952000,5.5529521484375,0.04913902282714844,-0.019123967736959457,0.042097389698028564
1761132084578952200,5.5629521484375,0.06589508056640625,0.03585508093237877,0.027857705950737
1761132084588952000,5.5729521484375,-0.21662044525146484,-0.019288115203380585,0.04224896430969238
1761132084598952200,5.5829521484375,0.0012502670288085938,-0.019400514662265778,-0.04147970676422119
1761132084608952000,5.5929521484375,0.7195014953613281,0.13791054487228394,-0.05293974280357361
1761132084618951200,5.602951171875,0.0012350082397460938,-0.06159443035721779,-0.02396664023399353
1761132084628951300,5.612951416015625,-0.36505603790283203,-0.06004086136817932,-0.027552932500839233
1761132084638951200,5.622951171875,-0.04902172088623047,0.024235425516963005,-0.008320897817611694
1761132084648951300,5.632951416015625,0.04913902282714844,0.03147738799452782,0.013458490371704102
1761132084658951200,5.642951171875,0.21672821044921875,0.009975932538509369,0.02095232903957367
1761132084668951300,5.652951416015625,-0.060997962951660156,-0.02594411000609398,0.07833480834960938
1761132084678951200,5.662951171875,0.013224601745605469,-0.059962883591651917,0.09955023229122162
1761132084688951300,5.672951416015625,0.1377277374267578,0.0045067910104990005,0.010545879602432251
1761132084698951200,5.682951171875,0.07787227630615234,0.06907773017883301,-0.013311564922332764
1761132084708951300,5.692951416015625,-0.03704833984375,0.028388958424329758,-0.04451613128185272
1761132084718952000,5.702951904296875,-0.07056713104248047,0.004484405741095543,-0.0684809684753418
1761132084728952000,5.7129521484375,0.06111621856689453,-0.007561482489109039,-0.07824834436178207
1761132084738952000,5.722951904296875,0.10420894622802734,0.023461593315005302,-0.05649550259113312
1761132084748952000,5.7329521484375,0.0036516189575195312,0.0234652329236269,-0.018149055540561676
1761132084758952000,5.742951904296875,-0.05620384216308594,0.00415688194334507,0.04413275420665741
1761132084768952000,5.7529521484375,0.07068824768066406,-0.014913290739059448,0.03700239956378937
1761132084778952200,5.7629521484375,0.09702396392822266,-0.017198387533426285,0.05389051139354706
1761132084788952000,5.7729521484375,0.010832786560058594,-0.01961824670433998,0.02508366107940674
1761132084798952200,5.7829521484375,-0.03704833984375,-0.005366619676351547,0.02250225841999054
1761132084808952000,5.7929521484375,0.07787322998046875,0.013784177601337433,0.012886375188827515
1761132084818951200,5.802951171875,-0.10887527465820312,0.018436819314956665,-0.015813179314136505
1761132084828951300,5.812951416015625,-0.43688106536865234,-0.03443269431591034,-0.03497009724378586
1761132084838951200,5.822951171875,1.011601448059082,0.1036992147564888,-0.08481374382972717
1761132084848951300,5.832951416015625,0.21432113647460938,-0.03162053972482681,-0.03627532720565796
1761132084858951200,5.842951171875,-0.3267536163330078,-0.13348832726478577,-0.02045222371816635
1761132084868951300,5.852951416015625,-0.2046375274658203,0.02827964723110199,0.003002941608428955
1761132084878951200,5.862951171875,0.03716850280761719,0.06186864525079727,0.051491349935531616
1761132084888951300,5.872951416015625,0.14969348907470703,0.00925154983997345,0.034924134612083435
1761132084898951200,5.882951171875,0.04674053192138672,-0.028943337500095367,0.07579335570335388
1761132084908951300,5.892951416015625,-0.025081634521484375,-0.043613046407699585,0.07544474303722382
1761132084918952000,5.902951904296875,0.0659036636352539,-0.03668970242142677,0.007897108793258667
1761132084928952000,5.9129521484375,0.12336254119873047,0.020665239542722702,-0.03505196422338486
1761132084938952200,5.9229521484375,0.015622138977050781,0.05437784641981125,-0.06597620993852615
1761132084948952000,5.9329521484375,-0.07296562194824219,0.04251619428396225,-0.06584741920232773
1761132084958952200,5.9429521484375,-0.020293235778808594,0.02080915868282318,-0.06108497828245163
1761132084968952000,5.9529521484375,0.12096405029296875,-0.017495211213827133,-0.039498209953308105
1761132084978952200,5.9629521484375,0.05631732940673828,0.008779466152191162,-0.0249309241771698
1761132084988952000,5.9729521484375,-0.06578731536865234,0.03266933932900429,0.027824565768241882
1761132084998952200,5.9829521484375,-0.022688865661621094,-0.007986057549715042,0.05878809094429016
1761132085008952000,5.9929521484375,0.09702014923095703,-0.03414025902748108,0.06842832267284393
1761132085018951200,6.002951171875,0.04674243927001953,-0.05324023589491844,0.06357637047767639
1761132085028951300,6.012951416015625,-0.056201934814453125,-0.010054953396320343,0.0416865348815918
1761132085038951400,6.022951416015625,0.05393218994140625,0.01385614275932312,0.0032441169023513794
1761132085048951300,6.032951416015625,0.08266162872314453,0.023441465571522713,-0.006234839558601379
1761132085058951400,6.042951416015625,0.039565086364746094,-0.024338729679584503,-0.02292431890964508
1761132085068951300,6.052951416015625,-0.05380725860595703,-0.007693294435739517,-0.04944787174463272
1761132085078951200,6.062951171875,0.041961669921875,-0.01023176684975624,-0.03514964133501053
1761132085088951300,6.072951416015625,0.07547760009765625,0.03519411385059357,-0.011025354266166687
1761132085098951200,6.082951171875,0.039565086364746094,0.00901997834444046,-0.01574883610010147
1761132085108951300,6.092951416015625,0.0012578964233398438,-0.014977674931287766,-0.010967493057250977
1761132085118952200,6.1029521484375,0.04195880889892578,-0.017515186220407486,0.010513484477996826
1761132085128952000,6.1129521484375,0.07547855377197266,0.035269226878881454,0.0439639538526535
1761132085138952200,6.1229521484375,0.03717231750488281,0.016173863783478737,0.043958961963653564
1761132085148952000,6.1329521484375,0.010835647583007812,-0.04130704700946808,0.03438359498977661
1761132085158952200,6.1429521484375,0.018018722534179688,-0.038973938673734665,0.01280181109905243
1761132085168952000,6.1529521484375,0.061115264892578125,-0.0005734153091907501,0.00555245578289032
1761132085178952200,6.1629521484375,0.049144744873046875,0.023389333859086037,-0.013583242893218994
1761132085188952000,6.1729521484375,-0.010711669921875,0.0233746524900198,-0.059012800455093384
1761132085198952200,6.1829521484375,0.0036535263061523438,-0.017464783042669296,-0.04465578496456146
1761132085208952000,6.1929521484375,0.07069015502929688,-0.0006997101008892059,-0.013453111052513123
1761132085218951200,6.202951171875,0.027594566345214844,0.020830053836107254,-0.02061460167169571
1761132085228951300,6.212951416015625,0.027593612670898438,-0.005465041846036911,0.003362998366355896
1761132085238951200,6.222951171875,0.03238201141357422,-0.0006355009973049164,0.017744511365890503
1761132085248951300,6.232951416015625,0.044353485107421875,-0.017394520342350006,0.036898255348205566
1761132085258951200,6.242951171875,0.04195976257324219,-0.010158568620681763,0.048805758357048035
1761132085268951300,6.252951416015625,0.0036535263061523438,-0.02925797924399376,0.03916545212268829
1761132085278951200,6.262951171875,0.025200843811035156,-0.012552469968795776,0.0128927081823349
1761132085288951300,6.272951416015625,0.07308673858642578,-0.0004938952624797821,0.005584701895713806
1761132085298951200,6.282951171875,0.03717517852783203,0.011488551273941994,0.005485355854034424
1761132085308951300,6.292951416015625,0.015626907348632812,0.013886425644159317,-0.016023360192775726
1761132085318952000,6.302951904296875,0.010840415954589844,0.004299068823456764,-0.020929165184497833
1761132085328952000,6.3129521484375,0.044358253479003906,0.013919826596975327,-0.0424216091632843
1761132085338952000,6.322951904296875,0.034781455993652344,0.01870608702301979,-0.0328645184636116
1761132085348952000,6.3329521484375,-0.001132965087890625,-0.002938654273748398,-0.01368337869644165
1761132085358952000,6.342951904296875,0.03238677978515625,-0.010124504566192627,0.0006427466869354248
1761132085368952000,6.3529521484375,0.04914569854736328,-0.005414675921201706,0.012620106339454651
1761132085378952000,6.362951904296875,0.0467529296875,0.006609316915273666,0.034104153513908386
1761132085388952000,6.3729521484375,0.0467529296875,0.006589770317077637,0.034105777740478516
1761132085398952000,6.382951904296875,0.032387733459472656,-0.026994742453098297,0.024455606937408447
1761132085408952000,6.3929521484375,0.034783363342285156,-0.003055967390537262,0.012445524334907532
1761132085418951200,6.402951171875,0.04196643829345703,0.011246966198086739,0.0028343498706817627
1761132085428951300,6.412951416015625,0.04196643829345703,0.011246966198086739,0.0028343498706817627
1761132085438951200,6.422951171875,0.01802539825439453,0.008946016430854797,-0.021174289286136627
1761132085448951300,6.432951416015625,0.03957366943359375,0.004212213680148125,-0.018843449652194977
1761132085458951200,6.442951171875,0.03957557678222656,0.01869010180234909,-0.004527390003204346
1761132085468951300,6.452951416015625,0.018027305603027344,0.006821684539318085,-0.004476860165596008
1761132085478951200,6.462951171875,0.02281665802001953,0.001963682472705841,0.009756535291671753
1761132085488951300,6.472951416015625,0.05154609680175781,-0.024368058890104294,0.014603450894355774
1761132085498951200,6.482951171875,0.032393455505371094,-0.007570389658212662,0.01460006833076477
1761132085508951300,6.492951416015625,0.025211334228515625,0.016365977004170418,0.019329577684402466
1761132085518952000,6.502951904296875,0.02760601043701172,-0.0027930736541748047,0.012088298797607422
1761132085528952000,6.5129521484375,0.020422935485839844,0.01155584491789341,0.007340580224990845
1761132085538952200,6.5229521484375,0.03718090057373047,-0.005276449024677277,-0.04526670277118683
1761132085548952000,6.5329521484375,0.018027305603027344,-0.005276449024677277,-0.006959483027458191
1761132085558952200,6.5429521484375,0.03478813171386719,0.02338397689163685,-0.014274030923843384
1761132085568952000,6.5529521484375,0.03957653045654297,-0.007755756378173828,-0.026184797286987305
1761132085578952200,6.5629521484375,0.03957557678222656,-0.007770441472530365,-0.026124536991119385
1761132085588952000,6.5729521484375,0.029999732971191406,0.0018640905618667603,0.0073891133069992065
1761132085598952200,6.5829521484375,0.03957557678222656,-0.0005500465631484985,0.012179017066955566
1761132085608952000,6.5929521484375,0.058730125427246094,-0.007741998881101608,0.024032875895500183
1761132085618951200,6.602951171875,0.032393455505371094,-0.026847608387470245,0.0002047419548034668
1761132085628951300,6.612951416015625,0.020422935485839844,-0.026793409138917923,0.012112274765968323
1761132085638951200,6.622951171875,0.03000164031982422,0.009174168109893799,-0.004710391163825989
1761132085648951300,6.632951416015625,0.029999732971191406,-0.00041704997420310974,-0.002255842089653015
1761132085658951200,6.642951171875,0.027605056762695312,0.009041693061590195,-0.019024930894374847
1761132085668951300,6.652951416015625,0.01802825927734375,0.013868745416402817,-0.035787589848041534
1761132085678951200,6.662951171875,0.01802825927734375,-0.007620431482791901,-0.03100406378507614
1761132085688951300,6.672951416015625,0.05633544921875,-0.005242526531219482,-0.0022329241037368774
1761132085698951200,6.682951171875,0.04436492919921875,0.004335900768637657,0.0049692243337631226
1761132085708951300,6.692951416015625,0.029999732971191406,-0.005201816558837891,0.002571791410446167
1761132085718952200,6.7029521484375,0.03478813171386719,-0.01950892060995102,-0.011798471212387085
1761132085728952000,6.7129521484375,0.03957653045654297,-0.009931720793247223,0.004961073398590088
1761132085738952200,6.7229521484375,0.030000686645507812,0.002015314996242523,0.002509862184524536
1761132085748952000,6.7329521484375,0.022818565368652344,0.00434478186070919,0.016801878809928894
1761132085758952200,6.7429521484375,0.030000686645507812,0.009118512272834778,0.004891127347946167
1761132085768952000,6.7529521484375,0.027605056762695312,0.0020596645772457123,-0.011799827218055725
1761132085778952200,6.7629521484375,0.04197216033935547,0.002033192664384842,0.0024888217449188232
1761132085788952000,6.7729521484375,0.013241767883300781,0.006816204637289047,-0.004752606153488159
1761132085798952200,6.7829521484375,0.020424842834472656,0.014057055115699768,-0.007151797413825989
1761132085808952000,6.7929521484375,0.022818565368652344,-0.0004473775625228882,-0.014342859387397766
1761132085818951200,6.802951171875,0.034789085388183594,0.006721336394548416,-0.009493932127952576
1761132085828951300,6.812951416015625,0.03718280792236328,-0.007702123373746872,-0.009488925337791443
1761132085838951200,6.822951171875,0.025213241577148438,-0.007707778364419937,0.016788378357887268
1761132085848951300,6.832951416015625,0.03000164031982422,0.009090293198823929,0.007208317518234253
1761132085858951200,6.842951171875,0.03239631652832031,0.004295269027352333,-0.002446696162223816
1761132085868951300,6.852951416015625,0.022818565368652344,0.01858760043978691,-0.007169961929321289
1761132085878951200,6.862951171875,0.03718376159667969,0.011345123872160912,0.002392292022705078
1761132085888951300,6.872951416015625,0.032395362854003906,-0.0007089339196681976,-0.012025073170661926
1761132085898951200,6.882951171875,0.02521514892578125,0.013646934181451797,-0.024113208055496216
1761132085908951300,6.892951416015625,0.032398223876953125,0.004064464941620827,-0.014614462852478027
1761132085918952000,6.902951904296875,0.03718757629394531,-0.00308150053024292,-0.007473930716514587
1761132085928952000,6.9129521484375,0.039581298828125,-0.0030762404203414917,-0.007415160536766052
1761132085938952000,6.922951904296875,0.03000354766845703,0.011275513097643852,0.014193177223205566
1761132085948952000,6.9329521484375,0.025216102600097656,0.006540488451719284,0.02131214737892151
1761132085958952000,6.942951904296875,0.022820472717285156,-0.005503971129655838,0.007012009620666504
1761132085968952000,6.9529521484375,0.022820472717285156,0.003997897729277611,0.01424020528793335
1761132085978952200,6.9629521484375,0.03957843780517578,0.0014717429876327515,0.004733383655548096
1761132085988952000,6.9729521484375,0.02521228790283203,0.011112449690699577,-0.0023953020572662354
1761132085998952200,6.9829521484375,0.03957843780517578,0.0015894100069999695,0.004723787307739258
1761132086008952000,6.9929521484375,0.041970252990722656,0.008762206882238388,-0.01909933239221573
1761132086018951200,7.002951171875,0.032395362854003906,-0.01987535133957863,-0.009589269757270813
1761132086028951300,7.012951416015625,0.030000686645507812,0.001677200198173523,-0.007136493921279907
1761132086038951200,7.022951171875,0.03957843780517578,0.0065629370510578156,0.009614676237106323
1761132086048951300,7.032951416015625,0.027606964111328125,0.013740237802267075,0.009556055068969727
1761132086058951200,7.042951171875,0.013243675231933594,0.0018181316554546356,-0.00014288723468780518
1761132086068951300,7.052951416015625,0.03239727020263672,-0.002971455454826355,-0.00016245245933532715
1761132086078951200,7.062951171875,0.018032073974609375,0.020951014012098312,0.007021769881248474
1761132086088951300,7.072951416015625,0.027608871459960938,0.006709437817335129,0.007090181112289429
1761132086098951200,7.082951171875,0.0371856689453125,-0.005283176898956299,0.009466469287872314
1761132086108951300,7.092951416015625,0.0371856689453125,0.009200531989336014,0.0022935420274734497
1761132086118952200,7.1029521484375,0.032398223876953125,-0.002791251987218857,-0.009695261716842651
1761132086128952000,7.1129521484375,0.027608871459960938,-0.005200915038585663,-0.00005844235420227051
1761132086138952200,7.1229521484375,0.027606964111328125,-0.005268968641757965,0.0000654458999633789
1761132086148952000,7.1329521484375,0.041970252990722656,0.016225339844822884,0.004917442798614502
1761132086158952200,7.1429521484375,0.029999732971191406,0.009026434272527695,-0.007012873888015747
1761132086168952000,7.1529521484375,0.008451461791992188,0.009007327258586884,-0.007011249661445618
1761132086178952200,7.1629521484375,0.04436206817626953,0.016126347705721855,-0.028376638889312744
1761132086188952000,7.1729521484375,0.04196643829345703,-0.005496013909578323,-0.006783127784729004
1761132086198952200,7.1829521484375,0.02041912078857422,-0.0007662512362003326,0.005192756652832031
1761132086208952000,7.1929521484375,0.027602195739746094,-0.007958196103572845,0.014652416110038757
1761132086218951200,7.202951171875,0.02999591827392578,0.008786145597696304,0.000347331166267395
1761132086228951300,7.212951416015625,0.03717803955078125,0.01116444356739521,0.005176573991775513
1761132086238951200,7.222951171875,0.03238868713378906,-0.012831088155508041,-0.004336640238761902
1761132086248951300,7.232951416015625,0.00844573974609375,-0.0009402744472026825,-0.0019556283950805664
1761132086258951200,7.242951171875,0.025205612182617188,-0.00819658488035202,-0.006679028272628784
1761132086268951300,7.252951416015625,0.008442878723144531,-0.005865965038537979,-0.018467627465724945
1761132086278951200,7.262951171875,0.018019676208496094,-0.0010775625705718994,-0.00170820951461792
1761132086288951300,7.272951416015625,0.03238487243652344,0.001355733722448349,-0.008894070982933044
1761132086298951200,7.282951171875,0.03717327117919922,0.003749096766114235,0.0030576586723327637
1761132086308951300,7.292951416015625,0.039566993713378906,-0.029843565076589584,0.010305196046829224
1761132086318952200,7.3029521484375,0.02759552001953125,-0.008314907550811768,-0.011240854859352112
1761132086328952000,7.3129521484375,0.034778594970703125,0.00844493880867958,0.0055185407400131226
1761132086338952200,7.3229521484375,0.02280712127685547,0.0037151742726564407,-0.00885152816772461
1761132086348952000,7.3329521484375,0.029989242553710938,-0.0036006122827529907,-0.00880095362663269
1761132086358952200,7.3429521484375,0.03477764129638672,0.0011682398617267609,-0.00640513002872467
1761132086368952000,7.3529521484375,0.029989242553710938,0.003620253875851631,-0.004015922546386719
1761132086378952200,7.3629521484375,0.027594566345214844,-0.0035237781703472137,-0.015990354120731354
1761132086388952000,7.3729521484375,0.010837554931640625,-0.02023429051041603,-0.016112498939037323
1761132086398952200,7.3829521484375,0.01801776885986328,0.0061507560312747955,0.0007609575986862183
1761132086408952000,7.3929521484375,0.029989242553710938,-0.008208762854337692,-0.003968685865402222
1761132086418951200,7.402951171875,0.0395660400390625,0.020442239940166473,-0.006375819444656372
1761132086428951300,7.412951416015625,0.039566993713378906,0.020495623350143433,-0.0064394474029541016
1761132086438951200,7.422951171875,0.025201797485351562,-0.01787024363875389,0.007930636405944824
1761132086448951300,7.432951416015625,0.0395660400390625,0.005992751568555832,0.015100449323654175
1761132086458951200,7.442951171875,0.04674816131591797,0.008386041969060898,0.007917523384094238
1761132086468951300,7.452951416015625,0.03238391876220703,0.0035141538828611374,0.005471184849739075
1761132086478951200,7.462951171875,0.041960716247558594,0.017938002943992615,0.0006779283285140991
1761132086488951300,7.472951416015625,0.02280712127685547,0.00349259190261364,-0.0017294734716415405
1761132086498951200,7.482951171875,0.027593612670898438,0.013060808181762695,-0.025552332401275635
1761132086508951300,7.492951416015625,0.02041149139404297,-0.006029695272445679,-0.01352769136428833
1761132086518952000,7.502951904296875,0.04674720764160156,0.01076907105743885,-0.0015598386526107788
1761132086528952000,7.5129521484375,0.04674816131591797,0.0107633788138628,-0.0016185939311981201
1761132086538952200,7.5229521484375,0.015621185302734375,-0.0036698468029499054,-0.00628325343132019
1761132086548952000,7.5329521484375,0.034775733947753906,0.020330805331468582,0.012865513563156128
1761132086558952200,7.5429521484375,0.022803306579589844,-0.015596114099025726,-0.0014391839504241943
1761132086568952000,7.5529521484375,0.04195690155029297,0.01784328743815422,-0.001452118158340454
1761132086578952200,7.5629521484375,0.04913902282714844,-0.0013636574149131775,0.015370786190032959
1761132086588952000,7.5729521484375,0.022802352905273438,0.02501729503273964,0.013032257556915283
1761132086598952000,7.582951904296875,0.03956127166748047,0.01775527372956276,-0.00852850079536438
1761132086608952000,7.5929521484375,0.022803306579589844,0.0033802036195993423,-0.008645817637443542
1761132086618951200,7.602951171875,0.025197982788085938,-0.022961270064115524,-0.001521974802017212
1761132086628951300,7.612951416015625,0.032380104064941406,0.008044455200433731,-0.013502806425094604
1761132086638951200,7.622951171875,0.025198936462402344,-0.0016154013574123383,-0.003978148102760315
1761132086648951300,7.632951416015625,0.0347747802734375,0.005630712956190109,-0.003924369812011719
1761132086658951200,7.642951171875,0.03716850280761719,-0.00157267227768898,0.010423034429550171
1761132086668951300,7.652951416015625,0.018016815185546875,0.022365307435393333,-0.004000678658485413
1761132086678951200,7.662951171875,0.03477668762207031,0.012847520411014557,0.01993662118911743
1761132086688951300,7.672951416015625,0.037169456481933594,-0.00865555927157402,0.012809664011001587
1761132086698951200,7.682951171875,0.041957855224609375,0.0009015724062919617,0.01041702926158905
1761132086708951300,7.692951416015625,0.02998638153076172,0.01533028669655323,-0.003894418478012085
1761132086718952000,7.702951904296875,0.015622138977050781,0.0010041669011116028,0.015255957841873169
1761132086728952000,7.7129521484375,0.022803306579589844,0.013094503432512283,-0.0038878321647644043
1761132086738952000,7.722951904296875,0.041957855224609375,0.013153143227100372,-0.001498490571975708
1761132086748952000,7.7329521484375,0.03716850280761719,0.010802896693348885,-0.0038373172283172607
1761132086758952000,7.742951904296875,0.029987335205078125,-0.0035673528909683228,0.01046934723854065
1761132086768952000,7.7529521484375,0.015621185302734375,0.013237230479717255,-0.018205411732196808
1761132086778952200,7.7629521484375,0.020410537719726562,0.006171897053718567,0.020092085003852844
1761132086788952000,7.7729521484375,0.039565086364746094,-0.003365378826856613,-0.01821839064359665
1761132086798952200,7.7829521484375,0.02998638153076172,-0.003494095057249069,0.0058327168226242065
1761132086808952000,7.7929521484375,0.015620231628417969,-0.00594654306769371,0.013020321726799011
1761132086818951200,7.802951171875,0.04674530029296875,-0.001242026686668396,0.010554656386375427
1761132086828951300,7.812951416015625,0.032378196716308594,-0.008434023708105087,0.013067781925201416
1761132086838951200,7.822951171875,0.044350624084472656,-0.0013153515756130219,0.00583137571811676
1761132086848951300,7.832951416015625,0.03716754913330078,-0.01328635960817337,0.008225575089454651
1761132086858951200,7.842951171875,0.03477191925048828,0.010645711794495583,-0.017991773784160614
1761132086868951300,7.852951416015625,0.04674339294433594,0.003437073901295662,0.0058736652135849
1761132086878951200,7.862951171875,0.027588844299316406,-0.008528679609298706,0.010720834136009216
1761132086888951300,7.872951416015625,0.027588844299316406,-0.006095778197050095,0.003534868359565735
1761132086898951200,7.882951171875,0.020406723022460938,0.0011458992958068848,-0.003652602434158325
1761132086908951300,7.892951416015625,0.0299835205078125,-0.013239294290542603,-0.008439376950263977
1761132086918952000,7.902951904296875,0.04195404052734375,-0.01078171655535698,0.0011911541223526
1761132086928952000,7.9129521484375,0.034770965576171875,0.0011746101081371307,0.00125141441822052
1761132086938952200,7.9229521484375,0.027588844299316406,0.013199780136346817,-0.013177171349525452
1761132086948952000,7.9329521484375,0.027588844299316406,0.010786032304167747,0.003583863377571106
1761132086958952200,7.9429521484375,0.03716564178466797,0.015633074566721916,-0.010786205530166626
1761132086968952000,7.9529521484375,0.0299835205078125,-0.005934286862611771,-0.013178780674934387
1761132086978952200,7.9629521484375,0.029985427856445312,-0.0012113973498344421,0.013083994388580322
1761132086988952000,7.9729521484375,0.02759075164794922,-0.00594615563750267,0.010626241564750671
1761132086998952200,7.9829521484375,0.032379150390625,-0.0035711079835891724,-0.003737226128578186
1761132087008952000,7.9929521484375,0.03716850280761719,-0.010636433959007263,0.003435656428337097
1761132087018951200,8.002951171875,0.022803306579589844,0.013306397944688797,-0.0013526082038879395
1761132087028951300,8.012951416015625,0.02759075164794922,-0.010708548128604889,-0.01565258949995041
1761132087038951200,8.022951171875,0.03716754913330078,0.0012404732406139374,-0.00848802924156189
1761132087048951300,8.032951416015624,0.029985427856445312,0.017999883741140366,-0.00848802924156189
1761132087058951200,8.042951171875,0.025197982788085938,0.00608251616358757,0.010602027177810669
1761132087068951300,8.052951416015626,0.02759075164794922,-0.008302241563796997,-0.00615575909614563
1761132087078951200,8.062951171875,0.044350624084472656,0.0036536995321512222,0.010663792490959167
1761132087088951000,8.072950927734375,0.02519702911376953,0.0037127267569303513,-0.015677161514759064
1761132087098951200,8.082951171875,0.04434967041015625,0.01560879684984684,-0.001266375184059143
1761132087108951000,8.092950927734375,0.02759075164794922,-0.015521079301834106,-0.015690363943576813
1761132087118952000,8.102951904296875,0.03716850280761719,0.008416466414928436,-0.013354644179344177
1761132087128952000,8.1129521484375,0.018014907836914062,-0.0035742223262786865,-0.0013820528984069824
1761132087138952000,8.122951904296874,0.039562225341796875,0.0036132466048002243,0.0034649670124053955
1761132087148952000,8.1329521484375,0.03716754913330078,0.010774297639727592,0.020206332206726074
1761132087158952000,8.142951904296876,0.039562225341796875,0.005927257239818573,0.0034517794847488403
1761132087168952000,8.1529521484375,0.02759075164794922,0.01787467673420906,-0.0013934969902038574
1761132087178952000,8.162951904296875,0.03716850280761719,0.0011087805032730103,-0.006260111927986145
1761132087188952000,8.1729521484375,0.02998638153076172,0.015400668606162071,-0.006194978952407837
1761132087198952000,8.182951904296875,0.025197982788085938,-0.0013055317103862762,0.012895092368125916
1761132087208952000,8.1929521484375,0.032380104064941406,0.0034832600504159927,0.005712628364562988
1761132087218951200,8.202951171875,0.025198936462402344,-0.013299733400344849,-0.003921091556549072
1761132087228951300,8.212951416015626,0.03477668762207031,0.003399418666958809,-0.0015415549278259277
1761132087238951200,8.222951171875,0.02998638153076172,0.0032650176435709,-0.023039057850837708
1761132087248951300,8.232951416015625,0.03956317901611328,-0.006316609680652618,0.0008441954851150513
1761132087258951200,8.242951171875,0.032380104064941406,-0.008784126490354538,-0.013455897569656372
1761132087268951300,8.252951416015625,0.029987335205078125,-0.0040018148720264435,-0.0015629380941390991
1761132087278951200,8.262951171875,0.04195880889892578,-0.020647332072257996,0.019936010241508484
1761132087288951300,8.272951416015625,0.03238105773925781,-0.015872828662395477,0.005631312727928162
1761132087298951200,8.282951171875,0.027593612670898438,0.005609866231679916,0.0031637996435165405
1761132087308951300,8.292951416015624,0.01801586151123047,0.003143167123198509,0.012805864214897156
1761132087318952200,8.3029521484375,0.032380104064941406,0.010369731113314629,-0.0038981586694717407
1761132087328952300,8.312952392578126,0.03238201141357422,0.010358380153775215,-0.00403498113155365
1761132087338952200,8.3229521484375,0.018016815185546875,-0.006401460617780685,0.0007534176111221313
1761132087348952000,8.3329521484375,0.01801586151123047,-0.00402151420712471,-0.0063689351081848145
1761132087358952200,8.3429521484375,0.025197982788085938,0.017467234283685684,0.008001133799552917
1761132087368952000,8.3529521484375,0.029989242553710938,-0.006367754191160202,0.017450779676437378
1761132087378952200,8.3629521484375,0.03238391876220703,-0.008846625685691833,0.010196462273597717
1761132087388952000,8.3729521484375,0.03717041015625,-0.00879780575633049,-0.016025714576244354
1761132087398952200,8.3829521484375,0.03477668762207031,0.015145035460591316,0.003128036856651306
1761132087408952000,8.3929521484375,0.04914283752441406,-0.0016196705400943756,0.024617210030555725
1761132087418951200,8.402951171875,0.04435443878173828,0.015178045257925987,-0.016087718307971954
1761132087428951300,8.412951416015625,0.02999114990234375,-0.011105354875326157,0.0030022263526916504
1761132087438951200,8.422951171875,0.029990196228027344,-0.011164374649524689,0.003006964921951294
1761132087448951300,8.432951416015625,0.03238391876220703,-0.004002939909696579,0.0005948394536972046
1761132087458951200,8.442951171875,0.04435539245605469,-0.015974342823028564,-0.016164712607860565
1761132087468951300,8.452951416015624,0.013231277465820312,0.01757870987057686,-0.011438190937042236
1761132087478951200,8.462951171875,0.008442878723144531,-0.0040273517370224,-0.018615804612636566
1761132087488951300,8.472951416015626,0.02520275115966797,-0.011229634284973145,-0.006643220782279968
1761132087498951200,8.482951171875,-0.001132965087890625,-0.006387453526258469,-0.0043125152587890625
1761132087508951300,8.492951416015625,0.03238487243652344,-0.0016743838787078857,-0.006661266088485718
1761132087518952000,8.502951904296875,0.025203704833984375,-0.006467260420322418,0.01003962755203247
1761132087528952000,8.5129521484375,0.027599334716796875,-0.008870795369148254,0.0027398765087127686
1761132087538952000,8.522951904296875,0.037177085876464844,0.0030310098081827164,-0.0021802037954330444
1761132087548952000,8.5329521484375,0.01562976837158203,-0.0017573945224285126,0.007396593689918518
1761132087558952000,8.542951904296874,0.02999591827392578,-0.004156019538640976,-0.004633054137229919
1761132087568952000,8.5529521484375,0.029996871948242188,0.0005618296563625336,0.014388561248779297
1761132087578952000,8.562951904296876,0.03718090057373047,0.00299026258289814,-0.002432718873023987
1761132087588952000,8.5729521484375,0.03718090057373047,0.002926761284470558,-0.002486497163772583
1761132087598952000,8.582951904296875,0.03239250183105469,-0.016182463616132736,0.02390509843826294
1761132087608952000,8.5929521484375,0.027605056762695312,0.017448335886001587,0.007077321410179138
1761132087618951200,8.602951171875,0.041970252990722656,-0.0040404051542282104,-0.009686946868896484
1761132087628951300,8.612951416015624,0.025209426879882812,0.01749798282980919,-0.016750536859035492
1761132087638951200,8.622951171875,0.03478527069091797,0.0007242821156978607,-0.004719138145446777
1761132087648951300,8.632951416015626,0.01802539825439453,-0.006336323916912079,0.002512335777282715
1761132087658951200,8.642951171875,0.027602195739746094,-0.0231148861348629,-0.0070627182722091675
1761132087668951300,8.652951416015625,0.03238964080810547,0.015117010101675987,-0.009411469101905823
1761132087678951200,8.662951171875,0.025205612182617188,0.00786108523607254,0.005018875002861023
1761132087688951300,8.672951416015625,0.020417213439941406,0.00546727329492569,0.01938420534133911
1761132087698951200,8.682951171875,0.03238964080810547,0.007857441902160645,-0.014193117618560791
1761132087708951300,8.692951416015624,0.029996871948242188,-0.011361293494701385,-0.0070838481187820435
1761132087718952200,8.7029521484375,0.03478431701660156,0.007714923471212387,-0.004682913422584534
1761132087728952000,8.7129521484375,0.03238964080810547,0.0029243770986795425,0.00008578598499298096
1761132087738952200,8.7229521484375,0.04436206817626953,-0.0018249377608299255,0.007265150547027588
1761132087748952000,8.7329521484375,0.029996871948242188,0.005357276648283005,-0.004705995321273804
1761132087758952200,8.7429521484375,0.027601242065429688,0.0004906877875328064,-0.011882111430168152
1761132087768952000,8.7529521484375,0.03238964080810547,0.007673688232898712,0.01924264430999756
1761132087778952200,8.7629521484375,0.02520751953125,0.002864902839064598,0.002465561032295227
1761132087788952000,8.7729521484375,0.03478431701660156,0.010032827034592628,-0.0022625774145126343
1761132087798952200,8.7829521484375,0.027599334716796875,0.005191080272197723,0.00977189838886261
1761132087808952000,8.7929521484375,0.03478431701660156,0.012304093688726425,-0.009513527154922485
1761132087818951400,8.802951416015626,0.039572715759277344,0.019408386200666428,-0.004718691110610962
1761132087828951300,8.812951416015625,0.04436206817626953,0.02413245663046837,-0.0000033527612686157227
1761132087838951200,8.822951171875,0.027601242065429688,0.00015621259808540344,0.014423727989196777
1761132087848951300,8.832951416015625,0.0036592483520507812,0.000017773360013961792,0.0287807434797287
1761132087858951200,8.842951171875,0.006052970886230469,-0.004829661920666695,0.02639128267765045
1761132087868951300,8.852951416015625,0.05154132843017578,0.0046115536242723465,0.021633625030517578
1761132087878951200,8.862951171875,0.032385826110839844,0.018827268853783607,0.016936510801315308
1761132087888951300,8.872951416015624,0.05393409729003906,-0.007670173421502113,-0.009445399045944214
1761132087898951200,8.882951171875,0.029992103576660156,-0.000547824427485466,-0.009460076689720154
1761132087908951300,8.892951416015626,0.015626907348632812,-0.012475404888391495,-0.00701063871383667
1761132087918952000,8.902951904296875,0.013234138488769531,-0.0220615416765213,-0.03346402198076248
1761132087928952000,8.9129521484375,0.02999401092529297,0.013851873576641083,-0.01191607117652893
1761132087938952000,8.922951904296875,0.022810935974121094,0.004251487553119659,0.004786431789398193
1761132087948952000,8.9329521484375,0.02999401092529297,-0.005267111584544182,0.011964201927185059
1761132087958952000,8.942951904296875,0.03717803955078125,-0.007726827636361122,0.023861736059188843
1761132087968952000,8.9529521484375,0.03238964080810547,0.013796579092741013,0.026198938488960266
1761132087978952000,8.962951904296874,0.02520751953125,0.006672875955700874,0.0357709676027298
1761132087988952000,8.9729521484375,0.039572715759277344,-0.0029849205166101456,0.004613727331161499
1761132087998952000,8.982951904296876,0.022813796997070312,0.013707317411899567,-0.021815337240695953
1761132088008952000,8.9929521484375,0.051544189453125,0.0017371401190757751,-0.005055814981460571
1761132088018951200,9.002951171875,0.003662109375,0.004105314612388611,-0.026680201292037964
1761132088028951000,9.012950927734375,0.010844230651855469,0.013864517211914062,-0.01943398267030716
1761132088038951200,9.022951171875,0.03957366943359375,-0.0005679354071617126,-0.009733200073242188
1761132088048951300,9.032951416015624,0.061120033264160156,-0.002982906997203827,-0.002568379044532776
1761132088058951200,9.042951171875,0.04915046691894531,0.011438094079494476,-0.0002180039882659912
1761132088068951300,9.052951416015626,0.029998779296875,-0.017063165083527565,0.011674761772155762
1761132088078951200,9.062951171875,0.027605056762695312,0.009384635835886002,0.009212061762809753
1761132088088951000,9.072950927734375,0.029999732971191406,-0.016832292079925537,-0.012325778603553772
1761132088098951200,9.082951171875,0.025211334228515625,-0.00002849102020263672,-0.00029937922954559326
1761132088108951000,9.092950927734375,0.039577484130859375,-0.0021283291280269623,-0.009880945086479187
1761132088118952000,9.102951904296875,0.032395362854003906,0.00042416900396347046,0.0068849921226501465
1761132088128952000,9.1129521484375,0.04436779022216797,-0.0018002018332481384,-0.021918870508670807
1761132088138952000,9.122951904296874,0.02521514892578125,0.019924703985452652,-0.005154505372047424
1761132088148952000,9.1329521484375,0.018032073974609375,-0.011096496134996414,-0.021863259375095367
1761132088158952000,9.142951904296876,0.037184715270996094,-0.003870464861392975,-0.005048617720603943
1761132088168952000,9.1529521484375,0.015636444091796875,0.013011474162340164,-0.007393777370452881
1761132088178952000,9.162951904296875,0.03718376159667969,-0.0012543834745883942,0.004588678479194641
1761132088188952000,9.1729521484375,0.02042675018310547,0.0013743676245212555,0.009357631206512451
1761132088198952000,9.182951904296875,0.02521514892578125,-0.015207905322313309,0.0045740604400634766
1761132088208952000,9.1929521484375,0.04197406768798828,-0.0030737854540348053,0.004639372229576111
1761132088218951200,9.202951171875,0.025216102600097656,0.006678100675344467,0.0022304654121398926
1761132088228951000,9.212950927734376,0.03239727020263672,0.011630179360508919,0.0022958219051361084
1761132088238951200,9.222951171875,0.02521514892578125,0.01420554518699646,-0.007236793637275696
1761132088248951000,9.232950927734375,0.04436969757080078,0.007061634212732315,0.009519234299659729
1761132088258951200,9.242951171875,0.04676342010498047,-0.012033861130475998,-0.014427810907363892
1761132088268951000,9.252950927734375,0.02521514892578125,0.007224749773740768,-0.011963263154029846
1761132088278951200,9.262951171875,0.04197406768798828,-0.011884909123182297,-0.004725277423858643
1761132088288951300,9.272951416015625,0.049157142639160156,-0.0023077093064785004,0.0168226957321167
1761132088298951200,9.282951171875,0.02042675018310547,-0.014219645410776138,0.021606221795082092
1761132088308951300,9.292951416015624,0.03239727020263672,-0.0022677890956401825,0.026396378874778748
1761132088318952000,9.302951904296876,0.039580345153808594,-0.01896856352686882,-0.002338901162147522
1761132088328952000,9.3129521484375,0.03000164031982422,0.00011535361409187317,-0.009417176246643066
1761132088338952000,9.322951904296875,0.02760791778564453,-0.00936463475227356,-0.007031381130218506
1761132088348952000,9.3329521484375,0.025213241577148438,-0.0021165236830711365,-0.014140516519546509
1761132088358952000,9.342951904296875,0.022817611694335938,0.0026563555002212524,0.012236684560775757
1761132088368952000,9.3529521484375,0.010846138000488281,0.0003712214529514313,-0.018759213387966156
1761132088378952000,9.362951904296875,0.046756744384765625,0.017121242359280586,0.0053016990423202515
1761132088388952000,9.3729521484375,0.053940773010253906,-0.011491511017084122,-0.004284694790840149
1761132088398952000,9.382951904296876,0.029998779296875,0.007642168551683426,-0.0186484232544899
1761132088408952000,9.3929521484375,0.041970252990722656,0.012425580993294716,-0.00434190034866333
1761132088418951200,9.402951171875,0.032393455505371094,0.005282459780573845,0.010020211338996887
1761132088428951300,9.412951416015625,0.037181854248046875,0.010010216385126114,-0.011542409658432007
1761132088438951200,9.422951171875,0.032393455505371094,-0.011483870446681976,0.0027594268321990967
1761132088448951000,9.432950927734375,0.03478813171386719,0.0004134252667427063,-0.001964002847671509
1761132088458951200,9.442951171875,0.020421981811523438,-0.021148681640625,0.002884790301322937
1761132088468951000,9.452950927734374,0.0276031494140625,0.014807377010583878,-0.009031131863594055
1761132088478951200,9.462951171875,0.027602195739746094,0.014934375882148743,-0.008923575282096863
1761132088488951000,9.472950927734376,0.027602195739746094,0.0005447566509246826,0.010173007845878601
1761132088498951200,9.482951171875,0.037178993225097656,-0.004238784313201904,0.000654861330986023
1761132088508951000,9.492950927734375,0.037178993225097656,-0.004259560257196426,0.000637054443359375
1761132088518952000,9.502951904296875,0.044361114501953125,0.0005744099617004395,0.0007120221853256226
1761132088528952000,9.5129521484375,0.025206565856933594,0.0005194060504436493,0.015121310949325562
1761132088538952000,9.522951904296875,0.022810935974121094,-0.004220705479383469,-0.015889473259449005
1761132088548952000,9.5329521484375,0.027599334716796875,-0.008910149335861206,0.005669653415679932
1761132088558952000,9.542951904296874,0.034781455993652344,0.003005068749189377,0.008107677102088928
1761132088568952000,9.5529521484375,0.03478050231933594,0.0030498020350933075,0.008163347840309143
1761132088578952200,9.5629521484375,0.03956890106201172,0.0030302591621875763,-0.01577705889940262
1761132088588952000,9.5729521484375,0.027597427368164062,-0.008935891091823578,-0.015718422830104828
1761132088598952000,9.582951904296875,0.03478050231933594,-0.001714322715997696,0.0034319162368774414
1761132088608952000,9.5929521484375,0.05153846740722656,-0.02086307853460312,-0.008480459451675415
1761132088618951400,9.602951416015625,0.03956794738769531,-0.0016703717410564423,0.0010931193828582764
1761132088628951300,9.612951416015624,0.02999114990234375,0.012694837525486946,0.013064131140708923
1761132088638951200,9.622951171875,0.022808074951171875,0.005432819947600365,-0.0037082284688949585
1761132088648951300,9.632951416015626,0.02999114990234375,-0.00883018970489502,-0.006052032113075256
1761132088658951400,9.642951416015626,0.029992103576660156,0.00552964024245739,-0.015687651932239532
1761132088668951300,9.652951416015625,0.03478050231933594,0.00792384147644043,-0.008505046367645264
1761132088678951400,9.662951416015625,0.02520275115966797,0.0006630532443523407,0.008260846138000488
1761132088688951300,9.672951416015625,0.0443572998046875,0.015022173523902893,-0.008576616644859314
1761132088698951400,9.682951416015625,0.029993057250976562,-0.025683730840682983,-0.008635103702545166
1761132088708951300,9.692951416015624,0.03478050231933594,-0.008939001709222794,-0.0013922452926635742
1761132088718952200,9.7029521484375,0.02280902862548828,0.012609248980879784,0.008184552192687988
1761132088728952000,9.7129521484375,0.020414352416992188,-0.006559491157531738,0.022610023617744446
1761132088738952200,9.7229521484375,0.032385826110839844,-0.00177847221493721,-0.02056410163640976
1761132088748952000,9.7329521484375,0.02759838104248047,-0.013773888349533081,0.024868696928024292
1761132088758952200,9.7429521484375,0.0180206298828125,-0.009044554084539413,-0.015827856957912445
1761132088768952000,9.7529521484375,0.02999591827392578,0.019733160734176636,0.0007898807525634766
1761132088778952200,9.7629521484375,0.02999401092529297,0.01965983584523201,0.000854983925819397
1761132088788952300,9.772952392578125,0.034783363342285156,-0.00907500833272934,-0.008780449628829956
1761132088798952200,9.7829521484375,0.03957080841064453,-0.011549010872840881,0.007965877652168274
1761132088808952300,9.792952392578124,0.03717613220214844,0.007545836269855499,0.0031823068857192993
1761132088818951400,9.802951416015626,0.037177085876464844,-0.009279131889343262,0.007897377014160156
1761132088828951300,9.812951416015625,0.03478431701660156,0.0026235245168209076,-0.0041860491037368774
1761132088838951400,9.822951416015625,0.027601242065429688,-0.004638452082872391,-0.004199117422103882
1761132088848951300,9.832951416015625,0.051543235778808594,0.00002738088369369507,-0.009036421775817871
1761132088858951400,9.842951416015625,0.027602195739746094,-0.01915343478322029,0.02201123535633087
1761132088868951300,9.852951416015625,0.03478527069091797,0.014306753873825073,-0.0091085284948349
1761132088878951200,9.862951171875,0.02042102813720703,-0.0025756321847438812,-0.0043883174657821655
1761132088888951300,9.872951416015624,0.013238906860351562,-0.014571178704500198,0.0027372241020202637
1761132088898951200,9.882951171875,0.03718090057373047,0.004522962495684624,0.017088010907173157
1761132088908951300,9.892951416015626,0.02521038055419922,0.0020652636885643005,0.0002748221158981323
1761132088918952000,9.902951904296875,0.029998779296875,-0.01477188989520073,-0.004507109522819519
1761132088928952000,9.9129521484375,0.020422935485839844,0.004374803975224495,0.0097799152135849
1761132088938952000,9.922951904296875,0.022815704345703125,-0.0029450133442878723,0.0026085376739501953
1761132088948952000,9.9329521484375,0.02281665802001953,-0.007739506661891937,0.004924684762954712
1761132088958952000,9.942951904296875,0.03957557678222656,-0.010206203907728195,-0.002192661166191101
1761132088968952000,9.9529521484375,0.022813796997070312,-0.01996959000825882,-0.01644369214773178
1761132088978952200,9.9629521484375,0.029996871948242188,0.0063076019287109375,-0.004467964172363281
1761132088988952000,9.9729521484375,0.02520751953125,-0.003349918872117996,-0.002087116241455078
1761132088998952200,9.9829521484375,0.02999591827392578,0.0037748347967863083,-0.01644720882177353
1761132089008952000,9.9929521484375,0.01802539825439453,-0.005886636674404144,-0.021307311952114105
1761132089018951200,10.002951171875,0.018027305603027344,0.0012858584523200989,0.0001230984926223755
1761132089028951300,10.012951416015625,0.027602195739746094,0.013143222779035568,-0.0070105791091918945
1761132089038951200,10.022951171875,0.027605056762695312,0.00828159973025322,0.011971995234489441
1761132089048951300,10.032951416015624,0.013238906860351562,-0.010952208191156387,0.007170379161834717
1761132089058951200,10.042951171875,0.03957653045654297,0.015379538759589195,0.02147708833217621
1761132089068951300,10.052951416015626,0.030000686645507812,-0.008567862212657928,-0.0025237351655960083
1761132089078951200,10.062951171875,0.0323944091796875,0.007995259016752243,0.009444177150726318
1761132089088951000,10.072950927734375,0.041970252990722656,0.0008179061114788055,-0.00007385015487670898
1761132089098951200,10.082951171875,0.027605056762695312,-0.011174265295267105,-0.0024859756231307983
1761132089108951000,10.092950927734375,0.027605056762695312,0.003186522051692009,-0.016909830272197723
1761132089118952000,10.102951904296875,0.015636444091796875,-0.006400439888238907,0.004520714282989502
1761132089128952000,10.1129521484375,0.03000164031982422,-0.006474941968917847,-0.021769948303699493
1761132089138952200,10.1229521484375,0.018030166625976562,0.012615568935871124,-0.002669975161552429
1761132089148952000,10.1329521484375,0.034790992736816406,0.012550447136163712,-0.01232011616230011
1761132089158952200,10.1429521484375,0.027606964111328125,-0.021042093634605408,-0.0050725191831588745
1761132089168952000,10.1529521484375,0.04676055908203125,0.007609575986862183,-0.005066096782684326
1761132089178952200,10.1629521484375,0.03239727020263672,0.014839915558695793,0.0043690502643585205
1761132089188952000,10.1729521484375,0.010850906372070312,0.0004063509404659271,0.018621832132339478
1761132089198952200,10.1829521484375,0.027609825134277344,0.0027402956038713455,0.011424556374549866
1761132089208952000,10.1929521484375,0.03000354766845703,-0.0020627938210964203,-0.002880394458770752
1761132089218951200,10.202951171875,0.0323944091796875,0.009844610467553139,-0.005092218518257141
1761132089228951300,10.212951416015626,0.03478813171386719,0.01941237598657608,-0.0025788694620132446
1761132089238951200,10.222951171875,0.015633583068847656,-0.011731401085853577,-0.0025771111249923706
1761132089248951000,10.232950927734375,0.029998779296875,-0.014125734567642212,0.002211242914199829
1761132089258951200,10.242951171875,0.032393455505371094,-0.0044898949563503265,-0.007370308041572571
1761132089268951000,10.252950927734375,0.02760601043701172,-0.014017779380083084,-0.002704024314880371
1761132089278951200,10.262951171875,0.018030166625976562,0.0028005708009004593,0.014050483703613281
1761132089288951000,10.272950927734374,0.02281951904296875,-0.001934051513671875,0.0020159780979156494
1761132089298951200,10.282951171875,0.015636444091796875,0.007525481283664703,0.006814092397689819
1761132089308951000,10.292950927734376,0.022817611694335938,-0.011643383651971817,0.0020859092473983765
1761132089318952000,10.302951904296876,0.03718376159667969,-0.014042016118764877,-0.0003669261932373047
1761132089328952000,10.3129521484375,0.039577484130859375,0.00983070395886898,-0.0002624690532684326
1761132089338952000,10.322951904296875,0.02760601043701172,0.012224510312080383,-0.00983940064907074
1761132089348952000,10.3329521484375,0.029999732971191406,0.016954146325588226,0.004530623555183411
1761132089358952000,10.342951904296875,0.03718376159667969,-0.01890592649579048,-0.007504001259803772
1761132089368951800,10.352951904296875,0.020424842834472656,-0.006934523582458496,-0.002715468406677246
1761132089378952000,10.362951904296875,0.027608871459960938,-0.011673703789710999,-0.0004434436559677124
1761132089388951800,10.372951904296874,0.03479194641113281,-0.011737201362848282,-0.0004972070455551147
1761132089398952000,10.382951904296876,0.020427703857421875,-0.004500813782215118,0.011410295963287354
1761132089408951800,10.392951904296876,0.027608871459960938,-0.002042856067419052,-0.0005068480968475342
1761132089418951200,10.402951171875,0.020427703857421875,-0.00451970100402832,0.013806313276290894
1761132089428951000,10.412950927734375,0.032398223876953125,-0.009183965623378754,0.0019038915634155273
1761132089438951000,10.422950927734375,0.015638351440429688,-0.004390697926282883,0.006750941276550293
1761132089448951000,10.432950927734375,0.008455276489257812,0.007561028003692627,-0.007612556219100952
1761132089458951000,10.442950927734374,0.027609825134277344,-0.002022653818130493,-0.0005082637071609497
1761132089468951000,10.452950927734374,0.032398223876953125,-0.0019668564200401306,0.011418938636779785
1761132089478951000,10.462950927734376,0.030004501342773438,-0.01153893768787384,-0.0028876811265945435
1761132089488951000,10.472950927734376,0.0371856689453125,-0.0067647844552993774,-0.007615834474563599
1761132089498951000,10.482950927734375,0.01803112030029297,0.00048210471868515015,0.0020150095224380493
1761132089508951000,10.492950927734375,0.025214195251464844,0.000481974333524704,0.006803363561630249
1761132089518952000,10.502951904296875,0.030002593994140625,-0.006779208779335022,0.018780723214149475
1761132089528951800,10.512951904296875,0.22393226623535156,-0.021258067339658737,0.04995428025722504
1761132089538952000,10.522951904296875,-0.14007949829101562,0.05282357707619667,-0.13054227828979492
1761132089548951800,10.532951904296874,0.08484077453613281,0.020125366747379303,-0.0033927038311958313
1761132089558952000,10.542951904296874,0.056166648864746094,-0.002136794850230217,-0.01237417757511139
1761132089568951800,10.552951904296876,0.07540607452392578,-0.04266674444079399,0.046172916889190674
