time,seconds_elapsed,z,y,x
1761131469817803500,0.135803466796875,0.46277427673339844,-0.9748983383178711,-0.8450033664703369
1761131469877802800,0.195802734375,-0.018100738525390625,-1.4232676029205322,-0.7018045783042908
1761131469887802600,0.205802734375,-0.23786067962646484,-1.3880209922790527,-0.773205578327179
1761131469897802500,0.215802490234375,-0.5317630767822266,-1.33492112159729,-0.7473220825195312
1761131469907802400,0.22580224609375,-0.6935691833496094,-1.150083065032959,-0.9207032918930054
1761131469917802200,0.23580224609375,-0.8004350662231445,-1.0237717628479004,-1.0555644035339355
1761131469927802000,0.245802001953125,-0.7802896499633789,-1.0094621181488037,-0.9957729578018188
1761131469937802000,0.255802001953125,-0.6884078979492188,-0.960869550704956,-0.9616569876670837
1761131469947801900,0.2658017578125,-0.5751419067382812,-0.9237179756164551,-0.8386285901069641
1761131469957801700,0.2758017578125,-0.5383014678955078,-0.9254920482635498,-0.6970652937889099
1761131469967801900,0.2858017578125,-0.5490837097167969,-0.9019985198974609,-0.5499316453933716
1761131469977801700,0.2958017578125,-0.4186668395996094,-0.8238449096679688,-0.36673325300216675
1761131469987801600,0.305801513671875,-0.31986141204833984,-0.7737867832183838,-0.15744024515151978
1761131469997801500,0.315801513671875,-0.38430118560791016,-0.7518353462219238,-0.019497454166412354
1761131470007801600,0.325801513671875,-0.4918527603149414,-0.9694817066192627,0.1327981948852539
1761131470017801500,0.335801513671875,-0.6255874633789062,-0.8808910846710205,-0.05263012647628784
1761131470027801300,0.34580126953125,-0.6350440979003906,-0.9875650405883789,-0.12459862232208252
1761131470037801500,0.355801513671875,-0.6193523406982422,-1.0569896697998047,-0.27064085006713867
1761131470047801300,0.36580126953125,-0.3614511489868164,-1.0317740440368652,-0.5897753238677979
1761131470057801200,0.37580126953125,-0.37636375427246094,-0.9874377250671387,-0.588560938835144
1761131470067800000,0.385800048828125,0.2173919677734375,-1.0874481201171875,-0.5435122847557068
1761131470077800200,0.39580029296875,0.512664794921875,-1.0308308601379395,-0.4774284362792969
1761131470087800000,0.405800048828125,0.694697380065918,-0.9085440635681152,-0.2870437502861023
1761131470097800000,0.415800048828125,0.6766986846923828,-0.850090742111206,-0.28342747688293457
1761131470107800000,0.425800048828125,0.47837162017822266,-0.5963728427886963,-0.22213834524154663
1761131470117800000,0.435800048828125,0.2173290252685547,-0.4382915496826172,-0.16780894994735718
1761131470127799800,0.4457998046875,0.0034399032592773438,-0.21768617630004883,-0.2779870629310608
1761131470137800000,0.455800048828125,-0.15742874145507812,-0.06328606605529785,-0.5939812660217285
1761131470147799800,0.4657998046875,-0.3103628158569336,-0.04019570350646973,-0.7262058258056641
1761131470157800000,0.475800048828125,-0.3051567077636719,-0.07744503021240234,-0.4471408724784851
1761131470167800800,0.48580078125,-0.3306112289428711,0.028034687042236328,-0.6227964162826538
1761131470177800700,0.49580078125,-0.3556184768676758,0.08490920066833496,-0.7712414264678955
1761131470187800800,0.50580078125,-0.35776805877685547,0.11520576477050781,-0.7990126013755798
1761131470197800700,0.51580078125,-0.3420295715332031,0.2695653438568115,-0.9314830303192139
1761131470207800800,0.52580078125,-0.25142955780029297,0.33757734298706055,-1.0157121419906616
1761131470217800700,0.53580078125,-0.14111995697021484,0.48387670516967773,-1.1403976678848267
1761131470227800800,0.54580078125,-0.10209083557128906,0.5450606346130371,-1.1586310863494873
1761131470237800700,0.55580078125,-0.10318851470947266,0.5953161716461182,-1.1153091192245483
1761131470247800800,0.56580078125,-0.08681678771972656,0.6058840751647949,-1.1617701053619385
1761131470257800700,0.57580078125,-0.0772542953491211,0.4847242832183838,-0.9341050386428833
1761131470267799800,0.5857998046875,-0.0796518325805664,0.5180625915527344,-1.0722075700759888
1761131470277800000,0.595800048828125,-0.11843299865722656,0.5542407035827637,-0.5795027613639832
1761131470287799800,0.6057998046875,-0.2960958480834961,0.6120469570159912,-0.3849993944168091
1761131470297800000,0.615800048828125,-0.32753467559814453,0.7176365852355957,-0.7929065227508545
1761131470307799800,0.6257998046875,-0.23701763153076172,0.8482382297515869,-1.1982009410858154
1761131470317800000,0.635800048828125,-0.0005779266357421875,0.8437097072601318,-1.2451324462890625
1761131470327799800,0.6457998046875,0.14418792724609375,0.6266880035400391,-0.9632844924926758
1761131470337800000,0.655800048828125,0.11385440826416016,0.5085093975067139,-0.7656108140945435
1761131470347799800,0.6657998046875,0.13155364990234375,0.38972997665405273,-0.7284914255142212
1761131470357800000,0.675800048828125,0.09713077545166016,0.26955604553222656,-0.6274243593215942
1761131470367800800,0.68580078125,0.0922231674194336,0.20212054252624512,-0.6310975551605225
1761131470377800700,0.69580078125,0.14101028442382812,0.18392705917358398,-0.6406084299087524
1761131470387800800,0.70580078125,0.2245616912841797,0.13222527503967285,-0.7668248414993286
1761131470397800700,0.71580078125,0.44353580474853516,0.04853940010070801,-0.8915988802909851
1761131470407800800,0.72580078125,0.6614465713500977,-0.03608536720275879,-1.0465584993362427
1761131470417800700,0.73580078125,0.8405017852783203,-0.0016541481018066406,-0.5982685089111328
1761131470427800800,0.74580078125,1.3713407516479492,0.01618027687072754,-0.08014187216758728
1761131470437800700,0.75580078125,1.8166093826293945,0.004778861999511719,-0.12062713503837585
1761131470457800700,0.77580078125,-0.15925312042236328,-0.5562105178833008,0.316143661737442
1761131470467800000,0.785800048828125,-1.1740083694458008,-0.5373636484146118,0.23221895098686218
1761131470477800000,0.795800048828125,-1.530311107635498,-0.2235703468322754,-0.6136033535003662
1761131470487800000,0.805800048828125,-1.430434226989746,0.2773261070251465,-1.5241010189056396
1761131470497800000,0.815800048828125,-0.6006612777709961,0.6885819435119629,-1.8814133405685425
1761131470507800000,0.825800048828125,0.3596830368041992,0.9755864143371582,-1.6948796510696411
1761131470517800000,0.835800048828125,1.126378059387207,1.1132657527923584,-1.4663307666778564
1761131470527800000,0.845800048828125,1.622715950012207,0.4508078098297119,-0.822970986366272
1761131470537800000,0.855800048828125,1.9769964218139648,-0.5991530418395996,-0.2911570370197296
1761131470547800000,0.865800048828125,2.2440185546875,-1.30788254737854,-0.20861691236495972
1761131470557800000,0.875800048828125,2.301708221435547,-1.555633306503296,0.01711362600326538
1761131470567800800,0.88580078125,1.9399795532226562,-1.3493462800979614,-0.11410671472549438
1761131470577800700,0.89580078125,1.609675407409668,-1.0848709344863892,-0.4912871718406677
1761131470587800800,0.90580078125,1.605330467224121,-1.0010700225830078,-0.9115393757820129
1761131470597800700,0.91580078125,1.565526008605957,-0.9361238479614258,-1.2410892248153687
1761131470607800800,0.92580078125,1.6317205429077148,-0.8686380386352539,-1.418316125869751
1761131470617800700,0.93580078125,1.9616823196411133,-0.5899178981781006,-1.8605247735977173
1761131470627800800,0.94580078125,1.8187332153320312,-0.5211186408996582,-1.1513633728027344
1761131470637800700,0.95580078125,1.581486701965332,-0.7807159423828125,-0.5933787822723389
1761131470647800800,0.96580078125,1.2489690780639648,-0.8731447458267212,-0.4956420063972473
1761131470657800700,0.97580078125,0.9311771392822266,-0.8892329931259155,-0.39514076709747314
1761131470667799800,0.9857998046875,0.7650995254516602,-0.828585147857666,-0.3882128596305847
1761131470677800000,0.995800048828125,0.20073986053466797,-0.7721936702728271,-0.49383002519607544
1761131470687799800,1.0057998046875,-0.28760814666748047,-0.611152172088623,-0.38645797967910767
1761131470697800000,1.015800048828125,-0.6741218566894531,-0.4995802640914917,0.16553127765655518
1761131470707799800,1.0257998046875,-0.9433689117431641,-0.359727144241333,0.23019933700561523
1761131470717800000,1.035800048828125,-0.9786243438720703,-0.14885592460632324,0.04574030637741089
1761131470727799800,1.0457998046875,-1.0665721893310547,-0.07522106170654297,0.3906150460243225
1761131470737800000,1.055800048828125,-1.0226669311523438,-0.07261180877685547,0.5108292102813721
1761131470747799800,1.0657998046875,-0.7923860549926758,-0.2043323516845703,0.322843998670578
1761131470757800000,1.075800048828125,-0.41442298889160156,-0.42767930030822754,0.06367248296737671
1761131470767800600,1.085800537109375,-0.04900360107421875,-0.5443301200866699,-0.006304323673248291
1761131470777800700,1.09580078125,0.1885986328125,-0.5244016647338867,-0.011220991611480713
1761131470787800600,1.105800537109375,0.19053077697753906,-0.5390968322753906,-0.04171258211135864
1761131470797800700,1.11580078125,0.4625082015991211,-1.0673282146453857,0.07315021753311157
1761131470807800600,1.125800537109375,0.137603759765625,-0.9320235252380371,0.1196797788143158
1761131470817800700,1.13580078125,-0.07466411590576172,-0.5526361465454102,0.1039460301399231
1761131470827800600,1.145800537109375,-0.49711036682128906,-0.19684147834777832,0.037643224000930786
1761131470837800700,1.15580078125,-0.6891746520996094,-0.668626070022583,0.28347623348236084
1761131470847800600,1.165800537109375,-1.0703277587890625,-0.979426383972168,0.5944962501525879
1761131470857800700,1.17580078125,-0.9637842178344727,-0.7922619581222534,0.5650606751441956
1761131470867799800,1.1857998046875,-0.8599939346313477,-0.6474249362945557,0.5176783204078674
1761131470877800000,1.195800048828125,-0.8037443161010742,-0.34960174560546875,0.37958428263664246
1761131470887799800,1.2057998046875,-0.717982292175293,-0.25097012519836426,0.3119998574256897
1761131470897799700,1.215799560546875,-0.7052478790283203,-0.15236735343933105,0.2660461366176605
1761131470907799800,1.2257998046875,-0.7866191864013672,-0.06735038757324219,0.413413941860199
1761131470917799700,1.235799560546875,-0.9856643676757812,-0.10937690734863281,0.4489498734474182
1761131470927799800,1.2457998046875,-1.2761945724487305,-0.016718626022338867,0.44316816329956055
1761131470937799700,1.255799560546875,-1.4267048835754395,0.24941325187683105,0.32856133580207825
1761131470947799800,1.2657998046875,-1.608006477355957,0.5223629474639893,0.22877204418182373
1761131470957800000,1.275800048828125,-1.59820556640625,0.4888443946838379,0.18662264943122864
1761131470967800800,1.28580078125,-1.6254315376281738,0.6012110710144043,0.42599499225616455
1761131470977800700,1.29580078125,-1.328963279724121,0.37339138984680176,0.6635019779205322
1761131470987800800,1.30580078125,-1.1022043228149414,0.2624320983886719,0.8894802927970886
1761131470997801200,1.31580126953125,-0.9331455230712891,0.3278515338897705,0.9245350360870361
1761131471007801300,1.32580126953125,-0.8002662658691406,0.5287158489227295,0.7644708156585693
1761131471017801200,1.33580126953125,-0.6966552734375,0.6117815971374512,0.6712692379951477
1761131471027801300,1.34580126953125,-0.6267423629760742,0.7104501724243164,0.4156365990638733
1761131471037801200,1.35580126953125,0.1394023895263672,0.7300875186920166,0.4083813428878784
1761131471047801300,1.36580126953125,-0.767552375793457,0.8839426040649414,0.4471737742424011
1761131471057801200,1.37580126953125,-0.5429105758666992,1.568554162979126,1.2915599346160889
1761131471067800300,1.38580029296875,-0.7806110382080078,1.3206865787506104,0.12975230813026428
1761131471077800400,1.395800537109375,-0.7954120635986328,1.3717482089996338,0.1480265110731125
1761131471087800300,1.40580029296875,-0.2953042984008789,1.301264762878418,1.2513427734375
1761131471097800400,1.415800537109375,0.20376968383789062,1.2055854797363281,1.13515305519104
1761131471107800000,1.425800048828125,-0.07520484924316406,1.408491611480713,1.5068641901016235
1761131471117800000,1.435800048828125,0.5159702301025391,1.7333848476409912,1.652250051498413
1761131471127800000,1.445800048828125,1.1355047225952148,1.7802674770355225,1.6611303091049194
1761131471137800000,1.455800048828125,1.5188522338867188,1.7740066051483154,1.8221056461334229
1761131471147800000,1.465800048828125,1.6743640899658203,1.714702844619751,1.8204731941223145
1761131471157800000,1.475800048828125,1.6067304611206055,1.4331164360046387,1.5637527704238892
1761131471167800800,1.48580078125,1.4787588119506836,1.372873067855835,1.4806989431381226
1761131471177801000,1.495801025390625,0.9931678771972656,1.1627297401428223,1.1699155569076538
1761131471197801000,1.515801025390625,0.6518707275390625,0.8522129058837891,1.0824848413467407
1761131471207800800,1.52580078125,0.4775981903076172,0.694354772567749,0.9433236122131348
1761131471221229000,1.53922900390625,0.5250635147094727,0.6251537799835205,0.6043593287467957
1761131471231229000,1.54922900390625,0.5058860778808594,0.5474636554718018,0.23196670413017273
1761131471241229000,1.55922900390625,0.39612579345703125,0.4994637966156006,-0.17536890506744385
1761131471251229000,1.56922900390625,0.08374977111816406,0.5107855796813965,-0.5128101706504822
1761131471261229000,1.57922900390625,-0.3491373062133789,0.6258676052093506,-0.6523524522781372
1761131471271228200,1.589228271484375,-0.5251102447509766,0.6926276683807373,-0.7237535119056702
1761131471281228300,1.599228271484375,-0.5783634185791016,0.6757733821868896,-1.1241081953048706
1761131471291228200,1.609228271484375,-0.5966081619262695,1.001131534576416,-1.2474123239517212
1761131471301227800,1.619227783203125,-0.44538402557373047,1.4174411296844482,-1.1802582740783691
1761131471311227600,1.6292275390625,-0.4394817352294922,1.40921950340271,-1.1337753534317017
1761131471321227800,1.639227783203125,0.3405752182006836,1.1910436153411865,0.21370479464530945
1761131471331227600,1.6492275390625,1.0393285751342773,0.5803413391113281,1.064822793006897
1761131471341227800,1.659227783203125,1.825678825378418,0.22547674179077148,1.403871774673462
1761131471351227600,1.6692275390625,2.5178041458129883,0.045237064361572266,1.2203224897384644
1761131471361227800,1.679227783203125,2.92708683013916,-0.235398530960083,0.9150259494781494
1761131471371228400,1.689228515625,2.8430185317993164,-0.7416172027587891,0.7263497114181519
1761131471381228500,1.699228515625,2.63576602935791,-1.0540285110473633,0.4806545376777649
1761131471391228400,1.709228515625,2.3889970779418945,-1.1112545728683472,0.21623486280441284
1761131471401228500,1.719228515625,2.397824287414551,-1.1235839128494263,0.2953926920890808
1761131471411229000,1.72922900390625,1.7807807922363281,-0.4916837215423584,-0.5405875444412231
1761131471421229000,1.73922900390625,1.599034309387207,-0.1645510196685791,-0.8417081236839294
1761131471431229000,1.74922900390625,1.3948431015014648,-0.08084249496459961,-0.8434406518936157
1761131471441229000,1.75922900390625,1.260706901550293,-0.25501227378845215,-0.5593196153640747
1761131471451229000,1.76922900390625,1.090744972229004,-0.5524373054504395,-0.11669492721557617
1761131471461229000,1.77922900390625,0.9286890029907227,-0.8204545974731445,0.3562259078025818
1761131471471228200,1.789228271484375,0.7889080047607422,-1.0230391025543213,0.782687783241272
1761131471481228000,1.79922802734375,0.6206254959106445,-1.0990643501281738,1.2339364290237427
1761131471491228200,1.809228271484375,0.3994283676147461,-1.1311216354370117,1.647634744644165
1761131471501228000,1.81922802734375,0.21671199798583984,-1.1079165935516357,1.8323493003845215
1761131471511228200,1.829228271484375,0.13475418090820312,-1.085331916809082,1.8123929500579834
1761131471521228000,1.83922802734375,0.01676177978515625,-1.0759086608886719,1.6784523725509644
1761131471531228200,1.849228271484375,-0.12791061401367188,-1.140195369720459,1.5095405578613281
1761131471541228000,1.85922802734375,-0.2940177917480469,-1.198061227798462,1.3767234086990356
1761131471551228200,1.869228271484375,-0.6314573287963867,-1.3036415576934814,1.2615878582000732
1761131471561228000,1.87922802734375,-0.6114616394042969,-1.3550143241882324,1.2467023134231567
1761131471571229000,1.88922900390625,-1.7210087776184082,-1.525669813156128,1.3363497257232666
1761131471581229000,1.89922900390625,-2.3651552200317383,-1.5853877067565918,1.2134108543395996
1761131471591229000,1.90922900390625,-2.3296642303466797,-1.6600818634033203,1.2389112710952759
1761131471601229000,1.91922900390625,-3.224635601043701,-1.3259923458099365,0.5975559949874878
1761131471611229000,1.92922900390625,-3.3049893379211426,-1.215369701385498,0.21749144792556763
1761131471621229000,1.93922900390625,-3.2819061279296875,-1.1453180313110352,-0.051930129528045654
1761131471631229000,1.94922900390625,-3.2382259368896484,-1.193824291229248,-0.14952337741851807
1761131471641229000,1.95922900390625,-3.1243066787719727,-1.226635456085205,-0.05830788612365723
1761131471651229000,1.96922900390625,-3.028634548187256,-1.2224900722503662,0.034014344215393066
1761131471661229000,1.97922900390625,-2.7881593704223633,-1.1312472820281982,0.06058317422866821
1761131471671228200,1.989228271484375,-2.481456756591797,-1.012793779373169,0.03017371892929077
1761131471681228000,1.99922802734375,-2.1556811332702637,-0.9348077774047852,-0.02479386329650879
1761131471691228200,2.009228271484375,-1.831535816192627,-0.901031494140625,-0.07653838396072388
1761131471701228000,2.01922802734375,-1.8429970741271973,-0.8800091743469238,-0.08770900964736938
1761131471711228200,2.029228271484375,-1.1952810287475586,-0.8020787239074707,-0.031047403812408447
1761131471721228000,2.03922802734375,-0.8524627685546875,-0.7695631980895996,-0.14201724529266357
1761131471731228200,2.049228271484375,-0.5240373611450195,-0.7271170616149902,-0.25034821033477783
1761131471741228000,2.05922802734375,-0.24695587158203125,-0.6778440475463867,-0.31634974479675293
1761131471751228200,2.069228271484375,-0.05692481994628906,-0.6183114051818848,-0.3582434058189392
1761131471761228000,2.07922802734375,-0.0664358139038086,-0.6019792556762695,-0.37673062086105347
1761131471771229000,2.08922900390625,0.2507057189941406,-0.459972620010376,-0.13670337200164795
1761131471781228800,2.099228759765625,0.41063594818115234,-0.4017140865325928,0.044277727603912354
1761131471791229000,2.10922900390625,0.518345832824707,-0.3728930950164795,0.1367628574371338
1761131471801228800,2.119228759765625,0.5953216552734375,-0.34655261039733887,0.33009323477745056
1761131471811229000,2.12922900390625,0.6269741058349609,-0.3701298236846924,0.430404931306839
1761131471821228800,2.139228759765625,0.7514181137084961,-0.35851025581359863,0.4170100688934326
1761131471831229000,2.14922900390625,0.934051513671875,-0.3263990879058838,0.2952466607093811
1761131471841228800,2.159228759765625,1.2840566635131836,-0.32235169410705566,0.10316216945648193
1761131471851229000,2.16922900390625,1.5786638259887695,-0.37978482246398926,-0.07735991477966309
1761131471861228800,2.179228759765625,1.5621519088745117,-0.3486747741699219,-0.11491966247558594
1761131471871228000,2.189227783203125,1.9680862426757812,-0.30716514587402344,-0.35929936170578003
1761131471881228000,2.19922802734375,1.886098861694336,-0.19142508506774902,-0.2205442190170288
1761131471891228000,2.209227783203125,1.6967477798461914,-0.12796974182128906,0.13641029596328735
1761131471901228000,2.21922802734375,1.6861572265625,-0.1051328182220459,0.12174305319786072
1761131471911228000,2.229227783203125,1.4227285385131836,0.29407691955566406,0.4307066798210144
1761131471921228000,2.23922802734375,1.264164924621582,0.48722004890441895,0.39794474840164185
1761131471931228000,2.249227783203125,1.1166181564331055,0.5970003604888916,0.44295814633369446
1761131471941228000,2.25922802734375,0.9820899963378906,0.5716984272003174,0.5387636423110962
1761131471951228200,2.269228271484375,0.8908748626708984,0.4877936840057373,0.7436742782592773
1761131471961228000,2.27922802734375,0.9154767990112305,0.3881034851074219,0.9473162293434143
1761131471971229000,2.28922900390625,1.0550622940063477,0.3324751853942871,1.0153326988220215
1761131471981229000,2.29922900390625,1.258453369140625,0.2801222801208496,1.0282727479934692
1761131471991229000,2.30922900390625,1.4755544662475586,0.2286229133605957,0.9369084239006042
1761131472001229000,2.31922900390625,1.7219781875610352,0.18979644775390625,0.9295176863670349
1761131472011229000,2.32922900390625,1.8198699951171875,0.1381828784942627,1.00810706615448
1761131472021229000,2.33922900390625,1.8066797256469727,0.17030668258666992,0.9708647131919861
1761131472031229000,2.34922900390625,1.598052978515625,-0.02769017219543457,1.2620749473571777
1761131472041228800,2.359228759765625,1.413315773010254,-0.0936288833618164,1.3907806873321533
1761131472051229000,2.36922900390625,1.1718435287475586,0.022960662841796875,1.4019196033477783
1761131472061228800,2.379228759765625,0.9406919479370117,0.11376166343688965,1.397712230682373
1761131472071228000,2.389227783203125,0.6616067886352539,0.12820935249328613,1.4453450441360474
1761131472081228000,2.39922802734375,0.3838357925415039,0.01389932632446289,1.6466079950332642
1761131472091228000,2.409227783203125,0.1203298568725586,-0.1968398094177246,1.797174096107483
1761131472101228000,2.41922802734375,-0.04205894470214844,-0.3775193691253662,1.8856215476989746
1761131472111228200,2.429228271484375,-0.22498512268066406,-0.49227309226989746,1.7962825298309326
1761131472121228000,2.43922802734375,-0.37029170989990234,-0.5825464725494385,1.515255093574524
1761131472131228200,2.449228271484375,-0.4622220993041992,-0.64849853515625,1.1393402814865112
1761131472141228000,2.45922802734375,-0.5559501647949219,-0.6972522735595703,0.8325778841972351
1761131472151228200,2.469228271484375,-0.7182846069335938,-0.7007415294647217,0.5577042102813721
1761131472161228000,2.47922802734375,-0.8764858245849609,-0.7018008232116699,0.4019744098186493
1761131472171229000,2.48922900390625,-1.0195903778076172,-0.6508562564849854,0.3153577446937561
1761131472181228800,2.499228759765625,-1.230520248413086,-0.5234646797180176,0.29084619879722595
1761131472191229000,2.50922900390625,-1.4532194137573242,-0.3386092185974121,0.2813914716243744
1761131472201228800,2.519228759765625,-1.679670810699463,-0.14625310897827148,0.3628145754337311
1761131472211229000,2.52922900390625,-1.8544845581054688,0.035947322845458984,0.48763811588287354
1761131472221228800,2.539228759765625,-1.9710321426391602,0.11341738700866699,0.621493935585022
1761131472231229000,2.54922900390625,-2.0443496704101562,0.16417241096496582,0.7339772582054138
1761131472241228800,2.559228759765625,-2.046010971069336,0.16956830024719238,0.7540510892868042
1761131472251229000,2.56922900390625,-2.0479745864868164,0.3382284641265869,0.9632208347320557
1761131472261228800,2.579228759765625,-2.050281524658203,0.38539814949035645,0.9774488210678101
1761131472281228000,2.59922802734375,-2.024813175201416,0.3242480754852295,0.9493170976638794
1761131472291228000,2.609227783203125,-2.028319835662842,0.33406877517700195,0.9645335674285889
1761131472301228000,2.61922802734375,-1.7668991088867188,0.3820784091949463,0.6870110034942627
1761131472311228000,2.629227783203125,-1.6239638328552246,0.37787342071533203,0.5591733455657959
1761131472321228000,2.63922802734375,-1.5086431503295898,0.3909597396850586,0.5645997524261475
1761131472331228200,2.649228271484375,-1.341620922088623,0.3894808292388916,0.6507040858268738
1761131472341228000,2.65922802734375,-1.350358486175537,0.4119539260864258,0.6584583520889282
1761131472351228200,2.669228271484375,-1.0487585067749023,0.4631948471069336,0.6493580937385559
1761131472361228000,2.67922802734375,-0.8653955459594727,0.45263075828552246,0.4679965078830719
1761131472371229000,2.68922900390625,-0.7591485977172852,0.4466981887817383,0.1677544116973877
1761131472381228800,2.699228759765625,-0.6647224426269531,0.4225754737854004,-0.09852525591850281
1761131472391229000,2.70922900390625,-0.49529170989990234,0.4554321765899658,-0.4048149585723877
1761131472401228800,2.719228759765625,-0.5041255950927734,0.4840869903564453,-0.36678749322891235
1761131472411229000,2.72922900390625,0.031914710998535156,0.656113862991333,-0.9684283137321472
1761131472421228800,2.739228759765625,0.026503562927246094,0.6760859489440918,-0.9355853199958801
1761131472431229400,2.7492294921875,0.5594053268432617,0.873835563659668,-0.8995864391326904
1761131472441229600,2.7592294921875,0.7761707305908203,0.836761474609375,-0.7179486751556396
1761131472451229400,2.7692294921875,0.9614019393920898,0.7839450836181641,-0.6321609020233154
1761131472461229600,2.7792294921875,1.2027835845947266,0.7252237796783447,-0.6239327788352966
1761131472471228700,2.789228759765625,1.495600700378418,0.6968896389007568,-0.7333203554153442
1761131472481228800,2.799228759765625,1.674652099609375,0.6228365898132324,-0.9028867483139038
1761131472491228700,2.809228759765625,1.6065187454223633,0.5978062152862549,-0.9568844437599182
1761131472501228800,2.819228759765625,1.3980627059936523,0.5907902717590332,-0.7512509226799011
1761131472511228700,2.829228759765625,1.1961383819580078,0.6342086791992188,-0.34562647342681885
1761131472521228800,2.839228759765625,1.1238842010498047,0.8262779712677002,-0.01847440004348755
1761131472531228700,2.849228759765625,1.2402524948120117,1.239555835723877,0.10394585132598877
1761131472541228800,2.859228759765625,1.5297679901123047,1.5141494274139404,0.02134925127029419
1761131472551228700,2.869228759765625,2.0282115936279297,1.439511775970459,0.0725557804107666
1761131472561228800,2.879228759765625,2.5936965942382812,1.0633156299591064,0.17740172147750854
1761131472571229700,2.889229736328125,3.061295509338379,0.47858452796936035,0.38484543561935425
1761131472581229600,2.8992294921875,3.3796682357788086,-0.18349409103393555,0.449809193611145
1761131472591229700,2.909229736328125,3.5726661682128906,-0.7037174701690674,0.24609720706939697
1761131472601229600,2.9192294921875,3.4371118545532227,-0.9883561134338379,-0.07746672630310059
1761131472611229700,2.929229736328125,3.1873559951782227,-1.156581163406372,-0.26303619146347046
1761131472621229600,2.9392294921875,3.179347038269043,-1.1301751136779785,-0.24230188131332397
1761131472631228700,2.949228759765625,2.524847984313965,-0.9723656177520752,-0.6262825131416321
1761131472641228800,2.959228759765625,2.2629194259643555,-0.6469326019287109,-0.8078383803367615
1761131472651228700,2.969228759765625,1.913125991821289,-0.37405824661254883,-0.9042844772338867
1761131472661228800,2.979228759765625,1.5149459838867188,-0.2625415325164795,-0.7433813810348511
1761131472671228000,2.989227783203125,1.097055435180664,-0.36922788619995117,-0.3678865432739258
1761131472681227800,2.999227783203125,0.6697397232055664,-0.5622014999389648,-0.017937779426574707
1761131472691228000,3.009227783203125,0.32988548278808594,-0.7944948673248291,0.17636489868164062
1761131472701227800,3.019227783203125,0.031229019165039062,-0.9693615436553955,0.2733720541000366
1761131472711228000,3.029227783203125,-0.2697029113769531,-1.10996675491333,0.2754548192024231
1761131472721227800,3.039227783203125,-0.47315311431884766,-1.1246771812438965,0.304499089717865
1761131472731227100,3.04922705078125,-0.7236499786376953,-1.186030387878418,0.218206524848938
1761131472741227300,3.059227294921875,-0.9083318710327148,-1.239959955215454,0.041718900203704834
1761131472751227100,3.06922705078125,-1.0169439315795898,-1.2357432842254639,-0.11573946475982666
1761131472761227300,3.079227294921875,-1.193140983581543,-1.1940524578094482,-0.26053154468536377
1761131472771228200,3.089228271484375,-1.4857606887817383,-1.2243423461914062,-0.37530040740966797
1761131472781228000,3.09922802734375,-1.728532314300537,-1.2549958229064941,-0.4135626554489136
1761131472791228200,3.109228271484375,-1.9591050148010254,-1.2757432460784912,-0.4487292766571045
1761131472801228000,3.11922802734375,-2.1856179237365723,-1.2112219333648682,-0.5566065311431885
1761131472811228200,3.129228271484375,-2.3136610984802246,-1.1411528587341309,-0.6579283475875854
1761131472821228000,3.13922802734375,-2.3925466537475586,-1.042337417602539,-0.7522956132888794
1761131472831228200,3.149228271484375,-2.4956655502319336,-1.0682973861694336,-0.7737876176834106
1761131472841228000,3.15922802734375,-2.495055675506592,-1.178499698638916,-0.680699348449707
1761131472851228200,3.169228271484375,-2.37678861618042,-1.2420711517333984,-0.6669065952301025
1761131472861228000,3.17922802734375,-2.0839290618896484,-1.2500977516174316,-0.7089388370513916
1761131472881227300,3.199227294921875,-1.4361295700073242,-1.2480545043945312,-0.7221300601959229
1761131472891227100,3.20922705078125,-1.4506540298461914,-1.226952075958252,-0.7597978115081787
1761131472901227300,3.219227294921875,-0.8977947235107422,-1.249596357345581,-0.790695309638977
1761131472911227100,3.22922705078125,-0.6911344528198242,-1.1004533767700195,-0.8653045892715454
1761131472921227300,3.239227294921875,-0.6002607345581055,-0.8583648204803467,-0.8769785165786743
1761131472931228200,3.249228271484375,-0.5933446884155273,-0.6425127983093262,-0.8457943201065063
1761131472941228000,3.25922802734375,-0.48267459869384766,-0.4523601531982422,-0.7535210847854614
1761131472951228200,3.269228271484375,-0.4120302200317383,-0.26888108253479004,-0.7308638691902161
1761131472961228000,3.27922802734375,-0.32468509674072266,-0.12981939315795898,-0.7706274390220642
1761131472971229000,3.28922900390625,-0.2469797134399414,-0.08061647415161133,-0.7727700471878052
1761131472981228800,3.299228759765625,-0.2435007095336914,-0.0561676025390625,-0.6706802845001221
1761131472991229000,3.30922900390625,-0.20630931854248047,-0.03968667984008789,-0.6089430451393127
1761131473001228800,3.319228759765625,-0.23152732849121094,0.06100797653198242,-0.492644727230072
1761131473011229000,3.32922900390625,-0.2813682556152344,0.12998390197753906,-0.3520350456237793
1761131473021228800,3.339228759765625,-0.2918224334716797,0.20248174667358398,-0.20435649156570435
1761131473031229000,3.34922900390625,-0.23773956298828125,0.25981569290161133,-0.02535611391067505
1761131473041228800,3.359228759765625,-0.1467733383178711,0.22801971435546875,0.12048360705375671
1761131473051229000,3.36922900390625,-0.1396474838256836,0.2095050811767578,0.09376725554466248
1761131473061228800,3.379228759765625,0.08228111267089844,-0.20180654525756836,0.20645880699157715
1761131473071228200,3.389228271484375,0.21469783782958984,-0.36170434951782227,0.1643848717212677
1761131473081228000,3.39922802734375,0.43952178955078125,-0.43087077140808105,0.05325329303741455
1761131473091228200,3.409228271484375,0.43311119079589844,-0.4206368923187256,0.023415207862854004
1761131473101228000,3.41922802734375,0.9421224594116211,-0.37099552154541016,-0.30055075883865356
1761131473111228200,3.429228271484375,1.2601661682128906,-0.3148212432861328,-0.45279696583747864
1761131473121228000,3.43922802734375,1.4534854888916016,-0.33583664894104004,-0.4595502018928528
1761131473131228200,3.449228271484375,1.6308784484863281,-0.37851691246032715,-0.2934738099575043
1761131473141228000,3.45922802734375,1.609421730041504,-0.3335087299346924,-0.3261879086494446
1761131473151228000,3.469227783203125,2.024167060852051,-0.17857861518859863,0.13992643356323242
1761131473161228000,3.47922802734375,2.0379743576049805,-0.1096646785736084,0.37145519256591797
1761131473171229000,3.48922900390625,1.9223356246948242,-0.1000669002532959,0.634721577167511
1761131473181228800,3.499228759765625,1.907404899597168,-0.06670737266540527,0.596238911151886
1761131473191229000,3.50922900390625,1.5980520248413086,0.057482004165649414,0.970821738243103
1761131473201228800,3.519228759765625,1.5250301361083984,0.10879755020141602,1.0156519412994385
1761131473211229000,3.52922900390625,1.572648048400879,0.13435578346252441,0.989300012588501
1761131473221228800,3.539228759765625,1.6110506057739258,0.10674357414245605,0.9519094824790955
1761131473231229000,3.54922900390625,1.4587974548339844,0.0008521080017089844,1.0616393089294434
1761131473241228800,3.559228759765625,1.2938480377197266,-0.1206507682800293,1.199506402015686
1761131473251229000,3.56922900390625,1.0786218643188477,-0.11858344078063965,1.3456895351409912
1761131473261228800,3.579228759765625,0.8806915283203125,-0.0735633373260498,1.4213613271713257
1761131473271228000,3.589227783203125,0.7549257278442383,0.03152346611022949,1.3995156288146973
1761131473281228000,3.59922802734375,0.6146526336669922,0.056726932525634766,1.335706353187561
1761131473291228000,3.609227783203125,0.3397560119628906,-0.037494659423828125,1.3696333169937134
1761131473301228000,3.61922802734375,0.34656810760498047,-0.05408287048339844,1.3753952980041504
1761131473311228000,3.629227783203125,-0.14108562469482422,-0.32945752143859863,1.4000681638717651
1761131473321228000,3.63922802734375,-0.3004579544067383,-0.39705538749694824,1.3089548349380493
1761131473331228000,3.649227783203125,-0.35531044006347656,-0.41941285133361816,1.2416713237762451
1761131473341228000,3.65922802734375,-0.4356508255004883,-0.4355590343475342,1.1733014583587646
1761131473351228000,3.669227783203125,-0.4826507568359375,-0.459820032119751,1.1924378871917725
1761131473361228000,3.67922802734375,-0.5245494842529297,-0.4838688373565674,1.213346004486084
1761131473371229000,3.68922900390625,-0.5615787506103516,-0.5024251937866211,1.1062647104263306
1761131473381228800,3.699228759765625,-0.6460399627685547,-0.5596287250518799,1.0175631046295166
1761131473391229000,3.70922900390625,-0.8346843719482422,-0.6261544227600098,0.9055166840553284
1761131473401228800,3.719228759765625,-1.0432190895080566,-0.6050996780395508,0.7518796920776367
1761131473411229000,3.72922900390625,-1.2571454048156738,-0.5302236080169678,0.46240517497062683
1761131473421228800,3.739228759765625,-1.397233486175537,-0.4568593502044678,0.16611118614673615
1761131473431229000,3.74922900390625,-1.4944090843200684,-0.37312841415405273,-0.09723448753356934
1761131473441228800,3.759228759765625,-1.5867609977722168,-0.38460803031921387,-0.2540382444858551
1761131473451229000,3.76922900390625,-1.6574583053588867,-0.3645462989807129,-0.3192252516746521
1761131473461229000,3.77922900390625,-1.6488819122314453,-0.30395960807800293,-0.3357445001602173
1761131473471228200,3.789228271484375,-1.6090960502624512,-0.25781869888305664,-0.2540411949157715
1761131473481228000,3.79922802734375,-1.5432171821594238,-0.19689226150512695,-0.11865727603435516
1761131473491228200,3.809228271484375,-1.4994783401489258,-0.14199590682983398,0.08821399509906769
1761131473501228000,3.81922802734375,-1.5067825317382812,-0.12379240989685059,0.09087562561035156
1761131473511228200,3.829228271484375,-1.3760261535644531,-0.09166097640991211,0.41125041246414185
1761131473521228000,3.83922802734375,-1.2269949913024902,0.00031280517578125,0.5121833682060242
1761131473531228200,3.849228271484375,-1.1054401397705078,0.07152199745178223,0.5005702972412109
1761131473541228000,3.85922802734375,-0.9323225021362305,0.08131837844848633,0.5018682479858398
1761131473551228200,3.869228271484375,-0.7360057830810547,0.11514925956726074,0.48912352323532104
1761131473561228000,3.87922802734375,-0.616398811340332,0.08520817756652832,0.48537367582321167
1761131473571229000,3.88922900390625,-0.5035018920898438,0.09763813018798828,0.48813802003860474
1761131473581229000,3.89922900390625,-0.3530139923095703,0.1370546817779541,0.4706104099750519
1761131473591229000,3.90922900390625,-0.3616800308227539,0.1612074375152588,0.48355311155319214
1761131473601229000,3.91922900390625,-0.09859275817871094,0.20134305953979492,0.3199964165687561
1761131473611229000,3.92922900390625,0.0053195953369140625,0.19286608695983887,0.14750812947750092
1761131473621229000,3.93922900390625,0.05048942565917969,0.2127225399017334,-0.0452752411365509
1761131473631229000,3.94922900390625,0.02977752685546875,0.1963179111480713,-0.2109389305114746
1761131473641229000,3.95922900390625,0.06307697296142578,0.23452496528625488,-0.3479077219963074
1761131473651229000,3.96922900390625,0.028374671936035156,0.28418850898742676,-0.4748053252696991
1761131473661229000,3.97922900390625,0.00975799560546875,0.34447383880615234,-0.5120640397071838
1761131473671228200,3.989228271484375,0.02409648895263672,0.4172337055206299,-0.5801509618759155
1761131473681228000,3.99922802734375,0.09267711639404297,0.5336554050445557,-0.6699090003967285
1761131473691228200,4.009228271484375,0.21738433837890625,0.6535351276397705,-0.6719476580619812
1761131473701228000,4.01922802734375,0.34717464447021484,0.6392109394073486,-0.49023938179016113
1761131473711228200,4.029228271484375,0.4551248550415039,0.4752333164215088,-0.1950027346611023
1761131473721228000,4.03922802734375,0.6702260971069336,0.3421618938446045,0.03319579362869263
1761131473731228200,4.049228271484375,0.9274444580078125,0.31821727752685547,0.11122146248817444
1761131473741228000,4.05922802734375,1.0590782165527344,0.4066638946533203,0.03519171476364136
1761131473751228200,4.069228271484375,0.9988069534301758,0.48201751708984375,-0.05209606885910034
1761131473761228000,4.07922802734375,0.8913364410400391,0.511716365814209,-0.10869404673576355
1761131473771229000,4.08922900390625,0.9456195831298828,0.633925199508667,-0.2646010220050812
1761131473781229000,4.09922900390625,0.9907131195068359,0.7669408321380615,-0.5218669772148132
1761131473791229000,4.10922900390625,1.075282096862793,0.7841463088989258,-0.6684499979019165
1761131473801229000,4.11922900390625,1.148331642150879,0.6983213424682617,-0.6733324527740479
1761131473811229000,4.12922900390625,1.1663618087768555,0.5603225231170654,-0.6588343977928162
1761131473821229000,4.13922900390625,1.2981023788452148,0.4023091793060303,-0.5713486075401306
1761131473831229000,4.14922900390625,1.5996904373168945,0.22720599174499512,-0.5345896482467651
1761131473841229000,4.15922900390625,2.086796760559082,0.048612356185913086,-0.6001213788986206
1761131473851229000,4.16922900390625,2.5813207626342773,-0.12758898735046387,-0.7279125452041626
1761131473861229000,4.17922900390625,2.8066911697387695,-0.4547758102416992,-0.6523401737213135
1761131473871228200,4.189228271484375,2.687075614929199,-0.8935427665710449,-0.5419435501098633
1761131473881228000,4.19922802734375,2.1545019149780273,-1.2271838188171387,-0.3472580313682556
1761131473891228200,4.209228271484375,1.595489501953125,-1.3082445859909058,-0.27955034375190735
1761131473901228000,4.21922802734375,1.07427978515625,-1.1056840419769287,-0.4545692503452301
1761131473911228200,4.229228271484375,0.5599050521850586,-0.6584897041320801,-0.8099730610847473
1761131473921228000,4.23922802734375,0.1178598403930664,-0.21727991104125977,-1.150805950164795
1761131473931228200,4.249228271484375,-0.2518758773803711,0.11685848236083984,-1.33529531955719
1761131473941228000,4.25922802734375,-0.5953702926635742,0.16222786903381348,-1.2558753490447998
1761131473951228200,4.269228271484375,-0.8684253692626953,-0.0022573471069335938,-1.0563514232635498
1761131473961228000,4.27922802734375,-0.8486118316650391,-0.05734705924987793,-1.0655138492584229
1761131473971229000,4.28922900390625,-0.9544668197631836,-0.5791747570037842,-0.3421587347984314
1761131473981229000,4.29922900390625,-0.6295757293701172,-0.8154335021972656,-0.14292830228805542
1761131473991229200,4.309229248046875,-0.22613143920898438,-0.9646012783050537,-0.06467735767364502
1761131474001229000,4.31922900390625,0.21822547912597656,-1.0881588459014893,0.06138235330581665
1761131474011229000,4.32922900390625,0.6120462417602539,-1.2604649066925049,0.2399192452430725
1761131474021229000,4.33922900390625,0.7780208587646484,-1.3617501258850098,0.43516719341278076
1761131474031229000,4.34922900390625,0.7016620635986328,-1.4936494827270508,0.6412888765335083
1761131474041229000,4.35922900390625,0.5338602066040039,-1.5267730951309204,0.714081346988678
1761131474051229000,4.36922900390625,0.2735939025878906,-1.4140615463256836,0.6124436259269714
1761131474061229000,4.37922900390625,-0.1086435317993164,-1.1838996410369873,0.27322328090667725
1761131474071228200,4.389228271484375,-0.5282831192016602,-1.0015606880187988,-0.11648586392402649
1761131474081228300,4.399228271484375,-0.9971427917480469,-0.9251594543457031,-0.3784289062023163
1761131474091228200,4.409228271484375,-0.9844799041748047,-0.9552955627441406,-0.3356601297855377
1761131474101228300,4.419228271484375,-2.0049381256103516,-0.8560459613800049,-0.78171306848526
1761131474111228200,4.429228271484375,-2.3772106170654297,-0.8191499710083008,-0.871679425239563
1761131474121228300,4.439228271484375,-2.6254353523254395,-0.7551941871643066,-0.950617253780365
1761131474131228200,4.449228271484375,-2.699191093444824,-0.6249539852142334,-0.9814273715019226
1761131474141228300,4.459228271484375,-2.6361751556396484,-0.48407435417175293,-0.9833922386169434
1761131474151228200,4.469228271484375,-2.4732837677001953,-0.3422560691833496,-0.8651869893074036
1761131474161228300,4.479228271484375,-2.193861961364746,-0.2326524257659912,-0.6371722221374512
1761131474171229000,4.48922900390625,-1.8643074035644531,-0.18749117851257324,-0.3959764838218689
1761131474181229000,4.49922900390625,-1.483804702758789,-0.09105515480041504,-0.24425753951072693
1761131474191229000,4.50922900390625,-1.0561017990112305,0.04237675666809082,-0.1663302779197693
1761131474201229000,4.51922900390625,-0.6565036773681641,0.1282503604888916,-0.18841847777366638
1761131474211229000,4.52922900390625,-0.26711082458496094,0.16841506958007812,-0.24983716011047363
1761131474221229000,4.53922900390625,0.12044811248779297,0.17896509170532227,-0.3505549132823944
1761131474231229200,4.549229248046875,0.3897552490234375,0.1670856475830078,-0.48016536235809326
1761131474241229000,4.55922900390625,0.5083131790161133,0.187608003616333,-0.4977051019668579
1761131474251229200,4.569229248046875,0.5822973251342773,0.14729833602905273,-0.5077735185623169
1761131474261229000,4.57922900390625,0.6002283096313477,0.2650637626647949,-0.5771394968032837
1761131474271228400,4.589228515625,0.6025714874267578,0.4145066738128662,-0.7624089121818542
1761131474281228300,4.599228271484375,0.5364618301391602,0.5747754573822021,-0.8793504238128662
1761131474291228200,4.609228271484375,0.35737037658691406,0.6399719715118408,-0.7916910648345947
1761131474301228300,4.619228271484375,0.1543426513671875,0.6008396148681641,-0.5115644931793213
1761131474311228200,4.629228271484375,0.010256767272949219,0.5145142078399658,-0.1473883092403412
1761131474321228300,4.639228271484375,0.07862663269042969,0.45288753509521484,0.0969294011592865
1761131474331228200,4.649228271484375,0.47133636474609375,0.45400428771972656,0.014901548624038696
1761131474341228300,4.659228271484375,1.0822429656982422,0.3463900089263916,-0.27971190214157104
1761131474351228200,4.669228271484375,1.6637468338012695,0.02868056297302246,-0.4285237491130829
1761131474361228300,4.679228271484375,2.1290969848632812,-0.3987405300140381,-0.42294883728027344
1761131474371229200,4.689229248046875,2.4426536560058594,-0.714026689529419,-0.2843494415283203
1761131474381229000,4.69922900390625,2.6024036407470703,-0.8697597980499268,-0.031645797193050385
1761131474391229200,4.709229248046875,2.5862808227539062,-0.8244521617889404,-0.06592464447021484
1761131474401229000,4.71922900390625,2.5750551223754883,-0.3910512924194336,0.30630600452423096
1761131474411229200,4.729229248046875,2.3090896606445312,-0.03332948684692383,0.32336533069610596
1761131474421229000,4.73922900390625,1.967416763305664,0.21488666534423828,0.3426762521266937
1761131474431229200,4.749229248046875,1.5554208755493164,0.3043406009674072,0.45519042015075684
1761131474441229000,4.75922900390625,1.1491117477416992,0.18906044960021973,0.5600590109825134
1761131474451229200,4.769229248046875,0.7804231643676758,0.0937049388885498,0.5495051741600037
1761131474461229000,4.77922900390625,0.5069980621337891,-0.00937509536743164,0.5004832148551941
1761131474471228200,4.789228271484375,0.42228031158447266,-0.12589430809020996,0.5377371311187744
1761131474481228300,4.799228271484375,0.41896629333496094,-0.30036449432373047,0.5850141644477844
1761131474491228200,4.809228271484375,0.4860973358154297,-0.4424099922180176,0.6147353053092957
1761131474501228300,4.819228271484375,0.5800333023071289,-0.6223540306091309,0.7104222178459167
1761131474511228200,4.829228271484375,0.6811914443969727,-0.7247908115386963,0.8252593874931335
1761131474521228300,4.839228271484375,0.6781721115112305,-0.7164809703826904,0.8176042437553406
1761131474531228200,4.849228271484375,0.7260208129882812,-0.5425477027893066,0.8504470586776733
1761131474541228300,4.859228271484375,0.6541643142700195,-0.4087820053100586,0.8803835511207581
1761131474551228200,4.869228271484375,0.557373046875,-0.36417245864868164,0.9117664694786072
1761131474561228300,4.879228271484375,0.4166421890258789,-0.39933323860168457,0.9520391821861267
1761131474571229000,4.88922900390625,0.3222513198852539,-0.5194587707519531,0.9598150253295898
1761131474581229000,4.89922900390625,0.3352394104003906,-0.5536313056945801,0.9558343291282654
1761131474591229000,4.90922900390625,0.1119985580444336,-0.8863096237182617,1.092447280883789
1761131474601229000,4.91922900390625,0.12514305114746094,-0.9199163913726807,1.0700346231460571
1761131474611229000,4.92922900390625,0.016550064086914062,-1.2399818897247314,1.152824878692627
1761131474621229000,4.93922900390625,0.02481555938720703,-1.2604670524597168,1.133776068687439
1761131474631229000,4.94922900390625,0.11102867126464844,-1.2650189399719238,0.9328477382659912
1761131474641229000,4.95922900390625,0.14574337005615234,-1.2509818077087402,0.7699270248413086
1761131474651229000,4.96922900390625,0.11043357849121094,-1.2703092098236084,0.7012795209884644
1761131474661229000,4.97922900390625,-0.02475738525390625,-1.3454234600067139,0.677256166934967
1761131474671228400,4.989228515625,-0.23224163055419922,-1.3788983821868896,0.591261625289917
1761131474681228300,4.999228271484375,-0.4752206802368164,-1.3105804920196533,0.3277919888496399
1761131474691228400,5.009228515625,-0.6072454452514648,-1.2155239582061768,0.04079166054725647
1761131474701228300,5.019228271484375,-0.7453222274780273,-1.111088752746582,-0.19541728496551514
1761131474711228400,5.029228515625,-0.8342189788818359,-1.0359768867492676,-0.2724127173423767
1761131474721228300,5.039228271484375,-0.9504537582397461,-0.9451096057891846,-0.21593329310417175
1761131474731228400,5.049228515625,-1.0869865417480469,-0.9244875907897949,-0.06674377620220184
1761131474741228300,5.059228271484375,-1.2031850814819336,-0.8543033599853516,0.15954101085662842
1761131474751228400,5.069228515625,-1.3040218353271484,-0.748455286026001,0.35050415992736816
1761131474761228300,5.079228271484375,-1.3667511940002441,-0.5942320823669434,0.41770607233047485
1761131474771229200,5.089229248046875,-1.3731083869934082,-0.44921875,0.48262926936149597
1761131474781229000,5.09922900390625,-1.282996654510498,-0.3549838066101074,0.5185619592666626
1761131474791229200,5.109229248046875,-1.1829257011413574,-0.2915966510772705,0.5558542609214783
1761131474801229000,5.11922900390625,-1.0442876815795898,-0.2635211944580078,0.5881003141403198
1761131474811229200,5.129229248046875,-0.8647727966308594,-0.2704753875732422,0.6494321823120117
1761131474821229000,5.13922900390625,-0.7256364822387695,-0.2624819278717041,0.7077862024307251
1761131474831229200,5.149229248046875,-0.5596828460693359,-0.254213809967041,0.7614023089408875
1761131474841229300,5.159229248046875,-0.2685995101928711,-0.23400235176086426,0.7424564361572266
1761131474851229200,5.169229248046875,0.0783090591430664,-0.16614437103271484,0.6786033511161804
1761131474861229300,5.179229248046875,0.38572025299072266,-0.13297343254089355,0.6429575085639954
1761131474871228400,5.189228515625,0.5444355010986328,-0.1799614429473877,0.697169303894043
1761131474881228300,5.199228271484375,0.5317106246948242,-0.1453099250793457,0.6816185712814331
1761131474891228400,5.209228515625,0.5735530853271484,-0.19946575164794922,0.7117031812667847
1761131474901228300,5.219228271484375,0.5029449462890625,-0.07609081268310547,0.5532867908477783
1761131474911228400,5.229228515625,0.39197349548339844,0.10190105438232422,0.38693124055862427
1761131474921228300,5.239228271484375,0.1976490020751953,0.23850178718566895,0.29041409492492676
1761131474931228400,5.249228515625,0.02042388916015625,0.2814323902130127,0.37260758876800537
1761131474941228300,5.259228271484375,-0.2001209259033203,0.3233168125152588,0.4872484803199768
1761131474951228400,5.269228515625,-0.30909252166748047,0.3686389923095703,0.6203840374946594
1761131474961228300,5.279228271484375,-0.3527355194091797,0.41469764709472656,0.7894535064697266
1761131474971229000,5.28922900390625,-0.34363460540771484,0.436812162399292,0.9311254024505615
1761131474981229000,5.29922900390625,-0.3403921127319336,0.4284806251525879,0.9197746515274048
1761131474991229200,5.309229248046875,-0.2205486297607422,0.36947178840637207,1.1861257553100586
1761131475001229000,5.31922900390625,-0.21831035614013672,0.3639380931854248,1.1755174398422241
1761131475011229200,5.329229248046875,-0.17054462432861328,0.16914105415344238,1.3383245468139648
1761131475021229000,5.33922900390625,-0.17512893676757812,0.12665414810180664,1.354288935661316
1761131475031229200,5.349229248046875,-0.17199993133544922,0.1185293197631836,1.3491076231002808
1761131475041229000,5.35922900390625,-0.3048057556152344,0.010596275329589844,1.173346757888794
1761131475051229200,5.369229248046875,-0.44446277618408203,-0.06733083724975586,1.0429450273513794
1761131475061229000,5.37922900390625,-0.5841045379638672,-0.16470670700073242,0.8726409077644348
1761131475071228200,5.389228271484375,-0.6760091781616211,-0.2547647953033447,0.6777514219284058
1761131475081228300,5.399228271484375,-0.7920417785644531,-0.265444278717041,0.48338067531585693
1761131475091228200,5.409228271484375,-0.9297513961791992,-0.2637593746185303,0.22505611181259155
1761131475101228300,5.419228271484375,-0.9908885955810547,-0.20437359809875488,0.06274257600307465
1761131475111228200,5.429228271484375,-1.0017061233520508,-0.0778038501739502,-0.08836553990840912
1761131475121228300,5.439228271484375,-0.9599952697753906,0.02787637710571289,-0.2417714148759842
1761131475131228200,5.449228271484375,-0.7893695831298828,0.10600686073303223,-0.2939714789390564
1761131475141228300,5.459228271484375,-0.5997085571289062,0.1534414291381836,-0.34775495529174805
1761131475151228200,5.469228271484375,-0.3619861602783203,0.19093084335327148,-0.4172309339046478
1761131475161228300,5.479228271484375,-0.13312339782714844,0.20509767532348633,-0.41761285066604614
1761131475171229000,5.48922900390625,-0.00360107421875,0.22345566749572754,-0.4772031605243683
1761131475181229000,5.49922900390625,0.06767559051513672,0.2881755828857422,-0.5251368284225464
1761131475191229000,5.50922900390625,0.10494804382324219,0.39131784439086914,-0.6223320960998535
1761131475201229000,5.51922900390625,0.03425025939941406,0.512901782989502,-0.6798495650291443
1761131475211229000,5.52922900390625,-0.016496658325195312,0.5926234722137451,-0.68785160779953
1761131475221229000,5.53922900390625,-0.00096893310546875,0.5537481307983398,-0.6521469354629517
1761131475231229200,5.549229248046875,-0.07081127166748047,0.8752193450927734,-0.31122246384620667
1761131475241229000,5.55922900390625,-0.054676055908203125,0.8366014957427979,-0.2724224030971527
1761131475251229000,5.56922900390625,0.3352956771850586,1.1915638446807861,0.12762831151485443
1761131475261229000,5.57922900390625,0.8923473358154297,1.3551297187805176,0.01792319491505623
1761131475271228200,5.589228271484375,1.42041015625,1.2676830291748047,-0.08344554901123047
1761131475281228000,5.59922802734375,1.8047246932983398,0.7572636604309082,0.15015703439712524
1761131475291228200,5.609228271484375,2.1287078857421875,0.14258456230163574,0.6205929517745972
1761131475301228000,5.61922802734375,2.3683815002441406,-0.36804914474487305,0.9543938636779785
1761131475311228200,5.629228271484375,2.384248733520508,-0.7508535385131836,1.1154191493988037
1761131475321228000,5.63922802734375,2.361556053161621,-1.0156497955322266,1.0765529870986938
1761131475331228200,5.649228271484375,2.2535829544067383,-1.0995166301727295,0.7587436437606812
1761131475341228000,5.65922802734375,2.0093870162963867,-1.0252368450164795,0.2981182634830475
1761131475351228200,5.669228271484375,1.5045862197875977,-0.934589147567749,-0.19431538879871368
1761131475361228000,5.67922802734375,0.8467283248901367,-0.9385380744934082,-0.5158506631851196
1761131475371229000,5.68922900390625,0.8562345504760742,-0.9696123600006104,-0.4335283041000366
1761131475381228800,5.699228759765625,-0.5637483596801758,-0.849907636642456,-0.8045333623886108
1761131475391229000,5.70922900390625,-1.1139187812805176,-0.7081222534179688,-0.8321706056594849
1761131475401229000,5.71922900390625,-1.0813422203063965,-0.7871949672698975,-0.7520503997802734
1761131475411229000,5.72922900390625,-1.734605312347412,-0.2896444797515869,-0.8861974477767944
1761131475421229000,5.73922900390625,-1.6954293251037598,-0.3775331974029541,-0.8306905031204224
1761131475431229000,5.74922900390625,-1.9024934768676758,0.002956867218017578,-0.7744811773300171
1761131475441229000,5.75922900390625,-1.8796172142028809,0.035642147064208984,-0.5406860113143921
1761131475451229000,5.76922900390625,-1.797025203704834,0.07022476196289062,-0.23129430413246155
1761131475461229000,5.77922900390625,-1.649071216583252,0.06642293930053711,0.12442483752965927
1761131475471228200,5.789228271484375,-1.3629822731018066,0.07472753524780273,0.4053565263748169
1761131475481228300,5.799228271484375,-1.3571257591247559,0.06236982345581055,0.39305415749549866
1761131475491228200,5.809228271484375,0.30260467529296875,0.4488382339477539,0.2064743936061859
1761131475501228300,5.819228271484375,1.3068876266479492,0.31778478622436523,-0.019274026155471802
1761131475511228200,5.829228271484375,2.315654754638672,-0.15971612930297852,0.19949644804000854
1761131475521228300,5.839228271484375,2.93489933013916,-0.844496488571167,0.631065309047699
1761131475531228200,5.849228271484375,3.193258285522461,-1.5935733318328857,1.2207837104797363
1761131475541228000,5.85922802734375,3.251217842102051,-2.1382758617401123,1.7892637252807617
1761131475551228200,5.869228271484375,3.0786523818969727,-2.3921103477478027,2.1490211486816406
1761131475561228000,5.87922802734375,2.7655677795410156,-2.182551860809326,1.9902034997940063
1761131475571229000,5.88922900390625,2.3613853454589844,-1.8183146715164185,1.4208592176437378
1761131475581229000,5.89922900390625,1.8516035079956055,-1.5163884162902832,0.8324235081672668
1761131475591229000,5.90922900390625,1.2238636016845703,-1.329425573348999,0.377739816904068
1761131475601229000,5.91922900390625,0.3976421356201172,-1.2435460090637207,0.12476225197315216
1761131475611229000,5.92922900390625,-0.5532236099243164,-1.2120120525360107,0.029933661222457886
1761131475621229000,5.93922900390625,-1.1932296752929688,-1.1471245288848877,-0.0037797391414642334
1761131475631229000,5.94922900390625,-1.6598248481750488,-1.005392074584961,-0.08212891221046448
1761131475641229000,5.95922900390625,-2.0119194984436035,-0.850703239440918,-0.11951756477355957
1761131475651229000,5.96922900390625,-2.1662492752075195,-0.7017381191253662,-0.14085108041763306
1761131475661229000,5.97922900390625,-2.2096123695373535,-0.5833618640899658,0.023925065994262695
1761131475671228200,5.989228271484375,-2.3226733207702637,-0.4293215274810791,0.5197768211364746
1761131475681228000,5.99922802734375,-2.3493738174438477,-0.2490406036376953,1.0499807596206665
1761131475691228200,6.009228271484375,-2.1781058311462402,-0.08774518966674805,1.5486303567886353
1761131475701228000,6.01922802734375,-1.8261384963989258,-0.041954994201660156,2.0182361602783203
1761131475711228200,6.029228271484375,-1.4015488624572754,-0.17564630508422852,2.3990046977996826
1761131475721228000,6.03922802734375,-0.9333000183105469,-0.380540132522583,2.534015655517578
1761131475731228200,6.049228271484375,-0.2681293487548828,-0.5961084365844727,2.458461284637451
1761131475741228000,6.05922802734375,0.3868989944458008,-0.7925891876220703,2.2822818756103516
1761131475751228200,6.069228271484375,0.995427131652832,-1.0616402626037598,2.047044277191162
1761131475761228000,6.07922802734375,1.5332469940185547,-1.3186497688293457,1.8699127435684204
1761131475771229000,6.08922900390625,2.0094146728515625,-1.5051665306091309,1.6409528255462646
1761131475781228800,6.099228759765625,2.3367795944213867,-1.605332374572754,1.3797143697738647
1761131475791229000,6.10922900390625,2.3836851119995117,-1.591974139213562,1.1491364240646362
1761131475801228800,6.119228759765625,2.296070098876953,-1.5508352518081665,1.0047307014465332
1761131475811229000,6.12922900390625,2.0302257537841797,-1.4373761415481567,0.8985624313354492
1761131475821228800,6.139228759765625,1.6137123107910156,-1.318299651145935,0.8365218639373779
1761131475831229000,6.14922900390625,1.2028446197509766,-1.2136361598968506,0.842379629611969
1761131475841229000,6.15922900390625,0.6561374664306641,-1.035538911819458,0.8476717472076416
1761131475851229000,6.16922900390625,0.13309955596923828,-0.8710215091705322,0.8006364703178406
1761131475861228800,6.179228759765625,-0.4751901626586914,-0.7528886795043945,0.8417277336120605
1761131475871228200,6.189228271484375,-1.0693931579589844,-0.6555836200714111,1.043496012687683
1761131475881228000,6.19922802734375,-1.6120901107788086,-0.5111255645751953,1.2756508588790894
1761131475891228200,6.209228271484375,-1.9983668327331543,-0.3726227283477783,1.4024922847747803
1761131475901228000,6.21922802734375,-1.9798998832702637,-0.4242730140686035,1.4175087213516235
1761131475911194600,6.229194580078125,-2.3020987510681152,-0.058349609375,1.2173044681549072
1761131475921161500,6.239161376953125,-2.1606831550598145,-0.014626502990722656,1.0428180694580078
1761131475931128000,6.249128173828125,-1.898942470550537,-0.05273318290710449,0.9535625576972961
1761131475941094700,6.2590947265625,-1.5857696533203125,-0.1233983039855957,1.0232044458389282
1761131475951061500,6.2690615234375,-1.066105842590332,-0.26865625381469727,1.19077467918396
1761131475961028000,6.279028076171875,-0.4544248580932617,-0.31456851959228516,1.2006815671920776
1761131475970995700,6.28899560546875,0.28970813751220703,-0.361478328704834,1.0790824890136719
1761131475980962300,6.29896240234375,0.9041204452514648,-0.47292089462280273,0.9737865924835205
1761131475990929000,6.308928955078125,1.281214714050293,-0.6162896156311035,0.8712337017059326
1761131476000895700,6.318895751953125,1.4743709564208984,-0.7809672355651855,0.7496064901351929
1761131476010862300,6.3288623046875,1.5463886260986328,-0.6909313201904297,0.48276352882385254
1761131476020829000,6.338828857421875,1.3779573440551758,-0.3021721839904785,0.025996465235948563
1761131476030795500,6.34879541015625,1.1625080108642578,0.048686981201171875,-0.43684330582618713
1761131476040762400,6.358762451171875,0.8484592437744141,0.3191399574279785,-0.7299544215202332
1761131476050729000,6.36872900390625,0.5291461944580078,0.4935877323150635,-0.8624584078788757
1761131476060695600,6.378695556640625,0.10323429107666016,0.6323890686035156,-0.9934614300727844
1761131476070661400,6.388661376953125,-0.27245044708251953,0.7301003932952881,-1.1068018674850464
1761131476080628200,6.398628173828125,-0.5487861633300781,0.8059020042419434,-1.1065293550491333
1761131476090594800,6.4085947265625,-0.8940744400024414,0.8664655685424805,-1.1302883625030518
1761131476100561400,6.4185615234375,-1.1702051162719727,0.9075350761413574,-1.0362578630447388
1761131476110528300,6.4285283203125,-1.4205150604248047,0.9670453071594238,-0.8732242584228516
1761131476120494800,6.438494873046875,-1.5452532768249512,1.08949613571167,-0.7545270919799805
1761131476130461400,6.44846142578125,-1.7747955322265625,1.0790295600891113,-0.7854031324386597
1761131476140428000,6.458427978515625,-1.821908950805664,1.1066532135009766,-0.7127406001091003
1761131476150395000,6.468394775390625,-1.6936039924621582,1.2326133251190186,-0.6822057962417603
1761131476160361500,6.478361572265625,-1.3618698120117188,1.4872407913208008,-0.670617938041687
1761131476170328800,6.488328857421875,-1.1817874908447266,1.6965434551239014,-0.6750967502593994
1761131476180295700,6.498295654296875,-1.0026235580444336,1.5964505672454834,-0.5827564001083374
1761131476190262300,6.50826220703125,-1.0577917098999023,1.3108100891113281,-0.543662428855896
1761131476200228900,6.518228759765625,-1.1958246231079102,1.0395927429199219,-0.6226514577865601
1761131476210229000,6.52822900390625,-1.1316719055175781,0.9200491905212402,-0.8762660622596741
1761131476220228900,6.538228759765625,-1.0215778350830078,1.0020015239715576,-1.2719871997833252
1761131476230229000,6.54822900390625,-0.7183866500854492,1.106182336807251,-1.6442397832870483
1761131476240228900,6.558228759765625,-0.5074224472045898,1.0898761749267578,-2.032346487045288
1761131476250229000,6.56822900390625,-0.30951881408691406,0.9068255424499512,-2.2406442165374756
1761131476260228900,6.578228759765625,-0.08400726318359375,0.803621768951416,-2.4462697505950928
1761131476270228200,6.588228271484375,0.17125892639160156,0.8495616912841797,-2.614305019378662
1761131476280228000,6.59822802734375,0.4005002975463867,0.9404034614562988,-2.6961426734924316
1761131476290228000,6.60822802734375,0.7233619689941406,1.0425820350646973,-2.5895509719848633
1761131476300228000,6.61822802734375,1.0785131454467773,1.2499330043792725,-2.2575275897979736
1761131476310228000,6.62822802734375,1.2150821685791016,1.2812840938568115,-1.906407356262207
1761131476320228000,6.63822802734375,1.2256650924682617,1.1843647956848145,-1.604583501815796
1761131476330228000,6.64822802734375,1.1622810363769531,1.1598289012908936,-1.505635380744934
1761131476340228000,6.65822802734375,1.1986303329467773,1.3390936851501465,-1.5899733304977417
1761131476350228000,6.66822802734375,1.095235824584961,1.6637639999389648,-1.7314568758010864
1761131476360228000,6.67822802734375,1.0115346908569336,1.885329246520996,-1.865431547164917
1761131476370229000,6.68822900390625,1.0709991455078125,1.9730215072631836,-1.9221670627593994
1761131476380228900,6.698228759765625,1.0805206298828125,1.8625528812408447,-1.9191884994506836
1761131476390229000,6.70822900390625,1.1727209091186523,1.6692655086517334,-1.8277616500854492
1761131476400228900,6.718228759765625,1.2559595108032227,1.4698636531829834,-1.7016984224319458
1761131476410229000,6.72822900390625,1.430171012878418,1.3015632629394531,-1.5525188446044922
1761131476420228900,6.738228759765625,1.2273101806640625,1.1572303771972656,-1.4478498697280884
1761131476430229000,6.74822900390625,1.0368766784667969,1.06107497215271,-1.2794697284698486
1761131476440228900,6.758228759765625,0.7725419998168945,0.9639179706573486,-1.103446364402771
1761131476450229000,6.76822900390625,0.5840272903442383,0.9396703243255615,-1.0206403732299805
1761131476460228900,6.778228759765625,0.5898923873901367,0.9376380443572998,-1.0507371425628662
1761131476470228200,6.788228271484375,0.6840715408325195,0.8315305709838867,-1.1296653747558594
1761131476480228000,6.79822802734375,0.7209463119506836,0.5019097328186035,-1.1782078742980957
1761131476490228200,6.808228271484375,0.7043914794921875,0.5433242321014404,-1.1963679790496826
1761131476500228000,6.81822802734375,0.5832700729370117,0.10730218887329102,-1.7585582733154297
1761131476510228200,6.828228271484375,0.45981884002685547,-0.08639144897460938,-1.9581890106201172
1761131476520228000,6.83822802734375,0.2999248504638672,-0.23330450057983398,-1.9587609767913818
1761131476530228200,6.848228271484375,0.044930458068847656,-0.23823833465576172,-1.8632349967956543
1761131476540228000,6.85822802734375,0.03555107116699219,-0.21090364456176758,-1.8622175455093384
1761131476550228200,6.868228271484375,-0.2815093994140625,0.22923636436462402,-1.753272294998169
1761131476560228000,6.87822802734375,-0.28483009338378906,0.24074363708496094,-1.7429113388061523
1761131476570229000,6.88822900390625,-0.20093822479248047,0.6065096855163574,-1.9711580276489258
1761131476580228900,6.898228759765625,-0.16733455657958984,0.4517800807952881,-1.905874490737915
1761131476590229000,6.90822900390625,-0.1697988510131836,0.45253586769104004,-1.946954369544983
1761131476600228900,6.918228759765625,-0.052361488342285156,0.05115962028503418,-1.600035548210144
1761131476610229000,6.92822900390625,0.053467750549316406,-0.061972856521606445,-1.4981261491775513
1761131476620228900,6.938228759765625,0.0666952133178711,-0.14067339897155762,-1.3069665431976318
1761131476630229000,6.94822900390625,-0.06954097747802734,-0.3101198673248291,-1.1180791854858398
1761131476640228900,6.958228759765625,-0.3165092468261719,-0.4369938373565674,-0.9657660722732544
1761131476650228700,6.968228759765625,-0.5797758102416992,-0.38814401626586914,-0.8206799626350403
1761131476660228900,6.978228759765625,-0.9154558181762695,-0.3242623805999756,-0.7782576084136963
1761131476670228000,6.98822802734375,-1.057973861694336,-0.22136735916137695,-0.7946503758430481
1761131476680227800,6.998227783203125,-1.0484933853149414,-0.24834990501403809,-0.8115933537483215
1761131476690228000,7.00822802734375,-1.3616299629211426,-0.22408747673034668,-0.9114658832550049
1761131476700227800,7.018227783203125,-1.4919524192810059,-0.2474665641784668,-0.9219757318496704
1761131476710228000,7.02822802734375,-1.4894747734069824,-0.2569446563720703,-0.892014741897583
1761131476720227800,7.038227783203125,-1.708831787109375,-0.2946639060974121,-0.9745115041732788
1761131476730228000,7.04822802734375,-1.9252495765686035,-0.36933088302612305,-1.0057672262191772
1761131476740227800,7.058227783203125,-2.1245040893554688,-0.4351003170013428,-1.0187578201293945
1761131476750228000,7.06822802734375,-2.2447452545166016,-0.5219941139221191,-1.128152847290039
1761131476760227800,7.078227783203125,-2.2150797843933105,-0.38335275650024414,-1.274806022644043
1761131476770228700,7.088228759765625,-2.137054920196533,-0.29204535484313965,-1.3443292379379272
1761131476780228900,7.098228759765625,-2.092291831970215,-0.262040376663208,-1.2198766469955444
1761131476790228700,7.108228759765625,-2.063572406768799,-0.26349663734436035,-0.9693108797073364
1761131476800228900,7.118228759765625,-2.0529913902282715,-0.20627593994140625,-0.7838817238807678
1761131476810228700,7.128228759765625,-1.9241890907287598,-0.15002179145812988,-0.7270519733428955
1761131476820228900,7.138228759765625,-1.7108945846557617,-0.043947696685791016,-0.8546693325042725
1761131476830228700,7.148228759765625,-1.5136442184448242,-0.036557674407958984,-0.9577990770339966
1761131476840228900,7.158228759765625,-1.3631243705749512,-0.05228924751281738,-0.8970426321029663
1761131476850228700,7.168228759765625,-1.1418023109436035,-0.28313589096069336,-0.834465503692627
1761131476860228900,7.178228759765625,-0.6625795364379883,0.15105962753295898,-1.0633950233459473
1761131476870228000,7.18822802734375,-0.6722421646118164,0.23710083961486816,-0.9618316888809204
1761131476880227800,7.198227783203125,-0.5181894302368164,-0.10599780082702637,-0.7303946018218994
1761131476890228000,7.20822802734375,-0.07142925262451172,-0.30729150772094727,-0.8547372817993164
1761131476900227800,7.218227783203125,-0.08252525329589844,-0.27858471870422363,-0.8599069714546204
1761131476910228000,7.22822802734375,0.7720499038696289,-0.2781798839569092,-1.1523860692977905
1761131476920227800,7.238227783203125,1.0963401794433594,-0.16585612297058105,-0.9878979921340942
1761131476930228000,7.24822802734375,1.239426612854004,0.17302989959716797,-0.7612494230270386
1761131476940228000,7.25822802734375,1.2876176834106445,0.5085210800170898,-0.26574790477752686
1761131476950228000,7.26822802734375,1.3546419143676758,0.7364065647125244,0.08956044912338257
1761131476960228000,7.27822802734375,1.5172395706176758,1.0141079425811768,0.18509089946746826
1761131476970229000,7.28822900390625,1.7965507507324219,1.311842679977417,0.16037234663963318
1761131476980228900,7.298228759765625,2.16660213470459,0.968116283416748,0.24393513798713684
1761131476990229000,7.30822900390625,2.675079345703125,0.19933414459228516,0.3699433207511902
1761131477000228900,7.318228759765625,3.278325080871582,-0.3466498851776123,0.14864397048950195
1761131477010229000,7.32822900390625,3.8489084243774414,-0.5847334861755371,-0.18539705872535706
1761131477020228900,7.338228759765625,4.084752082824707,-0.5249733924865723,-0.49227413535118103
1761131477030229000,7.34822900390625,4.066359519958496,-0.4548778533935547,-0.5536627769470215
1761131477040229000,7.35822900390625,4.072386741638184,-0.10309672355651855,-0.8932949304580688
1761131477050229000,7.36822900390625,4.060647010803223,-0.05903029441833496,-0.9190412163734436
1761131477060229000,7.37822900390625,3.404961585998535,0.24361705780029297,-0.34318065643310547
1761131477070228200,7.388228271484375,3.0107803344726562,0.34847211837768555,-0.02266824245452881
1761131477080228000,7.39822802734375,2.507295608520508,0.31565427780151367,0.2487470507621765
1761131477090228200,7.408228271484375,2.009824752807617,0.21425938606262207,0.5531613826751709
1761131477100228000,7.41822802734375,1.3368072509765625,0.15203189849853516,0.8510865569114685
1761131477110228200,7.428228271484375,0.6390590667724609,0.13229775428771973,1.1158404350280762
1761131477120228000,7.43822802734375,0.12477970123291016,0.15694475173950195,1.2512283325195312
1761131477130228200,7.448228271484375,-0.3423910140991211,0.1878490447998047,1.2682480812072754
1761131477140228000,7.45822802734375,-0.7289876937866211,0.17693114280700684,1.21124267578125
1761131477150228000,7.46822802734375,-1.0230751037597656,0.16360950469970703,1.1043646335601807
1761131477160228000,7.47822802734375,-1.2247347831726074,0.11467480659484863,0.8734862804412842
1761131477170229000,7.48822900390625,-1.3384137153625488,0.0574951171875,0.5663567781448364
1761131477180228900,7.498228759765625,-1.3185644149780273,-0.0890648365020752,0.37629902362823486
1761131477190229000,7.50822900390625,-1.3408050537109375,-0.17404961585998535,0.17902296781539917
1761131477200228900,7.518228759765625,-1.4149222373962402,-0.2196650505065918,-0.0369531512260437
1761131477210229000,7.52822900390625,-1.4979157447814941,-0.19751739501953125,-0.32878804206848145
1761131477220228900,7.538228759765625,-1.5903277397155762,-0.14950203895568848,-0.6032008528709412
1761131477230229000,7.54822900390625,-1.6524033546447754,-0.10940384864807129,-0.854533314704895
1761131477240228900,7.558228759765625,-1.65464448928833,-0.10982394218444824,-0.8051236867904663
1761131477250229000,7.56822900390625,-1.8482928276062012,-0.0983133316040039,-1.0093798637390137
1761131477260228900,7.578228759765625,-1.929708480834961,-0.07867074012756348,-1.0287399291992188
1761131477270228000,7.58822802734375,-1.949946403503418,-0.13306283950805664,-0.9649034738540649
1761131477280228000,7.59822802734375,-1.9791412353515625,-0.11878299713134766,-0.8609186410903931
1761131477290228000,7.60822802734375,-1.9918293952941895,-0.15846967697143555,-0.7277617454528809
1761131477300228000,7.61822802734375,-2.0459227561950684,-0.15323758125305176,-0.5584738254547119
1761131477310228000,7.62822802734375,-2.0888776779174805,-0.11262989044189453,-0.3594483733177185
1761131477320228000,7.63822802734375,-2.1445608139038086,-0.03459334373474121,-0.22660920023918152
1761131477330228000,7.64822802734375,-2.0934720039367676,0.06940603256225586,-0.16362857818603516
1761131477340228000,7.65822802734375,-1.9645094871520996,0.23353242874145508,-0.20312121510505676
1761131477350228000,7.66822802734375,-1.6883525848388672,0.3004424571990967,-0.1967557668685913
1761131477360228000,7.67822802734375,-1.5438780784606934,0.339099645614624,-0.21464185416698456
1761131477370229000,7.68822900390625,-1.4227409362792969,0.3024709224700928,-0.21567308902740479
1761131477380228900,7.698228759765625,-1.3653202056884766,0.21825337409973145,-0.20160847902297974
1761131477390229000,7.70822900390625,-1.3382487297058105,0.12253379821777344,-0.20202656090259552
1761131477400228900,7.718228759765625,-1.2394051551818848,0.12506914138793945,-0.32940059900283813
1761131477410229000,7.72822900390625,-0.9979667663574219,0.18526768684387207,-0.5819577574729919
1761131477420228900,7.738228759765625,-0.7845783233642578,0.22105169296264648,-0.8037919998168945
1761131477430229000,7.74822900390625,-0.6352672576904297,0.21367621421813965,-0.9191465377807617
1761131477440228900,7.758228759765625,-0.640498161315918,0.2265777587890625,-0.8880655765533447
1761131477450229000,7.76822900390625,-0.28237152099609375,0.27954554557800293,-0.9794206619262695
1761131477460228900,7.778228759765625,-0.1753396987915039,0.40891218185424805,-1.118069052696228
1761131477470228000,7.78822802734375,-0.17991161346435547,0.4216289520263672,-1.0722501277923584
1761131477480228000,7.79822802734375,-0.06060600280761719,0.5191822052001953,-1.1625993251800537
1761131477490228000,7.80822802734375,0.14960956573486328,0.6164073944091797,-1.2284821271896362
1761131477500228000,7.81822802734375,0.1517353057861328,0.6140856742858887,-1.1781049966812134
1761131477510228000,7.82822802734375,0.2402639389038086,0.6313793659210205,-1.0689853429794312
1761131477520228000,7.83822802734375,0.32835865020751953,0.4850294589996338,-0.6989364624023438
1761131477530228000,7.84822802734375,0.376220703125,0.4010758399963379,-0.628071129322052
1761131477540228000,7.85822802734375,0.46842384338378906,0.38129639625549316,-0.6050561666488647
1761131477550228000,7.86822802734375,0.5895004272460938,0.3691370487213135,-0.7436524629592896
1761131477560228000,7.87822802734375,0.8318967819213867,0.4440317153930664,-0.8994494676589966
1761131477570229000,7.88822900390625,1.269002914428711,0.6439800262451172,-1.0175808668136597
1761131477580228900,7.898228759765625,1.7197084426879883,0.8800876140594482,-1.2134573459625244
1761131477590229000,7.90822900390625,2.12646484375,0.9028427600860596,-1.2375637292861938
1761131477600228900,7.918228759765625,2.5269317626953125,0.7017405033111572,-1.0715222358703613
1761131477610229000,7.92822900390625,2.951700210571289,0.42116498947143555,-0.8902443051338196
1761131477620228900,7.938228759765625,3.224677085876465,0.19698095321655273,-0.8343119621276855
1761131477630229000,7.94822900390625,3.2678699493408203,-0.031021833419799805,-1.033858060836792
1761131477640228900,7.958228759765625,3.1380748748779297,-0.16897368431091309,-1.2442318201065063
1761131477650229000,7.96822900390625,2.7010650634765625,-0.41225290298461914,-1.3817811012268066
1761131477660228900,7.978228759765625,2.0763320922851562,-0.626708984375,-1.4352822303771973
1761131477670228200,7.988228271484375,1.3589439392089844,-0.6098861694335938,-1.4740899801254272
1761131477680228000,7.99822802734375,0.7172365188598633,-0.36850833892822266,-1.5581283569335938
1761131477690228200,8.008228271484375,0.1578683853149414,0.15022492408752441,-1.7796427011489868
1761131477700228000,8.01822802734375,-0.07224845886230469,0.6221470832824707,-1.9512234926223755
1761131477710228200,8.028228271484375,-0.15590286254882812,0.9735262393951416,-2.000789165496826
1761131477720228000,8.03822802734375,-0.0680856704711914,0.9895608425140381,-1.9393336772918701
1761131477730228200,8.048228271484374,0.06836605072021484,0.6251287460327148,-1.7201237678527832
1761131477740228000,8.05822802734375,0.3642082214355469,-0.007186174392700195,-1.3931670188903809
1761131477750228200,8.068228271484376,0.7026968002319336,-0.6089377403259277,-0.993320882320404
1761131477760228000,8.07822802734375,0.8685379028320312,-1.0938475131988525,-0.4825083017349243
1761131477770229000,8.08822900390625,0.7513513565063477,-1.3880414962768555,0.045097410678863525
1761131477780228900,8.098228759765625,0.4114971160888672,-1.5117555856704712,0.5955666303634644
1761131477790229000,8.10822900390625,-0.04895973205566406,-1.4392366409301758,0.9352737665176392
1761131477800228900,8.118228759765625,-0.4707517623901367,-1.1502859592437744,0.8378298878669739
1761131477810229000,8.12822900390625,-0.9328441619873047,-0.7903192043304443,0.3313453197479248
1761131477820228900,8.138228759765624,-1.299950122833252,-0.5309295654296875,-0.20409852266311646
1761131477830229000,8.14822900390625,-1.7820734977722168,-0.3682732582092285,-0.5957022309303284
1761131477840229000,8.15822900390625,-2.24894380569458,-0.3884875774383545,-0.8307971954345703
1761131477850229000,8.16822900390625,-2.684292793273926,-0.5268964767456055,-0.9481577277183533
1761131477860229000,8.17822900390625,-3.146735191345215,-0.5884072780609131,-0.9936047792434692
1761131477870228200,8.188228271484375,-3.360145092010498,-0.5330920219421387,-0.914269208908081
1761131477880228400,8.198228271484375,-3.47934627532959,-0.3644282817840576,-0.8103044033050537
1761131477890228200,8.208228271484375,-3.479865550994873,-0.11877775192260742,-0.693357527256012
1761131477900228000,8.21822802734375,-3.327335834503174,0.10406136512756348,-0.5564947724342346
1761131477910228200,8.228228271484374,-3.1071672439575195,0.25474095344543457,-0.4564056694507599
1761131477920228400,8.238228271484376,-2.686361789703369,0.32813119888305664,-0.3858613967895508
1761131477930228200,8.248228271484376,-2.6831116676330566,0.32714104652404785,-0.4277716279029846
1761131477940228000,8.25822802734375,-1.7107210159301758,0.25522279739379883,-0.2648630440235138
1761131477950228200,8.268228271484375,-1.2623062133789062,0.23451542854309082,-0.23512986302375793
1761131477960228000,8.27822802734375,-0.8888053894042969,0.21356868743896484,-0.1354273557662964
1761131477970229000,8.28822900390625,-0.6008071899414062,0.19042158126831055,-0.10691773891448975
1761131477980229000,8.29822900390625,-0.21736717224121094,0.20859670639038086,-0.2700434923171997
1761131477990229000,8.30822900390625,-0.22791099548339844,0.2336897850036621,-0.26481539011001587
1761131478000229000,8.31822900390625,0.44838523864746094,0.35268235206604004,-0.8696190118789673
1761131478010229000,8.32822900390625,0.7853031158447266,0.367673397064209,-1.1255204677581787
1761131478020229000,8.33822900390625,1.003321647644043,0.25187087059020996,-1.1240131855010986
1761131478030229000,8.34822900390625,1.0809507369995117,0.18726301193237305,-0.9352196455001831
1761131478040229000,8.35822900390625,1.0265865325927734,0.13797640800476074,-0.6651839017868042
1761131478050229000,8.36822900390625,1.0336294174194336,0.11632680892944336,-0.6424281001091003
1761131478060229000,8.37822900390625,1.0024394989013672,0.20284724235534668,-0.40855100750923157
1761131478070228200,8.388228271484374,1.1255016326904297,0.23599863052368164,-0.4457608163356781
1761131478080228000,8.39822802734375,1.128676414489746,0.22637081146240234,-0.4343789517879486
1761131478090228200,8.408228271484376,1.2793445587158203,0.0679936408996582,-0.37451109290122986
1761131478100228400,8.418228271484375,1.4763107299804688,0.02299976348876953,-0.1728447675704956
1761131478110228200,8.428228271484375,1.797842025756836,0.033591508865356445,-0.15573066473007202
1761131478120228400,8.438228271484375,2.085494041442871,0.09166741371154785,-0.19463631510734558
1761131478130228200,8.448228271484375,2.361572265625,0.12116050720214844,-0.21029475331306458
1761131478140228000,8.45822802734375,2.6273422241210938,0.118255615234375,-0.12690317630767822
1761131478150228200,8.468228271484374,2.8555994033813477,0.19362401962280273,-0.027026593685150146
1761131478160228000,8.47822802734375,3.0240001678466797,0.2447495460510254,0.19384175539016724
1761131478170229000,8.48822900390625,3.076549530029297,0.28215646743774414,0.3384329676628113
1761131478180228900,8.498228759765626,3.079106330871582,0.2624697685241699,0.38277584314346313
1761131478190229000,8.50822900390625,3.0636634826660156,0.30323028564453125,0.397646963596344
1761131478200228900,8.518228759765625,2.906306266784668,0.06255435943603516,0.18573802709579468
1761131478210229000,8.52822900390625,2.693380355834961,-0.005603313446044922,0.0016404390335083008
1761131478220228900,8.538228759765625,2.4489126205444336,-0.1029212474822998,-0.005764305591583252
1761131478230229000,8.54822900390625,2.0461339950561523,-0.20376944541931152,0.16994708776474
1761131478240228900,8.558228759765624,2.0527124404907227,-0.225006103515625,0.18454509973526
1761131478250229000,8.56822900390625,1.0703754425048828,-0.17334771156311035,0.7347447276115417
1761131478260228900,8.578228759765626,1.0860557556152344,-0.21977806091308594,0.751467227935791
1761131478270228000,8.58822802734375,-0.13933277130126953,-0.12755179405212402,1.155174732208252
1761131478280228000,8.59822802734375,-0.6449766159057617,-0.13503217697143555,1.245974063873291
1761131478290228000,8.60822802734375,-1.0393943786621094,-0.09075284004211426,1.2894203662872314
1761131478300228000,8.61822802734375,-1.3487334251403809,-0.09410691261291504,1.1780964136123657
1761131478310228000,8.62822802734375,-1.328615665435791,-0.14462780952453613,1.1734933853149414
1761131478320228000,8.63822802734375,-1.7610931396484375,-0.29688405990600586,0.850835382938385
1761131478330228000,8.64822802734375,-1.7945713996887207,-0.43766355514526367,0.5915201902389526
1761131478340228000,8.65822802734375,-1.6208195686340332,-0.47387123107910156,0.2993369996547699
1761131478350228000,8.66822802734375,-1.493274211883545,-0.5022091865539551,0.0913812518119812
1761131478360228000,8.67822802734375,-1.4990019798278809,-0.49041152000427246,0.11126172542572021
1761131478370229000,8.68822900390625,-1.5162434577941895,-0.6087892055511475,-0.014691680669784546
1761131478380228900,8.698228759765625,-1.5978307723999023,-0.5945909023284912,-0.05312046408653259
1761131478390229000,8.70822900390625,-1.75407075881958,-0.5136487483978271,-0.2271767109632492
1761131478400228900,8.718228759765625,-1.914398193359375,-0.42087340354919434,-0.36692363023757935
1761131478410229000,8.72822900390625,-2.09967041015625,-0.3344078063964844,-0.4620685577392578
1761131478420228900,8.738228759765626,-2.3292222023010254,-0.29433274269104004,-0.47546127438545227
1761131478430229000,8.74822900390625,-2.500697135925293,-0.2895340919494629,-0.44670289754867554
1761131478440228900,8.758228759765625,-2.574428081512451,-0.22658491134643555,-0.4705521762371063
1761131478450229000,8.76822900390625,-2.556528091430664,-0.16939544677734375,-0.5529015064239502
1761131478460228900,8.778228759765625,-2.536792755126953,-0.09121561050415039,-0.4789319634437561
1761131478470228000,8.78822802734375,-2.429978847503662,-0.04498648643493652,-0.3322623372077942
1761131478480228000,8.79822802734375,-2.289572238922119,-0.014582157135009766,-0.10224924981594086
1761131478490228000,8.80822802734375,-2.10634183883667,-0.004113197326660156,0.07422325015068054
1761131478500228000,8.81822802734375,-2.1056437492370605,-0.005799531936645508,0.07548391819000244
1761131478510228000,8.82822802734375,-1.7039475440979004,0.06563544273376465,0.24128413200378418
1761131478520228000,8.83822802734375,-1.5051946640014648,0.14142632484436035,0.172502338886261
1761131478530228000,8.84822802734375,-1.2911882400512695,0.14191150665283203,0.05822386592626572
1761131478540228000,8.85822802734375,-1.2986984252929688,0.15993714332580566,0.07471732050180435
1761131478550228000,8.86822802734375,-0.8237934112548828,0.06617045402526855,-0.24626587331295013
1761131478560228000,8.87822802734375,-0.39798736572265625,0.04500889778137207,-0.3654957711696625
1761131478570229000,8.88822900390625,-0.40883445739746094,0.07181167602539062,-0.35346147418022156
1761131478580228900,8.898228759765624,0.14272785186767578,0.11384320259094238,-0.49455589056015015
1761131478590229000,8.90822900390625,0.26470470428466797,0.21509695053100586,-0.5133594870567322
1761131478600228900,8.918228759765626,0.32712745666503906,0.3483767509460449,-0.5228211283683777
1761131478610229000,8.92822900390625,0.31154632568359375,0.5000226497650146,-0.6054677963256836
1761131478620228900,8.938228759765625,0.2036609649658203,0.6555821895599365,-0.7275639772415161
1761131478630229000,8.94822900390625,0.05130958557128906,0.8126859664916992,-0.7575713396072388
1761131478640228900,8.958228759765625,-0.09077739715576172,0.9288074970245361,-0.6788325905799866
1761131478650229000,8.96822900390625,-0.18049240112304688,1.017975091934204,-0.6492105722427368
1761131478660228900,8.978228759765624,-0.12140178680419922,1.0672922134399414,-0.6194190979003906
1761131478670228200,8.988228271484376,-0.037586212158203125,0.9951465129852295,-0.49045732617378235
1761131478680228000,8.99822802734375,0.20568084716796875,0.8751027584075928,-0.3222767412662506
1761131478690228000,9.00822802734375,0.5136270523071289,0.7421298027038574,-0.30653950572013855
1761131478700228000,9.01822802734375,0.7947492599487305,0.7083137035369873,-0.4580066502094269
1761131478710228000,9.02822802734375,0.9609470367431641,0.7181570529937744,-0.6352537274360657
1761131478720228000,9.03822802734375,1.1698694229125977,0.7366175651550293,-0.7429680824279785
1761131478730228000,9.04822802734375,1.3828926086425781,0.8911056518554688,-0.9365552663803101
1761131478740228000,9.05822802734375,1.5549936294555664,1.1299121379852295,-1.1871578693389893
1761131478750228000,9.06822802734375,1.7433757781982422,1.3128681182861328,-1.3992613554000854
1761131478760228000,9.07822802734375,1.86700439453125,1.3210926055908203,-1.5521520376205444
1761131478770229000,9.08822900390625,2.0439014434814453,1.0930578708648682,-1.687565803527832
1761131478780228900,9.098228759765625,2.0306663513183594,1.1319422721862793,-1.6685187816619873
1761131478790229000,9.10822900390625,2.342069625854492,0.6273102760314941,-1.917844533920288
1761131478800228900,9.118228759765625,2.2312183380126953,0.42562007904052734,-1.8574910163879395
1761131478810229000,9.12822900390625,1.9051084518432617,0.23518824577331543,-1.6538951396942139
1761131478820228900,9.138228759765624,1.5635299682617188,0.16715049743652344,-1.5390230417251587
1761131478830229000,9.14822900390625,1.1374521255493164,0.3316643238067627,-1.6048872470855713
1761131478840228900,9.158228759765626,0.7442054748535156,0.5207324028015137,-1.7163751125335693
1761131478850229000,9.16822900390625,0.32826900482177734,0.7092056274414062,-1.745408058166504
1761131478860228900,9.178228759765625,-0.05418682098388672,0.8161039352416992,-1.675690770149231
1761131478870228000,9.18822802734375,-0.35692501068115234,0.8760795593261719,-1.5141770839691162
1761131478880228000,9.19822802734375,-0.4932107925415039,0.8524816036224365,-1.3830349445343018
1761131478890228000,9.20822802734375,-0.3167133331298828,0.7634069919586182,-1.407740592956543
1761131478900228000,9.21822802734375,0.09398174285888672,0.6429634094238281,-1.5662829875946045
1761131478910228000,9.22822802734375,0.5907659530639648,0.35290098190307617,-1.6819376945495605
1761131478920228000,9.23822802734375,1.0994148254394531,-0.0011701583862304688,-1.3482940196990967
1761131478930228000,9.24822802734375,1.452366828918457,-0.42155981063842773,-0.8992812633514404
1761131478940228000,9.25822802734375,1.559295654296875,-0.7897365093231201,-0.44003617763519287
1761131478950228000,9.26822802734375,1.5122575759887695,-1.0324392318725586,0.10907876491546631
1761131478960228000,9.27822802734375,1.1344280242919922,-1.2069542407989502,0.5305579900741577
1761131478970228700,9.288228759765625,0.5520286560058594,-1.2361295223236084,0.7778461575508118
1761131478980228900,9.298228759765625,-0.08397960662841797,-1.0067238807678223,0.7639765739440918
1761131478990229000,9.30822900390625,-0.7472620010375977,-0.6966187953948975,0.4734939932823181
1761131479000228900,9.318228759765624,-1.34971284866333,-0.40708279609680176,0.0781368762254715
1761131479010229000,9.32822900390625,-1.8898615837097168,-0.26432371139526367,-0.30866241455078125
1761131479020228900,9.338228759765625,-2.4781875610351562,-0.32961273193359375,-0.5387673377990723
1761131479030229000,9.34822900390625,-2.9246225357055664,-0.48876237869262695,-0.5924938917160034
1761131479040228900,9.358228759765625,-3.209275245666504,-0.662966251373291,-0.5887216329574585
1761131479050229000,9.36822900390625,-3.3220386505126953,-0.7344388961791992,-0.4855099320411682
1761131479060228900,9.378228759765625,-3.405764579772949,-0.7230145931243896,-0.3795314431190491
1761131479070228000,9.38822802734375,-3.320474147796631,-0.6350347995758057,-0.23784513771533966
1761131479080228000,9.39822802734375,-3.138762950897217,-0.5046288967132568,-0.0325360968708992
1761131479090228200,9.408228271484376,-2.928091049194336,-0.40056490898132324,0.15728417038917542
1761131479100228000,9.41822802734375,-2.6479783058166504,-0.3322579860687256,0.28771382570266724
1761131479110228200,9.428228271484375,-2.645200252532959,-0.3391568660736084,0.25467196106910706
1761131479120228000,9.43822802734375,-1.7792835235595703,-0.25333642959594727,0.47923973202705383
1761131479130228000,9.44822802734375,-1.4139409065246582,-0.2566964626312256,0.5129212141036987
1761131479140228000,9.45822802734375,-1.100334644317627,-0.3159322738647461,0.5468050241470337
1761131479150228000,9.46822802734375,-0.7824859619140625,-0.354358434677124,0.5454631447792053
1761131479160228000,9.47822802734375,-0.40463733673095703,-0.3476560115814209,0.3539891242980957
1761131479170229000,9.48822900390625,0.0476837158203125,-0.24607348442077637,0.00738389790058136
1761131479180228900,9.498228759765626,0.40477466583251953,-0.18684649467468262,-0.2996000051498413
1761131479190229000,9.50822900390625,0.6266975402832031,-0.18138718605041504,-0.37080487608909607
1761131479200228900,9.518228759765625,0.6274433135986328,-0.18326997756958008,-0.37014225125312805
1761131479210229000,9.52822900390625,0.7607717514038086,-0.24816179275512695,0.12673218548297882
1761131479220228900,9.538228759765625,0.8034353256225586,-0.1469745635986328,0.3757403492927551
1761131479230229000,9.54822900390625,0.7952890396118164,-0.1168522834777832,0.6534786224365234
1761131479240228900,9.558228759765624,0.7565746307373047,-0.16176462173461914,0.9020226001739502
1761131479250229000,9.56822900390625,0.822230339050293,-0.2301938533782959,1.032867431640625
1761131479260228900,9.578228759765626,1.0313177108764648,-0.23925495147705078,0.9871265292167664
1761131479270228000,9.58822802734375,1.2864875793457031,-0.16608190536499023,0.8323246240615845
1761131479280228000,9.59822802734375,1.5748634338378906,-0.08280563354492188,0.7899386286735535
1761131479290228000,9.60822802734375,1.7742433547973633,-0.0921030044555664,0.8561710715293884
1761131479300228000,9.61822802734375,1.8534774780273438,-0.11970353126525879,1.0168392658233643
1761131479310228000,9.62822802734375,1.9637269973754883,-0.15941882133483887,1.1260032653808594
1761131479320228000,9.63822802734375,2.1868724822998047,-0.14558196067810059,1.152961015701294
1761131479330228000,9.64822802734375,2.4880123138427734,-0.15209388732910156,1.0358245372772217
1761131479340227800,9.658227783203126,2.8228330612182617,-0.16840767860412598,0.8016277551651001
1761131479350228000,9.66822802734375,3.0464277267456055,-0.20555591583251953,0.5124542713165283
1761131479360227800,9.678227783203125,3.15032958984375,-0.32826805114746094,0.24980536103248596
1761131479370228700,9.688228759765625,3.121579170227051,-0.24657726287841797,0.25382018089294434
1761131479380228900,9.698228759765625,2.846970558166504,-0.7666716575622559,0.02551966905593872
1761131479390228700,9.708228759765625,2.7446975708007812,-0.6619172096252441,-0.007098287343978882
1761131479400228900,9.718228759765625,2.5693740844726562,-0.37935876846313477,-0.001919090747833252
1761131479410228700,9.728228759765624,2.3553953170776367,-0.04804539680480957,0.13709664344787598
1761131479420228900,9.738228759765626,1.9978885650634766,0.13498210906982422,0.5190356373786926
1761131479430228700,9.748228759765626,1.434483528137207,0.23519086837768555,1.2486193180084229
1761131479440228900,9.758228759765625,0.9015293121337891,0.22369909286499023,1.9292879104614258
1761131479450228700,9.768228759765625,0.44683837890625,0.21106767654418945,2.425231695175171
1761131479460228900,9.778228759765625,0.04907417297363281,0.14430713653564453,2.598233461380005
1761131479470228000,9.78822802734375,-0.25569820404052734,-0.024989604949951172,2.4512016773223877
1761131479480227800,9.798227783203124,-0.23731708526611328,-0.07582354545593262,2.4239678382873535
1761131479490228000,9.80822802734375,-0.5822153091430664,-0.5309991836547852,1.6362072229385376
1761131479500227800,9.818227783203126,-0.5730934143066406,-0.5554466247558594,1.6235344409942627
1761131479510228000,9.82822802734375,-1.0024662017822266,-0.8824219703674316,0.7871216535568237
1761131479520227800,9.838227783203125,-1.1680126190185547,-0.9805772304534912,0.41728389263153076
1761131479530228000,9.84822802734375,-1.372358798980713,-0.956475019454956,0.033365167677402496
1761131479540227800,9.858227783203125,-1.5914316177368164,-0.9240264892578125,-0.2550249993801117
1761131479550228000,9.86822802734375,-1.8209710121154785,-0.8012182712554932,-0.4986133575439453
1761131479560227800,9.878227783203124,-2.0383105278015137,-0.6338231563568115,-0.6160365343093872
1761131479570228700,9.888228759765624,-2.2907705307006836,-0.5146749019622803,-0.5728369951248169
1761131479580228900,9.898228759765624,-2.5594606399536133,-0.3694748878479004,-0.4623722732067108
1761131479590229000,9.90822900390625,-2.7948036193847656,-0.23996567726135254,-0.3363615870475769
1761131479600228900,9.918228759765626,-2.9525837898254395,-0.13273382186889648,-0.25816047191619873
1761131479610229000,9.92822900390625,-2.940659523010254,-0.025476932525634766,-0.324763685464859
1761131479620228900,9.938228759765625,-2.9327831268310547,-0.04628324508666992,-0.32384049892425537
1761131479630228000,9.94822802734375,-2.616197109222412,0.06824517250061035,-0.38483598828315735
1761131479640228000,9.95822802734375,-2.6137232780456543,0.06065034866333008,-0.3986828923225403
1761131479650228000,9.96822802734375,-2.1591644287109375,-0.013913393020629883,-0.13752755522727966
1761131479660228000,9.97822802734375,-1.8578777313232422,0.009020566940307617,-0.036109939217567444
1761131479670227200,9.988227294921876,-1.612205982208252,0.07135725021362305,-0.03092747926712036
1761131479680227000,9.99822705078125,-1.420607566833496,0.15933704376220703,-0.06923291087150574
1761131479690227200,10.008227294921875,-1.1581134796142578,0.2189953327178955,-0.10216420888900757
1761131479700227000,10.01822705078125,-1.1666526794433594,0.24192285537719727,-0.10228359699249268
1761131479710227200,10.028227294921875,-0.5553293228149414,0.2679605484008789,-0.18537014722824097
1761131479720227000,10.03822705078125,-0.4201326370239258,0.24034643173217773,-0.14620332419872284
1761131479730227200,10.048227294921874,-0.427490234375,0.2600994110107422,-0.15360848605632782
1761131479740227000,10.05822705078125,-0.2966289520263672,0.16049647331237793,-0.11591316759586334
1761131479750227200,10.068227294921876,-0.3001270294189453,0.17052197456359863,-0.11083893477916718
1761131479760227000,10.07822705078125,-0.2436370849609375,0.4351968765258789,-0.44247621297836304
1761131479770228000,10.08822802734375,-0.25615787506103516,0.6139411926269531,-0.6430379748344421
1761131479780228000,10.09822802734375,-0.42344093322753906,0.7655081748962402,-0.793695330619812
1761131479790228000,10.10822802734375,-0.6424417495727539,0.8321616649627686,-0.8578421473503113
1761131479800228000,10.11822802734375,-0.7794981002807617,0.8962905406951904,-0.9190092086791992
1761131479820228000,10.13822802734375,-0.8715620040893555,1.0666754245758057,-0.9816087484359741
1761131479830228000,10.14822802734375,-0.7594060897827148,1.0843350887298584,-0.8601632118225098
1761131479840228000,10.15822802734375,-0.5243549346923828,1.0520641803741455,-0.6407825350761414
1761131479850228000,10.16822802734375,-0.2877016067504883,0.9641101360321045,-0.48270750045776367
1761131479860228000,10.17822802734375,0.01903820037841797,0.9336283206939697,-0.45289796590805054
1761131479870227200,10.188227294921875,0.3790760040283203,0.9403834342956543,-0.4593173563480377
1761131479880227000,10.19822705078125,0.8553981781005859,0.9667918682098389,-0.42647236585617065
1761131479890227200,10.208227294921874,1.387578010559082,1.0167436599731445,-0.4275857210159302
1761131479900227000,10.21822705078125,1.884364128112793,1.0987675189971924,-0.5700903534889221
1761131479910227200,10.228227294921876,2.3950414657592773,1.1487913131713867,-0.7110382318496704
1761131479920227000,10.23822705078125,2.839230537414551,1.0164928436279297,-0.7074836492538452
1761131479930228000,10.24822802734375,3.372661590576172,0.650947093963623,-0.5929929614067078
1761131479940228000,10.25822802734375,3.9008607864379883,0.3383486270904541,-0.5614244341850281
1761131479950228000,10.26822802734375,4.228199005126953,0.08818292617797852,-0.689604640007019
1761131479960228000,10.27822802734375,4.119080543518066,-0.16102313995361328,-0.6636452674865723
1761131479970228700,10.288228759765625,3.686343193054199,-0.521796703338623,-0.42863449454307556
1761131479980228900,10.298228759765625,3.1818323135375977,-0.7413597106933594,-0.17321893572807312
1761131479990229000,10.30822900390625,2.6789045333862305,-0.6115777492523193,-0.10099747776985168
1761131480000228900,10.318228759765624,2.0268993377685547,-0.32236480712890625,-0.16817161440849304
1761131480010229000,10.32822900390625,1.433420181274414,0.09469413757324219,-0.3919011652469635
1761131480020228900,10.338228759765625,1.0857267379760742,0.4627871513366699,-0.5751129388809204
1761131480030229000,10.34822900390625,0.8104057312011719,0.6229038238525391,-0.7059520483016968
1761131480040228900,10.358228759765625,0.6634454727172852,0.5936639308929443,-0.6367148160934448
1761131480050229000,10.36822900390625,0.6680135726928711,0.33034324645996094,-0.2649499475955963
1761131480060228900,10.378228759765625,0.7503089904785156,-0.026707887649536133,0.22981007397174835
1761131480070228000,10.38822802734375,0.9673032760620117,-0.3757669925689697,0.6392248868942261
1761131480080228000,10.39822802734375,1.1665735244750977,-0.6519906520843506,1.0913128852844238
1761131480090228000,10.40822802734375,1.2088813781738281,-0.8693661689758301,1.4584732055664062
1761131480100228000,10.41822802734375,0.9987173080444336,-1.0236561298370361,1.7532925605773926
1761131480110228000,10.42822802734375,0.5408868789672852,-1.1084842681884766,1.9049453735351562
1761131480120228000,10.43822802734375,-0.03803539276123047,-1.0902042388916016,1.8017512559890747
1761131480130228000,10.44822802734375,-0.030445098876953125,-1.111372709274292,1.829503059387207
1761131480140228000,10.45822802734375,-1.2559490203857422,-0.9150404930114746,0.8375223278999329
1761131480150228000,10.46822802734375,-1.7754254341125488,-0.8828105926513672,0.37844833731651306
1761131480160228000,10.47822802734375,-2.244335651397705,-0.9198417663574219,-0.006734311580657959
1761131480170228700,10.488228759765626,-2.729188919067383,-1.024698257446289,-0.2599101662635803
1761131480180228900,10.498228759765626,-3.2432808876037598,-1.0932316780090332,-0.398568332195282
1761131480190228700,10.508228759765625,-3.2099499702453613,-1.1737446784973145,-0.3834359347820282
1761131480200228900,10.518228759765625,-3.792637825012207,-1.0238888263702393,-0.3836857080459595
1761131480210228700,10.528228759765625,-3.925429344177246,-0.936262845993042,-0.2678465247154236
1761131480220228900,10.538228759765625,-3.9093475341796875,-0.8281369209289551,-0.12455117702484131
1761131480230228700,10.548228759765625,-3.7576193809509277,-0.7209694385528564,0.019741572439670563
1761131480240228900,10.558228759765624,-3.475832939147949,-0.6539821624755859,0.17902925610542297
1761131480250228700,10.568228759765624,-3.1737236976623535,-0.6114983558654785,0.3790814280509949
1761131480260228900,10.578228759765626,-2.8528037071228027,-0.5835485458374023,0.5156450271606445
1761131480270228000,10.58822802734375,-2.471663475036621,-0.5525798797607422,0.4947502315044403
1761131480280228000,10.59822802734375,-2.058102607727051,-0.5182528495788574,0.37033843994140625
1761131480290228000,10.60822802734375,-1.6233959197998047,-0.49887657165527344,0.18645504117012024
1761131480300228000,10.61822802734375,-1.1448254585266113,-0.5114727020263672,-0.0527922660112381
1761131480310228000,10.62822802734375,-0.7910118103027344,-0.5017223358154297,-0.2344207614660263
1761131480320228000,10.63822802734375,-0.47182750701904297,-0.47556376457214355,-0.4261980652809143
1761131480330228000,10.64822802734375,-0.21255016326904297,-0.4067866802215576,-0.5877692103385925
1761131480340228000,10.65822802734375,-0.045905113220214844,-0.2949063777923584,-0.7245539426803589
1761131480350228000,10.66822802734375,0.08118629455566406,-0.15289926528930664,-0.7842573523521423
1761131480360228000,10.67822802734375,0.04854297637939453,-0.11223006248474121,-0.6426762342453003
1761131480370229000,10.68822900390625,-0.09063434600830078,-0.07741618156433105,-0.4603959023952484
1761131480380228900,10.698228759765625,-0.19362354278564453,-0.05101728439331055,-0.22545835375785828
1761131480390229000,10.70822900390625,-0.1897268295288086,-0.09733152389526367,0.11816543340682983
1761131480400228900,10.718228759765625,-0.0973052978515625,-0.1498265266418457,0.41142287850379944
1761131480410229000,10.72822900390625,0.20367717742919922,0.005280017852783203,0.6441086530685425
1761131480420228900,10.738228759765626,0.6409425735473633,0.23409366607666016,0.6902556419372559
1761131480430229000,10.74822900390625,1.188624382019043,0.20191192626953125,0.7718661427497864
1761131480440228900,10.758228759765625,1.180368423461914,0.2333536148071289,0.6752861738204956
1761131480450229000,10.76822900390625,2.4337339401245117,-0.33641695976257324,1.3185429573059082
1761131480460228900,10.778228759765625,2.8217010498046875,-0.6498432159423828,1.664811372756958
1761131480470228000,10.78822802734375,2.9573678970336914,-0.8300085067749023,2.038208246231079
1761131480480228000,10.79822802734375,2.948331832885742,-0.8395557403564453,2.21303129196167
1761131480490228000,10.80822802734375,3.021087646484375,-0.676354169845581,2.1223065853118896
1761131480500228000,10.81822802734375,3.277653694152832,-0.38564562797546387,1.7481569051742554
1761131480510228000,10.82822802734375,3.516002655029297,-0.06477189064025879,1.2193825244903564
1761131480520228000,10.83822802734375,3.4997053146362305,-0.024404525756835938,1.2221951484680176
1761131480530228000,10.84822802734375,3.3577518463134766,-0.14050960540771484,1.0900254249572754
1761131480540228000,10.85822802734375,3.0487289428710938,-0.4406874179840088,1.3958430290222168
1761131480550228000,10.86822802734375,2.688626289367676,-0.5982708930969238,1.561611294746399
1761131480560228000,10.87822802734375,2.2907352447509766,-0.4921092987060547,1.5306793451309204
1761131480570229000,10.88822900390625,1.8744068145751953,-0.2650265693664551,1.3951988220214844
1761131480580228900,10.898228759765624,1.397700309753418,0.006911754608154297,1.3244315385818481
1761131480590229000,10.90822900390625,0.7903709411621094,0.1669907569885254,1.354252815246582
1761131480600228900,10.918228759765626,0.2725868225097656,0.26799774169921875,1.4201157093048096
1761131480610229000,10.92822900390625,-0.10095024108886719,0.3115854263305664,1.4497867822647095
1761131480620228900,10.938228759765625,-0.39139747619628906,0.2750234603881836,1.368708848953247
1761131480630229000,10.94822900390625,-0.3825817108154297,0.24839115142822266,1.3906829357147217
1761131480640228900,10.958228759765625,-0.8475580215454102,-0.08511018753051758,0.93517005443573
1761131480650229000,10.96822900390625,-0.9672212600708008,-0.3191344738006592,0.620926558971405
1761131480660228900,10.978228759765624,-1.0012016296386719,-0.4376189708709717,0.3215755820274353
1761131480680228000,10.99822802734375,-0.9713802337646484,-0.4772779941558838,-0.1388738453388214
1761131480690228000,11.00822802734375,-0.9598150253295898,-0.47930240631103516,-0.2839895486831665
1761131480700228000,11.01822802734375,-1.0037899017333984,-0.41277337074279785,-0.39239612221717834
1761131480710228000,11.02822802734375,-1.1948423385620117,-0.45921921730041504,-0.49236857891082764
1761131480720228000,11.03822802734375,-1.4645590782165527,-0.4546034336090088,-0.5268465280532837
1761131480730228000,11.04822802734375,-1.783236026763916,-0.4710202217102051,-0.6027175188064575
1761131480740228000,11.05822802734375,-1.7864527702331543,-0.46660542488098145,-0.5363174676895142
1761131480750228000,11.06822802734375,-2.4103612899780273,-0.3165409564971924,-0.783576488494873
1761131480760228000,11.07822802734375,-2.664313316345215,-0.08388710021972656,-0.874426543712616
1761131480770229000,11.08822900390625,-2.8414998054504395,0.11924099922180176,-0.9833058714866638
1761131480780228900,11.098228759765625,-2.8474154472351074,0.2766988277435303,-1.0056190490722656
1761131480790229000,11.10822900390625,-2.838773250579834,0.2544717788696289,-0.9765024185180664
1761131480800228900,11.118228759765625,-2.5958199501037598,0.36002254486083984,-0.7693320512771606
1761131480810229000,11.12822900390625,-2.5067830085754395,0.31398940086364746,-0.5870018005371094
1761131480820228900,11.138228759765624,-2.361145496368408,0.22935962677001953,-0.457194983959198
1761131480830229000,11.14822900390625,-2.1886796951293945,0.2190265655517578,-0.43783313035964966
1761131480840228900,11.158228759765626,-1.9917511940002441,0.2207489013671875,-0.5020822882652283
1761131480850229000,11.16822900390625,-1.7853279113769531,0.29586029052734375,-0.5473580360412598
1761131480860228900,11.178228759765625,-1.4599404335021973,0.39098310470581055,-0.6171736121177673
1761131480870228000,11.18822802734375,-1.0667333602905273,0.5035996437072754,-0.7904859185218811
1761131480880228000,11.19822802734375,-0.6014547348022461,0.5347499847412109,-0.8796612620353699
1761131480890228000,11.20822802734375,-0.07075309753417969,0.4594724178314209,-0.8997310996055603
1761131480900228000,11.21822802734375,0.42118263244628906,0.3971433639526367,-0.9269781708717346
1761131480910228000,11.22822802734375,0.7396965026855469,0.31914687156677246,-0.970187783241272
1761131480920228000,11.23822802734375,0.9110183715820312,0.2791635990142822,-1.0768975019454956
1761131480930228000,11.24822802734375,1.049302101135254,0.363788366317749,-1.2865135669708252
1761131480940228000,11.25822802734375,1.1322145462036133,0.4969296455383301,-1.5724208354949951
1761131480950228000,11.26822802734375,1.0525789260864258,0.5837070941925049,-1.7142350673675537
1761131480960228000,11.27822802734375,0.9278221130371094,0.6281599998474121,-1.8371609449386597
1761131480970228700,11.288228759765625,0.8530950546264648,0.6481201648712158,-1.9307210445404053
1761131480980228900,11.298228759765625,0.9129514694213867,0.6761939525604248,-1.937827467918396
1761131480990228700,11.308228759765624,1.2176733016967773,0.7082970142364502,-1.9547754526138306
1761131481000228900,11.318228759765624,1.4898405075073242,0.6106967926025391,-1.936293125152588
1761131481010228700,11.328228759765626,1.6157464981079102,0.37941741943359375,-1.722089409828186
1761131481020228900,11.338228759765625,1.5887870788574219,0.20837783813476562,-1.3630740642547607
1761131481030228700,11.348228759765625,1.543776512145996,0.1974935531616211,-1.070525884628296
1761131481040228900,11.358228759765625,1.495091438293457,0.42598390579223633,-0.9237989187240601
1761131481050228700,11.368228759765625,1.312932014465332,0.8039653301239014,-0.9405950307846069
1761131481070228000,11.38822802734375,1.6287879943847656,0.9641571044921875,-0.8622945547103882
1761131481080228000,11.39822802734375,2.234103202819824,0.8356387615203857,-0.9897473454475403
1761131481090228000,11.40822802734375,2.869931221008301,0.673377513885498,-1.2895842790603638
1761131481100228000,11.41822802734375,3.0511245727539062,0.14951825141906738,-1.2136352062225342
1761131481110228000,11.42822802734375,2.8366165161132812,-0.7012753486633301,-0.7328696846961975
1761131481120228000,11.43822802734375,2.4313249588012695,-1.2783987522125244,-0.2192651927471161
1761131481130228000,11.44822802734375,1.978693962097168,-1.4648361206054688,-0.14065131545066833
1761131481140227800,11.458227783203125,1.4831047058105469,-1.3187915086746216,-0.38140296936035156
1761131481150228000,11.46822802734375,1.07086181640625,-0.76896071434021,-0.6780532598495483
1761131481160227800,11.478227783203126,0.8926267623901367,-0.06014227867126465,-1.1144509315490723
1761131481170228700,11.488228759765626,0.9378042221069336,0.6994531154632568,-1.4924216270446777
1761131481180228900,11.498228759765626,1.2514619827270508,1.0074961185455322,-1.6150856018066406
1761131481190229000,11.50822900390625,1.447366714477539,0.8177094459533691,-1.384413480758667
1761131481200228900,11.518228759765625,1.4333295822143555,0.1389760971069336,-0.6644892692565918
1761131481210229000,11.52822900390625,1.1262702941894531,-0.6758012771606445,0.21174664795398712
1761131481220228900,11.538228759765625,0.5496835708618164,-1.2271686792373657,0.8087546825408936
1761131481230229000,11.54822900390625,0.532867431640625,-1.1864441633224487,0.6498005390167236
1761131481240229000,11.55822900390625,-0.3420095443725586,-1.7580161094665527,1.0239310264587402
1761131481250229000,11.56822900390625,0.7634525299072266,-2.029050350189209,1.37385892868042
1761131481260229000,11.57822900390625,1.4810361862182617,-1.7183620929718018,1.714903473854065
1761131481270228200,11.588228271484375,1.6730947494506836,-1.3657554388046265,1.5905200242996216
1761131481280228000,11.59822802734375,1.6591682434082031,-1.3123422861099243,1.707406759262085
1761131481290228200,11.608228271484375,0.7752161026000977,-0.6097545623779297,-0.5830332636833191
1761131481300228000,11.61822802734375,-0.20040130615234375,-0.622992753982544,-1.2032127380371094
1761131481310228200,11.628228271484375,-1.1523008346557617,-0.8336260318756104,-1.2560453414916992
1761131481320228000,11.63822802734375,-1.9144783020019531,-1.034079909324646,-0.9743354320526123
1761131481330228200,11.648228271484374,-2.3226780891418457,-1.3491684198379517,-0.44319820404052734
1761131481340228000,11.65822802734375,-2.6814985275268555,-1.4735618829727173,-0.10040542483329773
1761131481350228200,11.668228271484375,-3.1816720962524414,-1.3707667589187622,-0.36648887395858765
