time,seconds_elapsed,z,y,x
1761129531785144800,0.105144775390625,-0.024663316613435744,-0.02057556552590104,-0.015438593079801648
1761129531804989700,0.12498974609375,-0.017330489507317543,0.0014218061141786165,-0.00890105252873036
1761129531824834800,0.144834716796875,-0.012690554746985435,-0.002268198377022054,0.018375224203721154
1761129531844680000,0.164679931640625,-0.0028133038550615308,0.008541940317687112,0.026065148518665225
1761129531864525800,0.18452587890625,-0.0074514850497245785,0.0016249069212470203,-0.0001250266064220341
1761129531884370700,0.20437060546875,-0.015830606338381768,-0.005243177333509083,-0.016206111420155503
1761129531904215800,0.2242158203125,-0.00819908854663372,-0.01206343354129931,-0.0016073547107138438
1761129531924060400,0.244060302734375,-0.006851181069016456,0.006555307961557991,0.016513822237524435
1761129531943906300,0.26390625,-0.008196750459074973,0.010055488969082944,0.006311306605231948
1761129531963751400,0.28375146484375,-0.00518704724907875,-0.006990103199228178,0.014425527596718165
1761129531983596300,0.30359619140625,-0.019539397728443146,0.003710234428476542,0.003858512904678355
1761129532003441400,0.32344140625,-0.010123334607481957,0.008167369100963696,0.0005940247942657151
1761129532023286300,0.343286376953125,-0.003852583774924278,0.0035577723966795016,0.01098007473440375
1761129532043132400,0.36313232421875,-0.015370003089308738,-0.003538270828477107,0.010460535239172168
1761129532062977300,0.382977294921875,-0.01177753155529499,0.008845295761991293,-0.0021599916163046145
1761129532082822400,0.402822509765625,-0.004746902266144752,0.0037950745841604655,-0.0024248274105717425
1761129532102667300,0.422667236328125,-0.011332125875353812,0.0065849427647073746,0.00549026683770935
1761129532122512400,0.442512451171875,-0.008788286611437797,-0.002061932931910269,0.000120313898686436
1761129532142358300,0.462358154296875,0.002583586752414703,-0.001017798740416765,0.01605633681907784
1761129532162203400,0.482203369140625,-0.011333879441022873,0.006429690554202534,0.00831420568039466
1761129532182048300,0.50204833984375,-0.007893968120217323,-0.007977182574395555,0.006454694277184899
1761129532201893400,0.521893310546875,0.0036287118911743164,-0.0065837737209280016,-0.018510183686512756
1761129532221739300,0.5417392578125,-0.005797872623801231,0.008171632000838872,-0.004151705431283335
1761129532241584400,0.56158447265625,-0.005948094749450683,0.00488633585300995,0.020256030698353425
1761129532261429200,0.58142919921875,-0.0011579378634691238,0.0004213192681665532,-0.0023612406762928
1761129532281274400,0.6012744140625,-0.003402501919865608,0.0001683834034251049,-0.009006329259311314
1761129532301120300,0.621120361328125,-0.00789279907643795,-0.005562433599843643,0.00009551738414738792
1761129532320965400,0.64096533203125,-0.00490121604502201,0.0038853010177263055,0.0016712987796636298
1761129532340810200,0.660810302734375,-0.0032552024036645887,0.006458044432429596,0.008189846935897367
1761129532360655400,0.6806552734375,0.0019815292060375213,0.007582029793947003,-0.00455044297488348
1761129532380500200,0.700500244140625,-0.0077437459945678706,-0.004365109007479623,-0.008176715172154944
1761129532400346400,0.720346435546875,-0.0005617255359888076,-0.0010068823374691418,-0.0009663402645266614
1761129532420191200,0.740191162109375,-0.004751578441262245,0.0004424625208950601,0.009264021785094518
1761129532440036400,0.760036376953125,-0.014778466936945914,0.002321684413217008,-0.004682021478033857
1761129532459881200,0.779881103515625,-0.015527239477634429,-0.008928882392216474,-0.004020421472366433
1761129532479727400,0.799727294921875,-0.00011456629037857055,-0.0103779327063472,-0.006295710031411727
1761129532499572200,0.819572265625,-0.0011614449948072433,-0.0007491081841173581,-0.00036851193951733873
1761129532519417300,0.839417236328125,-0.012234627673029899,0.002128849271836225,0.00538094469049538
1761129532539262200,0.85926220703125,-0.006996727019548415,-0.013058751021849457,0.008793154582800344
1761129532559108400,0.8791083984375,-0.0031061493217945098,-0.007750931503891479,0.002752241867186967
1761129532578953200,0.898953125,0.0004851531684398651,-0.00612933306787163,-0.008870658532110973
1761129532598798300,0.91879833984375,-0.004154197070002556,0.002145323199313134,0.01098119354583323
1761129532618643200,0.938643310546875,-0.0032552024036645887,-0.0006327563620288855,0.005176435094341287
1761129532638488300,0.95848828125,-0.008940846824645996,0.0027038955137017183,0.005404484825464896
1761129532658334200,0.978334228515625,-0.0013099135547876358,0.004083330640743952,-0.013892061182478209
1761129532678179300,0.998179443359375,0.004077040180563926,0.002298572965688072,-0.0074126577265444206
1761129532698024200,1.018024169921875,0.001982113727927208,0.0003637826779391616,-0.0000992813854565611
1761129532717869300,1.037869384765625,0.002730301746726036,0.002163399995409418,0.003390236093336716
1761129532737715200,1.057715087890625,0.0003355155646800995,0.0014207649345626123,-0.002323584680180647
1761129532757560300,1.077560302734375,-0.005801379755139351,-0.001169952528248541,-0.005519543735365732
1761129532777405200,1.0974052734375,-0.009841010534763335,0.017892082612565717,0.00334187261518673
1761129532797250300,1.117250244140625,-0.000713116705417633,-0.0014893343754578381,0.004103451550987665
1761129532817096200,1.13709619140625,-0.0011620295166969298,-0.005995566603390034,-0.0035034541017783336
1761129532836941300,1.15694140625,-0.006250292566418647,0.006633736642764415,0.0066208366328181
1761129532856786200,1.1767861328125,0.004223755174875259,-0.007785171700210776,-0.005355498580340645
1761129532876631300,1.19663134765625,-0.00789630620777607,-0.010391180346987675,-0.005060852740521659
1761129532896477200,1.216477294921875,-0.003706453302502632,-0.00653505062481854,0.005484756120597012
1761129532916322300,1.236322265625,0.0019797756403684614,-0.007597332394355907,0.007249189101898809
1761129532936167400,1.25616748046875,-0.0026595745980739593,0.0014886128562502563,-0.0005322482797550037
1761129532956012500,1.276012451171875,0.004223755174875259,-0.007591971232648939,-0.007574656484133447
1761129532975857400,1.295857421875,-0.007597031000256538,0.002347040333470795,-0.0014337100394594016
1761129532995703600,1.31570361328125,-0.00684884298145771,0.0024847728703054598,0.0021983548610704016
1761129533015548400,1.33554833984375,-0.004903554132580757,0.0006035941996262408,0.0038083656072849404
1761129533035393500,1.3553935546875,0.001381225225329399,-0.0050786230051191525,0.001733650825615041
1761129533055238400,1.37523828125,0.005571078130602836,0.00003447994162561372,-0.001633807751155109
1761129533075084500,1.39508447265625,0.006019990941882133,-0.0024892800820642148,-0.004127069317770656
1761129533094929400,1.414929443359375,-0.0013128361642360687,-0.0008651677452609874,-0.004172022133527207
1761129533114774500,1.4347744140625,-0.010440729993581772,-0.00931604822903173,0.009604730118945007
1761129533134619400,1.454619384765625,-0.005651742151379585,0.003004131985735148,-0.009918372920178808
1761129533154465500,1.474465576171875,-0.004904138654470444,0.0008556441483786329,0.002427043342188699
1761129533174310400,1.494310302734375,0.010958031865954398,-0.009745879597216844,-0.0027706503109569893
1761129533194155500,1.514155517578125,-0.0099906481385231,0.0017471952937776222,0.0018520205040316795
1761129533214000400,1.53400048828125,-0.001911386579275131,0.004202808284969069,0.0008397136435960419
1761129533233845500,1.553845458984375,-0.0005640636235475539,-0.006731742240698077,0.00017293342684570234
1761129533253691400,1.57369140625,0.0030272388666868206,-0.00328276398073649,0.0032309841319714903
1761129533273536500,1.59353662109375,-0.002658405554294586,-0.0024997078612446783,0.0007976137969846604
1761129533293381400,1.61338134765625,0.011855857488512991,-0.0021114026634022594,-0.0016542500342737183
1761129533313226500,1.6332265625,0.007666589105129242,-0.0008525502922828308,0.0065256982745835555
1761129533333072400,1.653072265625,-0.003855506384372711,-0.00820656403361354,0.009782050314074149
1761129533352917500,1.67291748046875,0.0034767361998558045,0.0014807355104712767,0.004657725574527285
1761129533372762400,1.692762451171875,-0.006100070440769195,-0.007353917843208182,-0.0022782317180914105
1761129533392607500,1.712607421875,-0.002359130346775055,0.0034170053692534562,0.00348937020667654
1761129533412453400,1.732453369140625,0.0030278233885765076,-0.005625402133725583,0.0023985690204863202
1761129533432298500,1.752298583984375,-0.007147533667087555,-0.0006798423401894978,-0.0027000167771388077
1761129533452143400,1.772143310546875,-0.008493687579035758,0.0013583238403545692,-0.00021301370466244405
1761129533471988500,1.791988525390625,-0.000713116705417633,0.009682826581655535,-0.002559427275403868
1761129533491833300,1.811833251953125,-0.0008627543091773986,-0.006169982455379795,0.008225217930911457
1761129533511679500,1.831679443359375,-0.007446224352717399,0.004175481886626221,0.00009972548509540502
1761129533531524400,1.8515244140625,0.00452478394806385,-0.00006898043284891172,0.005524269572010962
1761129533551369500,1.871369384765625,-0.0034060090512037277,0.0004031397240818478,0.008570263371517648
1761129533571214300,1.89121435546875,-0.000862169787287712,-0.004226835331239272,-0.001707583660952514
1761129533591060700,1.911060791015625,-0.005201660296320915,0.0020337548669078385,-0.0019113734503654995
1761129533610905300,1.9309052734375,0.0015320318728685378,-0.006773325493256561,0.004510171471643843
1761129533630750500,1.95075048828125,0.0024304420173168182,0.005510201089107431,0.004226993448977009
1761129533650595300,1.97059521484375,0.0004851531684398651,-0.0050229153290856626,0.005675056811596732
1761129533670441700,1.990441650390625,-0.0016103578060865402,-0.004346899780642706,-0.009403214485009083
1761129533690286600,2.01028662109375,0.0021305822879076003,0.00392645272873342,0.0019704706683725814
1761129533710131500,2.03013134765625,0.00018529343903064726,-0.0029558586974861097,0.009733103455678791
1761129533729976300,2.049976318359375,-0.0004132569760084152,-0.0005605633420753293,-0.003488155497124535
1761129533749822700,2.06982275390625,0.00018529343903064726,-0.0008009342694771475,-0.004415737507952144
1761129533769667600,2.08966748046875,0.003477320721745491,-0.006115236043860204,-0.0021494154233630976
1761129533789512700,2.1095126953125,-0.004602525359392166,-0.004023540444637183,0.008491369470252539
1761129533809357300,2.129357421875,0.0049742812812328336,-0.007267725980654358,-0.003982381312942015
1761129533829202400,2.149202392578125,-0.006547814208269119,0.003517100176285021,0.01039451509003411
1761129533849048600,2.169048583984375,-0.0026566519886255264,-0.003437566383380908,0.004862782018308644
1761129533868893700,2.188893798828125,0.0018324761241674422,-0.0037314164971117857,-0.00285514911499049
1761129533888738600,2.208738525390625,-0.005051438170671462,0.003570773442147765,0.0009354953184025362
1761129533908583400,2.22858349609375,-0.000412087932229042,-0.005301159165019635,0.0014427484375075436
1761129533928429300,2.24842919921875,0.003329436683654785,0.0059530357860494406,-0.0010063634601276134
1761129533948274400,2.2682744140625,0.009463993915915488,-0.011156867489858996,0.005816197156714042
1761129533968119300,2.288119384765625,0.004077040180563926,0.0041457740182406265,-0.007635413652975694
1761129533987964400,2.30796435546875,-0.0102870007365942,0.0035341974415583535,0.0008845899691834346
1761129534007810300,2.327810302734375,0.004676175117492676,-0.0035275530716404315,0.002778576747441548
1761129534027655400,2.347655517578125,-0.007295417705178261,0.0023750722680008036,-0.002342583924884093
1761129534047500300,2.367500244140625,0.002880523872375488,-0.00035215388893848284,0.0028854786087060347
1761129534067345400,2.387345458984375,-0.012383096233010291,-0.0029741250065388157,-0.016323719050991347
1761129534087190300,2.407190185546875,-0.010138532176613807,-0.0012405906286439858,0.002925516645683092
1761129534107036400,2.427036376953125,-0.009689619365334511,-0.0038518622557166962,0.006489843793201725
1761129534126881300,2.44688134765625,0.0024310265392065047,-0.0001432261292822659,0.0037731567257636924
1761129534146726400,2.466726318359375,-0.0037041152149438856,-0.00856245109946467,0.008309980454781906
1761129534166571300,2.4865712890625,0.0006353752940893173,0.00012200524474028497,-0.006497928347424022
1761129534186417400,2.50641748046875,-0.0037041152149438856,0.0020653281821054405,-0.0010869795318430987
1761129534206262300,2.52626220703125,-0.009389759635925293,-0.0025589455015026033,-0.000962954718308174
1761129534226107400,2.546107421875,0.0018330606460571289,-0.003387080588447861,0.0014415411486435913
1761129534245952300,2.5659521484375,0.0031797990798950195,0.0009722014664439484,0.008799169335878104
1761129534265798400,2.58579833984375,-0.0028057050704956054,0.004421469704061746,-0.004313105396428727
1761129534285643300,2.605643310546875,0.003927987098693847,0.0025394416500115766,-0.0027730277852446306
1761129534305488400,2.62548828125,0.0016828385204076767,-0.006448370138497557,0.008631452652733422
1761129534325333200,2.645333251953125,-0.0019078794479370116,-0.0011859309820923954,0.0007297213511687005
1761129534345178400,2.665178466796875,-0.008640987095236778,0.0024067049487028268,0.004930460405815393
1761129534365024300,2.685024169921875,-0.005648819541931152,-0.0000026691644103266295,-0.002943809783377219
1761129534384869400,2.704869384765625,0.00542494765818119,-0.006113007554155774,0.002990271282097092
1761129534404714200,2.72471435546875,-0.005050269126892089,0.0051311569099547335,0.0013151154571125515
1761129534424559400,2.744559326171875,-0.002357376781105995,0.008224709328368772,-0.0006128786220244365
1761129534444405200,2.7644052734375,-0.006098316875100135,0.0012675745336920953,-0.005907091452204622
1761129534464250400,2.78425048828125,0.006770517048239708,0.0008264637196669355,-0.0007102386200975161
1761129534484095200,2.80409521484375,-0.004900631523132324,-0.008076724825578276,-0.011845023283956107
1761129534503940400,2.8239404296875,0.0006359598159790038,-0.004074416681926232,-0.001932424800726585
1761129534523786200,2.8437861328125,-0.004451718711853027,-0.0013293443410424515,-0.0025182709978194906
1761129534543631400,2.86363134765625,-0.0007113631397485733,0.003964366736460942,0.0006270253075635992
1761129534563476200,2.883476318359375,0.00258066414296627,0.004388848359382245,-0.0019676245490933067
1761129534583321300,2.9033212890625,-0.009390928679704666,0.00036681031866464764,0.004780901575513417
1761129534603166500,2.92316650390625,-0.011634908214211464,0.003824898900266271,-0.007274283014782122
1761129534623012400,2.943012451171875,0.00886485897898674,0.004690790448023472,-0.006700826512626372
1761129534642857200,2.962857177734375,-0.0005623100578784942,-0.0003195576604339294,-0.008471802257501986
1761129534662702300,2.982702392578125,0.00497486580312252,-0.0048200999330962075,0.0033038712716690496
1761129534682547500,3.00254736328125,-0.010138532176613807,0.003225955759582575,0.004093461021580151
1761129534702393300,3.022393310546875,-0.010886135673522949,-0.008323230949533172,0.002819143936558976
1761129534722238200,3.04223828125,-0.005201075774431229,-0.007233691280311904,0.002662891645633499
1761129534742083300,3.062083251953125,-0.004901800566911697,0.005709671467251609,-0.010295673808461287
1761129534761928200,3.08192822265625,0.0018324761241674422,-0.00443892772893887,0.007257921539270319
1761129534781774300,3.1017744140625,0.00003682487905025482,0.00705219723356422,0.0016929637638444545
1761129534801619200,3.121619140625,0.002729717224836349,-0.002112774919869844,-0.004994961026369128
1761129534821464300,3.14146435546875,-0.013282090899348259,-0.0005391894771950319,-0.004497591692928108
1761129534841309200,3.16130908203125,-0.018519407030940054,-0.0015678498216322623,0.004866232638253132
1761129534861154300,3.181154296875,-0.0016103578060865402,-0.0007957009719335474,-0.00003705377873557154
1761129534881000200,3.201000244140625,-0.007445639830827713,-0.0011521748429629951,0.007324341263918904
1761129534900845300,3.22084521484375,0.0028799393504858016,0.0015552346519427374,0.0020230325434939
1761129534920690200,3.240690185546875,0.0018330606460571289,0.001631457676331047,-0.018920073953433893
1761129534940535600,3.26053564453125,0.0037789340168237684,-0.002866933738440275,0.0035156268842954884
1761129534960381700,3.280381591796875,-0.00026128128468990325,-0.002199434856593143,-0.013500361876084934
1761129534980226800,3.300226806640625,-0.001757072800397873,0.002700730875658337,0.004701701142749516
1761129535000071700,3.32007177734375,-0.0004103343665599823,0.004359903109399601,-0.004567244554279023
1761129535019916500,3.33991650390625,0.0007867664635181426,-0.00018326587872579693,-0.006827969727609888
1761129535039762700,3.3597626953125,0.0022831425011157988,-0.002935062504629604,0.0006616702167928451
1761129535059607800,3.37960791015625,-0.005198737686872482,-0.001250353970832657,0.007085948806116357
1761129535079452700,3.39945263671875,-0.00460018727183342,-0.0005481559516512789,-0.008746274100616574
1761129535099297800,3.4192978515625,0.005575169783830642,0.005439357492735143,-0.0003167435071954969
1761129535119143700,3.439143798828125,0.004677928683161735,-0.005432943734969012,-0.007629243636270985
1761129535138988800,3.45898876953125,-0.003402501919865608,0.006191703380132094,0.00033848269825684837
1761129535158833700,3.478833740234375,-0.006095978787541389,-0.008222088113019709,0.0057224356215243456
1761129535178678800,3.4986787109375,0.000039162966609001156,-0.0001458587610744871,0.005471971987548749
1761129535198523600,3.518523681640625,0.008119593569636345,-0.00538098521886859,-0.00263401831924275
1761129535218369800,3.538369873046875,-0.010585106900334358,-0.0019761817440623417,0.002695501003047684
1761129535238214700,3.558214599609375,0.0037801030606031414,-0.004007201231189537,-0.003666712663869839
1761129535258059800,3.578059814453125,-0.0020557634860277176,-0.004302804910589475,-0.007448600114538567
1761129535277904600,3.597904541015625,-0.007443886265158653,0.0014439562971936537,-0.00012547470181598327
1761129535297750800,3.617750732421875,0.0051256724506616586,-0.0016047363494755698,-0.00719829688158934
1761129535317595600,3.637595703125,0.0024321955829858777,-0.0016214408891042694,0.0020538603649532887
1761129535337440800,3.657440673828125,0.007968786922097206,-0.0009082077359664253,0.0073718781915842555
1761129535357285600,3.67728564453125,-0.001757072800397873,-0.007433616032893769,-0.0009475670653977431
1761129535377130800,3.697130859375,-0.005348375290632247,-0.004415834547718987,-0.004008904564508703
1761129535396976600,3.7169765625,-0.006095978787541389,0.0013802867937018162,0.004507405838288832
1761129535416821800,3.73682177734375,-0.008040683114528656,-0.002792932353890501,-0.014292664172890362
1761129535436666600,3.75666650390625,-0.005496259328722953,-0.0014051632233429698,-0.003798864843288902
1761129535456511700,3.77651171875,0.0021352584630250928,0.00040269448279868806,-0.0017578514018212444
1761129535476357600,3.796357666015625,-0.004149520894885063,0.004161983084236272,-0.007246836172963958
1761129535496202800,3.81620263671875,-0.0026537293791770934,0.007668589265970513,-0.004326750900113256
1761129535516047600,3.836047607421875,0.001087210714817047,-0.0036791680033551525,-0.0015807469774677882
1761129535535892700,3.855892822265625,-0.012230536019802092,-0.0037261512335273433,0.0057501792908646165
1761129535555738600,3.875738525390625,-0.0029530045866966244,0.0035505480714491566,-0.0002894582080480177
1761129535575583700,3.895583740234375,0.000339022696018219,0.00027885804057586937,-0.005604706405568868
1761129535595428600,3.9154287109375,-0.0063946694731712335,-0.004741856198268942,-0.012057185321958968
1761129535615273700,3.935273681640625,0.0013864859223365782,0.0059459324751165695,-0.0068605094447208095
1761129535635118800,3.955118896484375,-0.0062444473475217815,-0.00790943283411907,-0.010398332748626126
1761129535654964700,3.97496484375,-0.009985971963405608,0.0007301249224343336,-0.0025218557609710843
1761129535674809600,3.9948095703125,0.009915829336643218,-0.000772591807693243,-0.005461063576111337
1761129535694654700,4.01465478515625,0.00003974748849868774,-0.000869300497684162,-0.0123059781594784
1761129535714499600,4.03449951171875,-0.009088730862736701,-0.00005062050896231085,0.0033448043577896896
1761129535734345700,4.054345703125,-0.012380758145451545,-0.0055501289574080145,-0.009584399716969345
1761129535754190600,4.074190673828125,0.005275894576311111,0.005373770026792772,-0.0037100095245463306
1761129535774035700,4.09403564453125,-0.007144026535749435,-0.006763769930333364,-0.006481697019364218
1761129535793880600,4.113880615234375,0.004676759639382362,-0.006969606117182411,-0.000104516395466635
1761129535813726700,4.133726806640625,0.0007855974197387695,0.003537078951811418,0.006246105015068315
1761129535833571600,4.153571533203125,-0.00116027595102787,-0.0025033725394983776,0.0035068105360667686
1761129535853416700,4.173416748046875,-0.0008610007435083389,-0.0022498019205173477,-0.005433764577232068
1761129535873261600,4.193261474609375,-0.004303250151872635,-0.00042552736911457027,0.006244778424373361
1761129535893106700,4.213106689453125,-0.005499766460061073,0.0026597344282781703,-0.0037201073685195294
1761129535912952600,4.23295263671875,0.001233341187238693,-0.002209410544624552,-0.002654131237976253
1761129535932797700,4.252797607421875,-0.002657236510515213,-0.0027144785565091293,-0.0023719943949254228
1761129535952642600,4.272642578125,-0.0031061493217945098,-0.002950961043371353,-0.007408924549631774
1761129535972487700,4.29248779296875,-0.0007119476616382598,-0.004497948456776793,0.005151761306566186
1761129535992333800,4.312333740234375,0.00886485897898674,-0.0005277798839029856,0.0008141636438085697
1761129536012178700,4.3321787109375,-0.005949263793230056,0.002752280683093704,-0.0046653534710232635
1761129536032023600,4.3520234375,-0.0017588263660669326,0.005641197924478911,0.008916930517874424
1761129536051868700,4.37186865234375,0.002729717224836349,-0.0015941555899567901,-0.000021091878734296186
1761129536071713800,4.3917138671875,-0.006247954478859901,-0.00812328336406499,0.00032923880423186343
1761129536091560000,4.411559814453125,0.004226677784323692,-0.0018962506589363327,0.0010241519910341593
1761129536111404500,4.431404541015625,-0.0005623100578784942,-0.004642848236626014,0.0006387579861970152
1761129536131249700,4.451249755859375,0.008116670960187911,-0.0012398188770865088,-0.003911674143065465
1761129536151095800,4.471095703125,0.005872106903791427,-0.017571919880644417,-0.0027478705111017914
1761129536170941000,4.49094091796875,-0.0034054245293140407,-0.0071435493284254335,-0.002891310127871111
1761129536190785800,4.510785888671875,0.013204934009909628,-0.00694052158659324,0.008770516917662462
1761129536210630700,4.530630615234375,0.008266893085837364,-0.0006882334259105846,-0.0016465365144540554
1761129536230476800,4.550476806640625,0.0012339257091283798,-0.0023009384527103976,-0.004882030712295091
1761129536250322000,4.570322021484375,0.008117840003967284,0.0013095208291430025,0.0013103485212719534
1761129536270166800,4.590166748046875,-0.0034042554855346677,0.0010299344194936565,-0.0031474540131399406
1761129536290012000,4.610011962890625,-0.0005617255359888076,-0.007413214848970528,0.0021429462958476504
1761129536309857800,4.62985791015625,0.004825228199362755,-0.0040367173033300785,-0.0020225273658841616
1761129536329703000,4.649702880859375,0.0027308862686157226,-0.002293072523374576,0.007349475705175427
1761129536349547800,4.6695478515625,-0.00490121604502201,-0.004493292831256985,-0.0035456367176026106
1761129536369393000,4.689392822265625,-0.0034048400074243542,-0.006876333776582032,0.0030843701731821053
1761129536389238800,4.70923876953125,-0.01178454581797123,0.0009572504924843087,-0.0003841290629352443
1761129536409084000,4.729083984375,0.006621463966369629,0.0042689734229352325,-0.004448860034486278
1761129536428928800,4.7489287109375,-0.008491934013366698,0.0014675974676851182,-0.0007015986559155863
1761129536448774000,4.76877392578125,0.0031792145580053326,-0.00987761850139359,-0.00204077940438292
1761129536468618800,4.78861865234375,-0.002806289592385292,-0.0046533650640631094,0.005064470040536253
1761129536488465000,4.80846484375,0.0070697922557592385,-0.001279242138599511,-0.0021023459990450644
1761129536508309800,4.828309814453125,-0.004303250151872635,-0.0010444789680768736,-0.00663973940857686
1761129536528155000,4.84815478515625,0.001233341187238693,-0.006532420276314951,-0.010072953843825961
1761129536547999700,4.867999755859375,0.004375730866193771,0.002013088821503334,-0.005295438385353191
1761129536567846000,4.887845947265625,-0.006547814208269119,0.002961363706376869,0.000547407032980118
1761129536587690800,4.907690673828125,0.009014496582746506,-0.0034479507800773716,-0.0008798487203399417
1761129536607535900,4.927535888671875,0.005872106903791427,0.0007478729249676689,-0.008095305657639983
1761129536627380700,4.947380615234375,-0.005201075774431229,0.001557604705542326,0.0013359590282081626
1761129536647227000,4.967226806640625,0.0034779052436351775,0.0007018349762889556,0.0016208643587247934
1761129536667071700,4.98707177734375,-0.0013099135547876358,-0.005467510441562626,-0.010286380823730724
1761129536686916900,5.006916748046875,0.0058732759475708,-0.002526668933406472,0.006190184993192087
1761129536706761700,5.02676171875,0.00033668460845947266,-0.002475278956175316,0.0020108888729067982
1761129536726606800,5.04660693359375,0.0013835633128881453,-0.007149460762692615,-0.0077093608094204675
1761129536746452700,5.06645263671875,-0.0029565117180347443,-0.0060161344673833805,0.002697170087037375
1761129536766297900,5.0862978515625,-0.001460135680437088,-0.0010329940262599848,0.0029968768361082762
1761129536786142700,5.106142822265625,0.0015326163947582245,-0.00433399463329697,0.004660912474634824
1761129536805987800,5.12598779296875,0.014401450318098067,-0.0017551320050610227,-0.000355347068089759
1761129536825833700,5.145833740234375,0.001533200916647911,-0.004599888161022681,-0.014810161266440991
1761129536845678800,5.165678955078125,-0.007893968120217323,-0.0005598441061563789,0.0038563397847232407
1761129536865523700,5.185523681640625,0.0013835633128881453,-0.0038071189316920932,0.002826295767375268
1761129536885368800,5.205368896484375,0.005573416218161583,-0.004306170478032436,-0.0049456100258859804
1761129536905214700,5.225214599609375,0.007218260815739631,0.006323275604238733,0.0014106328412599395
1761129536925059800,5.245059814453125,0.002879354828596115,-0.004533987884537782,-0.008661186208116123
1761129536944905000,5.264905029296875,-0.0004126724541187286,0.0024972282097907735,0.0014712655708717646
1761129536964750000,5.28475,-0.0035550621330738066,0.0003228935451246798,-0.005705910890875384
1761129536984595000,5.304594970703125,0.0006353752940893173,-0.008671711027063428,-0.017040388553519734
1761129537004441000,5.324441162109375,0.007518120545148849,0.0014882018642965703,-0.003979188704612897
1761129537024286000,5.344285888671875,0.0004851531684398651,-0.0033636129478923976,-0.0072449490349099505
1761129537044131000,5.364131103515625,-0.008642740660905838,0.0016590968852164222,0.00267419677847065
1761129537063976000,5.383975830078125,-0.01283317808806896,0.0027070670016109944,-0.003274974541569827
1761129537083822000,5.403822021484375,-0.005052607214450836,0.0028171808791579676,0.0024201101362588814
1761129537103667000,5.4236669921875,-0.0005634791016578674,-0.0014062706183292902,-0.0028381066486443157
1761129537123512000,5.443511962890625,-0.007147533667087555,-0.011344247854698914,-0.012326179555646376
1761129537143357000,5.46335693359375,-0.01343231302499771,0.0016017977570067158,-0.00216600522773806
1761129537163203000,5.483203125,0.0030278233885765076,-0.004528713487798814,-0.00027089621311752126
1761129537183048000,5.5030478515625,0.0003343465209007263,0.008943888165103272,0.0015190742098842747
1761129537202893000,5.52289306640625,-0.005651157629489898,-0.005385387399350293,-0.0021740675198961977
1761129537222738000,5.542738037109375,-0.007595861956477165,-0.013343022739770822,-0.0035202294233546124
1761129537242583000,5.5625830078125,-0.00011456629037857055,0.005431863739446271,-0.0023577181327564174
1761129537262429000,5.582428955078125,-0.00026420389413833614,-0.002007636328251101,-0.002499852850072784
1761129537282274000,5.602274169921875,0.002429272973537445,0.0010096359835588373,-0.007928904719569254
1761129537302119000,5.622118896484375,-0.004304419195652008,0.0009902851124061272,-0.005751024107658304
1761129537321964000,5.641964111328125,0.003925649011135101,-0.002843865673395339,0.002870749113743659
1761129537341810000,5.661809814453125,-0.006250292566418647,-0.0006292629304225556,0.0018289484432316384
1761129537361655000,5.681655029296875,-0.0016115268498659134,-0.0033063161029713226,0.00002470632463810034
1761129537381500000,5.7015,-0.006699205377697944,0.0005664496601675636,-0.0015376270716602448
1761129537401345000,5.721344970703125,-0.004753916528820991,-0.010935050565877463,-0.00363604238932603
1761129537421190100,5.741190185546875,-0.00041442601978778834,-0.011922303470980842,-0.0026409189883095678
1761129537441036000,5.7610361328125,0.004374561822414398,0.0007283645068993791,0.0018457831303123383
1761129537460881000,5.780880859375,-0.0017605799317359924,0.003823264065606054,0.001297026673750952
1761129537480726000,5.80072607421875,0.0054226095706224435,-0.00029413780809845776,0.00007010152756702155
1761129537500571100,5.820571044921875,-0.0011614449948072433,-0.008842781861207913,-0.009681535381934373
1761129537520417000,5.8404169921875,-0.005949848315119743,-0.0035188879912835544,-0.005572570259723579
1761129537540262000,5.860261962890625,0.002729717224836349,0.0027371470460435376,0.0012110231825092342
1761129537560107000,5.88010693359375,-0.00400455946624279,-0.0016323801249382085,-0.001033724678622093
1761129537579952000,5.8999521484375,-0.010738251635432242,-0.004532307384104933,0.0016823122223780956
1761129537599798000,5.919798095703125,-0.00011398176848888397,-0.008205308224866167,0.0070466328591690395
1761129537619643000,5.939642822265625,-0.0019096330136060713,-0.002924052486848086,0.0007968186417187098
1761129537639488000,5.959488037109375,0.00362637380361557,-0.004724443839164451,0.00243472204185673
1761129537659332900,5.979332763671875,0.009312602746486664,-0.003152175854030065,0.0033570142437471073
1761129537679178000,5.999177978515625,0.004674421551823616,-0.004234593946009408,-0.004602235381735954
1761129537699024000,6.01902392578125,0.003177460992336273,-0.012254366703249978,-0.004362882801063824
1761129537718869000,6.038868896484375,-0.00026420389413833614,0.0019097311950172296,0.006482037800192483
1761129537738713900,6.0587138671875,0.007068038690090179,-0.005996507318306248,0.012044007321621756
1761129537758559000,6.07855908203125,0.0072176762938499445,0.0006976177421864121,-0.002660106604325119
1761129537778404900,6.09840478515625,0.005870937860012054,-0.000011806885513942688,0.0017480144235742043
1761129537798250000,6.11825,-0.005052607214450836,0.0012098803965491242,-0.003622491071297554
1761129537818094800,6.1380947265625,-0.002209492743015289,-0.004580692553496919,-0.003977386048238258
1761129537837940000,6.15793994140625,0.001980944684147835,-0.00789484033647459,0.0027939272969117156
1761129537857785000,6.17778515625,-0.005949848315119743,0.004204972842591814,-0.012730521431192755
1761129537877631000,6.197630859375,-0.005649988585710525,-0.004638948379643261,-0.004525939292111434
1761129537897475800,6.217475830078125,-0.00011339724659919739,0.005321286354307085,-0.000494857145124115
1761129537917321000,6.237321044921875,-0.00041150341033935545,0.0017613402668503113,-0.0009056453152996254
1761129537937165300,6.257165283203125,-0.004750993919372558,0.0011356369834044017,-0.008059744578847313
1761129537957011200,6.27701123046875,-0.0007107786178588867,0.0038926669068518093,-0.00372430633631302
1761129537976856300,6.296856201171875,0.01111000755727291,0.0003682487905025482,0.004826140943993232
1761129537996701200,6.316701171875,-0.0011608604729175568,0.0011256612953729926,-0.0056661673981318016
1761129538016546300,6.33654638671875,-0.0034048400074243542,-0.003895151124882977,0.0034163437863724538
1761129538036391200,6.35639111328125,0.0033288521617650985,-0.008225983403425197,-0.0013494058857817434
1761129538056237300,6.3762373046875,-0.009688450321555138,-0.010220461139292456,-0.004810059742160956
1761129538076082200,6.396082275390625,0.0013847323566675185,0.008140572425583376,-0.009822623211413155
1761129538095927300,6.41592724609375,0.0021329203754663468,-0.001221121026482433,0.0025104364637023534
1761129538115772200,6.435772216796875,-0.002804536026716232,-0.0014788403809070586,-0.0039987142473459246
1761129538135618300,6.455618408203125,-0.009537643674015998,0.004436553108762018,0.005125329386544763
1761129538155463200,6.475463134765625,-0.00849018044769764,-0.007952968298457562,-0.0019238870137109187
1761129538175308300,6.495308349609375,-0.006993804410099983,-0.007267698581190779,0.005694325484358705
1761129538195153200,6.515153076171875,-0.00011047463715076445,0.009063196845969651,0.0001221182675275486
1761129538214999300,6.534999267578125,0.005725391909480094,-0.0017100279214326292,0.00008702640454866923
1761129538234844200,6.55484423828125,0.00796995596587658,0.0008686360606923699,-0.0027490635294117965
1761129538254689300,6.574689208984375,0.005725976431369781,-0.0003189936881419271,0.00009922144912998191
1761129538274534100,6.5945341796875,-0.0007072714865207671,-0.0033998647214961235,0.0019253917009191353
1761129538294379300,6.614379150390625,0.010067220506072044,0.0039970999622833915,-0.007083933233076822
1761129538314225200,6.63422509765625,-0.0066916065931320184,-0.005610624689701945,-0.0020175629255769307
1761129538334070300,6.6540703125,0.0033341128587722774,-0.002969882656261325,0.00036226999922073444
1761129538353915100,6.6739150390625,0.009020926323533058,0.0008838199300924316,-0.008613264546316349
1761129538373760300,6.69376025390625,-0.0013034838140010834,0.00007097374382428824,-0.003762534296227386
1761129538393606100,6.713606201171875,-0.006241524738073349,-0.0030692673605284652,-0.0065129518157977144
1761129538413451300,6.733451171875,0.011865794360637665,-0.0028558072729385456,-0.005376569338655099
1761129538433296100,6.753296142578125,-0.0047439796566963194,0.0022943328986992128,-0.0009278291768219787
1761129538453141200,6.773141357421875,-0.004893617260456085,0.00045111846809741107,-0.0018658224129874724
1761129538472986000,6.792986083984375,-0.008185644543170929,0.004019900882558432,-0.0022219903233402873
1761129538492832300,6.812832275390625,0.002289572241902351,0.006194799519516527,-0.006535808676644228
1761129538512677000,6.832677001953125,0.007377250769734382,-0.0012984468792797998,-0.004644177110609598
1761129538532522200,6.852522216796875,0.011716156756877899,-0.007822094760672188,-0.004937276022380683
1761129538552367000,6.8723671875,-0.0019008651852607725,0.005877623329125344,0.00118046022253111
1761129538572213200,6.892213134765625,-0.009532382977008818,0.0020869806081987917,-0.0030175383149355184
1761129538592058000,6.91205810546875,0.003935001361370086,-0.0033580143241677433,-0.007994536709639942
1761129538611903200,6.9319033203125,-0.0023497779965400696,-0.0036847072615753857,-0.0039775024959584696
1761129538631748000,6.951748046875,-0.008036006939411163,0.01546254706083564,0.019823331519647033
1761129538651594200,6.97159423828125,-0.008035422417521476,-0.003661118606722448,-0.0051425345372059375
1761129538671439000,6.991439208984375,0.006480009669065475,-0.0033942889306577853,-0.011889427539618918
1761129538691284200,7.0112841796875,-0.005191723424196243,0.0007401668258360586,-0.00845274593058275
1761129538711129000,7.031129150390625,-0.008183890977501869,0.01130985239475267,-0.0066375337517587465
1761129538730974200,7.05097412109375,0.0028898762226104734,-0.007497548114578239,0.009717734639899571
1761129538750820000,7.070820068359375,0.0010942249774932862,-0.013404171492613385,0.001849477491318248
1761129538770665200,7.090665283203125,0.0007943652480840683,0.001464282132592052,-0.005868807551718782
1761129538790510000,7.110510009765625,0.0009445873737335205,0.014210220328625291,0.004758819891157327
1761129538810355200,7.130355224609375,0.000346036958694458,0.006213358089514076,-0.014969392107386374
1761129538830201300,7.150201416015625,-0.0020481647014617918,-0.024974355323985217,-0.001346979320788523
1761129538850046200,7.170046142578125,0.0046855274677276605,0.005017755096778273,-0.0045103684052883175
1761129538869891000,7.18989111328125,-0.005789104795455933,0.01734513452060055,0.010634203314135083
1761129538889736200,7.209736083984375,0.012466098341345787,-0.004688523142412305,0.009623864077677716
1761129538909581300,7.229581298828125,0.006481178712844848,-0.01128618839137489,-0.0006822009773459285
1761129538929427700,7.249427734375,-0.014018588480353355,0.0029897586837993,-0.009711355131462915
1761129538949272600,7.2692724609375,-0.0036935938209295273,0.008476286636374425,-0.003416087487223558
1761129538969117700,7.28911767578125,0.005135609322786331,0.0047914537939243015,0.02011501022588927
1761129538988962600,7.308962646484375,-0.004291559714078903,0.008555016711680219,0.007017367948777973
1761129539008808700,7.32880859375,-0.0038426469027996062,0.005222719067370053,-0.021450471497175747
1761129539028653600,7.348653564453125,-0.002944236758351326,-0.007962174518220125,-0.009814879438019125
1761129539048498700,7.368498779296875,0.0034901802033185957,-0.0021630506522487846,0.008956164266431005
1761129539068343600,7.388343505859375,-0.009826982009410857,0.015710416308103593,0.0012799773575388825
1761129539088188700,7.408188720703125,-0.007732055556774139,-0.005324117632210254,-0.004516906602284871
1761129539108034600,7.42803466796875,-0.010127426260709761,-0.0008882677763467654,-0.001853880813444266
1761129539127879700,7.447879638671875,0.010672785183787345,0.010849525423604064,-0.006133889370335964
1761129539147724500,7.467724609375,-0.002345686343312263,0.006024215025850571,-0.003591630142153008
1761129539167569700,7.487569580078125,0.006184241592884063,-0.0071506183900288305,-0.0014185124703275504
1761129539187415600,7.50741552734375,0.07755728693306446,0.23602312572216613,0.06402684272925835
1761129539207260700,7.5272607421875,-0.14046177913546562,-0.1728349760064855,0.09227713728426024
1761129539227105500,7.54710546875,-0.06803484082818032,-0.12292637817319482,-0.1946028451730497
1761129539246950700,7.56695068359375,0.00573649782538414,0.32780736492294815,0.07095943673772272
1761129539266795500,7.58679541015625,0.0272837282449007,0.0648501555106137,0.20010197231229393
1761129539286641700,7.6066416015625,-0.0006985036581754684,-0.23683990373145788,0.131071215781942
1761129539306486500,7.626486572265625,-0.022096096473932264,0.08426867593890056,-0.22009578101104124
1761129539326331600,7.64633154296875,0.014714754050970077,0.0888564969195053,-0.18672568205716086
1761129539346176500,7.666176513671875,0.007082651737332343,-0.11885461695594712,0.16026238508336246
1761129539366022700,7.686022705078125,0.00004968436062335968,0.05384532536086626,0.161434680265747
1761129539385867500,7.705867431640625,-0.0023451018214225767,0.09638314783098176,-0.08662588832322507
1761129539405712600,7.725712646484375,-0.008480243575572966,-0.09250104570062831,-0.14434646594855002
1761129539425557500,7.7455576171875,-0.016559505134820938,-0.08996689671366476,0.04311091421691235
1761129539445402600,7.765402587890625,0.000050268882513046264,0.14979221893274225,0.048120262244949114
1761129539465248500,7.78524853515625,-0.0065332011610269546,0.031160343632672446,-0.004306901130394544
1761129539485093600,7.80509375,-0.00997545056939125,-0.1461421445931308,-0.024731545844324864
1761129539504938500,7.8249384765625,0.004839256724715232,0.016206129686464555,-0.03466217545787804
1761129539524783600,7.84478369140625,-0.0035410336077213284,0.09853265401506796,0.01675601865418721
1761129539544629500,7.86462939453125,-0.004587912312150002,-0.028272768965002613,0.020676797410671133
1761129539564474600,7.884474609375,-0.0047369653940200806,-0.06393771684081294,-0.030862447531486394
1761129539584319500,7.904319580078125,-0.001595160236954689,0.050466487444378434,-0.041075768827227875
1761129539604164600,7.92416455078125,-0.0012958850294351577,0.01882807568788994,0.039476179010327905
1761129539624009700,7.944009765625,-0.009675590839982031,-0.034258946685539554,0.028174251910415476
1761129539643855600,7.963855712890625,-0.002044073048233986,0.020151533710840157,-0.05852731373121496
1761129539663700500,7.983700439453125,-0.002642623463273048,0.013524731415649876,-0.027415948922978713
1761129539683545600,8.003545654296875,-0.005785013142228126,-0.0245905390715925,0.04078497832026332
1761129539703390700,8.023390625,0.0004997662156820296,-0.016511382543621583,0.05315169880720787
1761129539723235600,8.043235595703125,0.0043909284353256224,0.045039229098102075,-0.003697065561293857
1761129539743080700,8.063080810546875,-0.002044073048233986,0.011959370378626044,-0.06060945833409205
1761129539762926600,8.082926513671875,-0.008179214802384377,-0.06433694985804614,-0.014628607854188885
1761129539782771700,8.102771728515625,-0.006235094997286797,0.00871494053072529,0.03684450619933195
1761129539802616600,8.122616455078125,0.007381926944851875,0.055101435502339154,0.026851309910695998
1761129539822461700,8.142461669921875,0.0001993219643831253,-0.007463474598329048,-0.02515916927240323
1761129539842307600,8.1623076171875,-0.007282558223605156,-0.03567452627161983,-0.03830062329177744
1761129539862152700,8.182152587890625,-0.0002495908468961716,0.012244016555882989,0.0025328098381811287
1761129539881997600,8.20199755859375,0.01127250464260578,0.031163775415485723,0.03685696838868316
1761129539901842700,8.2218427734375,-0.003841477859020233,-0.01111618841959862,0.014694859757123048
1761129539921687600,8.2416875,0.0033417116433382033,-0.012826168391969985,-0.030377273813448846
1761129539941533400,8.261533447265625,-0.010275894820690154,0.0006113893470144831,-0.02677514853510074
1761129539961378600,8.281378662109375,-0.001298223116993904,0.004768209915654733,0.011603425088914808
1761129539981223700,8.3012236328125,-0.002945405802130699,0.015596715384116396,0.03566794126720633
1761129540001068500,8.321068603515625,-0.007883446726202965,-0.002226327430095989,-0.0022620997130870816
1761129540020913700,8.34091357421875,-0.018059388303756713,-0.0069348521809210065,-0.021850421467039267
1761129540040759600,8.360759521484376,-0.0005517886638641358,-0.0025377040673629377,-0.004087297854741337
1761129540060604700,8.380604736328126,0.00019698387682437897,0.013923930183553602,0.005796689880290068
1761129540080449500,8.400449462890625,-0.003094458884000778,0.007508882359345443,-0.004826203163608443
1761129540100295400,8.42029541015625,0.005585106655955315,0.0024235031031654215,-0.00989483335603145
1761129540120140500,8.440140625,0.010672785183787345,0.0033465567818144336,-0.004373232948430813
