time,seconds_elapsed,z,y,x
1761133535333901800,0.07390185546875,0.29520108994841576,-0.11341522064730525,0.36579993604570626
1761133535353748700,0.093748779296875,0.7147913606315851,-0.14912263997495173,0.360110199971497
1761133535373595600,0.113595703125,0.9752759419858456,-0.1721010722413659,0.3795592890679836
1761133535393442800,0.13344287109375,0.8685393223196267,-0.1378606567263603,0.3687781481388956
1761133535413288700,0.153288818359375,0.5377817658215761,-0.09382014720886946,0.42564606359079477
1761133535433135900,0.173135986328125,0.20643910291194914,-0.0851341519281268,0.48615065504461524
1761133535452982800,0.192982666015625,-0.07258008304238318,-0.11754252971038222,0.5228466470181942
1761133535472829700,0.21282958984375,-0.33601357733011245,-0.20969255174994467,0.6124574329037219
1761133535492676600,0.232676513671875,-0.5087199219882488,-0.28929756499305365,0.7075035417109727
1761133535512523000,0.25252294921875,-0.5807540615856647,-0.399445016016066,0.8364871375638991
1761133535532370000,0.272369873046875,-0.5798404538720846,-0.4469393192492425,0.9276195069935173
1761133535552216800,0.292216796875,-0.598676087245345,-0.47867345103174447,0.9534202301390469
1761133535572064000,0.31206396484375,-0.6616238340675831,-0.4819746845342219,1.0097462937992066
1761133535591911000,0.331910888671875,-0.7496943317085504,-0.3909060279905796,0.9453553624313324
1761133535611757800,0.3517578125,-0.5668541310489177,-0.34235812405124305,0.8836147263765335
1761133535631603700,0.371603759765625,-0.15698562843501568,-0.2425445816464722,0.7480837547067553
1761133535651451000,0.391450927734375,0.2559977913290262,0.08512889123111962,0.06794453219622373
1761133535671297800,0.4112978515625,0.37165830668509003,0.5462691697902977,-0.4726235764082521
1761133535691145000,0.43114501953125,0.16472002207934855,0.4125606643073261,-0.3741505618922412
1761133535710992000,0.450991943359375,-0.15546061082482338,1.0632264665089548,-0.6450725122392177
1761133535730837800,0.470837646484375,-0.0765355426698923,1.0525299351233988,-0.43476241311281916
1761133535750684700,0.4906845703125,-0.0590203442454338,0.7657156383134425,-0.2955025571130216
1761133535770531800,0.51053173828125,0.24473230094909668,0.6752985775463283,-0.418443000344187
1761133535790378800,0.530378662109375,0.3465975151866674,0.5150819313008338,-0.3311814809985459
1761133535810225700,0.5502255859375,0.03452127828299999,0.2749514250587672,-0.08894041234329342
1761133535830072800,0.57007275390625,-0.021554829204082488,0.2635742179326713,0.01817117811515927
1761133535849918700,0.589918701171875,0.03652735740840435,0.15822412072140724,0.00520122190490365
1761133535869765600,0.609765625,-0.10108663108050822,-0.13015936163403094,0.12400354241803288
1761133535889612800,0.62961279296875,0.16537059494256973,-0.45793278775475915,0.12345526088550686
1761133535909459700,0.649459716796875,1.2799655757695436,-1.019921431659162,-0.12874737594425678
1761133535929306600,0.669306640625,2.026639098352194,-0.7676942449100315,-0.6147623488452285
1761133535949153800,0.68915380859375,2.2306951055198905,-1.3979697316423059,-0.7495604031305759
1761133535969000000,0.709,1.6580571303725242,-1.7057791048817335,-0.49279148129858075
1761133535988846800,0.728846923828125,1.1704267581641674,-1.6658749645166098,-0.2861458229638636
1761133536008694000,0.748694091796875,0.7859153996467589,-1.0390575823489576,-0.493206418775022
1761133536028541000,0.768541015625,0.1297434012442827,-0.427591790831089,-0.6314778482593596
1761133536048387800,0.788387939453125,-0.4457599002063274,-0.22392039906680583,-0.126377943399176
1761133536068233700,0.808233642578125,0.02297989357113838,-0.9227675369177013,0.5108774653483182
1761133536088081000,0.828080810546875,0.7029606375843286,-0.9953106489505619,0.8408180794402956
1761133536107927800,0.847927734375,1.2122574826776982,-0.9373351375829427,1.012219259783998
1761133536127774700,0.867774658203125,1.0218921472102402,-0.7312886141851543,1.0912569945331663
1761133536147622000,0.887621826171875,0.3700391810506582,-0.30429800411760805,1.1018607330687344
1761133536167468800,0.90746875,-0.044998833155632016,-0.09399813412427901,0.8852917196780443
1761133536187314700,0.927314697265625,0.1808259382277727,-0.09830562205985188,0.6731383307725191
1761133536207161900,0.947161865234375,0.39510757133364677,-0.02220481754541397,0.3538458788797259
1761133536227009800,0.967009765625,-0.022893384331464765,0.1514946298032999,0.06443525000021327
1761133536246856700,0.986856689453125,-0.8016068897753953,0.4551441068843007,0.1871184259681031
1761133536266703600,1.00670361328125,-1.5541864215314387,0.7327651164785027,0.41127946539036925
1761133536286549500,1.026549560546875,-2.128906463649869,0.8609265092283487,0.6137642777185887
1761133536306396700,1.046396728515625,-2.288319611492753,0.7294140524849295,0.8630364871196449
1761133536326243600,1.06624365234375,-1.7601152368336914,0.23580416747555136,1.1705494346957652
1761133536346090500,1.086090576171875,-1.186253857371211,-0.16773220950737594,1.3556246278658508
1761133536365937700,1.105937744140625,-1.0908744980216025,-0.30737843447625635,1.3058337381280958
1761133536385783600,1.125783447265625,-1.005978538763523,-0.2597292329423129,1.178788343796134
1761133536405630500,1.14563037109375,-1.2636533233940601,-0.07509849560409784,1.1994957623906433
1761133536425477600,1.1654775390625,-1.0898644441962242,0.056134705806523556,1.468382699778676
1761133536445324500,1.185324462890625,-0.7858511022388934,-0.1288116733521223,1.7938307516917584
1761133536465171500,1.20517138671875,-1.9973387695878744,-0.2836883468091488,1.658131218522042
1761133536485018600,1.2250185546875,-4.0234190650135275,-0.1480827755331993,1.6431912774130701
1761133536504864800,1.24486474609375,-5.128821854603291,-0.02944178306162357,2.2252029378443954
1761133536524711700,1.264711669921875,-4.720402966275811,-0.20402122811526058,3.162022307924926
1761133536544558800,1.284558837890625,-3.5457851861625906,-0.9355524188846349,3.7285233877524733
1761133536564405800,1.30440576171875,-1.9191443537950514,-1.859591802369058,3.8021757762014863
1761133536584252700,1.324252685546875,0.6217869137197732,-2.732062326657772,3.144732442688942
1761133536604099800,1.344099853515625,2.89305309908092,-3.0528309885829685,1.9664998330794274
1761133536623945700,1.36394580078125,3.7794969114035366,-2.685639013656974,0.8558654264464974
1761133536643792600,1.383792724609375,3.721557932654023,-2.2959932148605584,-0.1276906516992487
1761133536663639600,1.4036396484375,3.7702924452066418,-1.5965603130109607,-1.6321091807760297
1761133536683486700,1.42348681640625,3.7806612790077923,-0.5781934173174202,-2.8928210438907143
1761133536703333600,1.443333740234375,3.414693877440691,0.013096359068900346,-3.360940075421333
1761133536723179500,1.463179443359375,3.062688365730643,-0.11872056051380932,-3.0718609754845496
1761133536743026700,1.483026611328125,2.7022417734116315,-0.5292892472863197,-2.989313040657341
1761133536762873600,1.50287353515625,1.8980027815669773,-0.12055837040022015,-3.517532905146479
1761133536782720500,1.522720458984375,0.8883201275885104,0.7266682609081268,-4.051452442581952
1761133536802567700,1.542567626953125,-0.13069266479313374,1.158844237724319,-4.030829633530974
1761133536822414600,1.56241455078125,-1.0418722744435072,0.9391369263079017,-3.390478304594755
1761133536842260500,1.582260498046875,-1.3501964653372764,0.6497863890185952,-2.926223839537799
1761133536862107600,1.602107666015625,-0.9188836081564425,0.7172009059913456,-2.8489132208421823
1761133536881954600,1.62195458984375,-0.2734446006923914,0.7115687453232705,-2.5907293176457284
1761133536901801500,1.641801513671875,0.02672083366513252,0.5657748113796115,-2.1658054308496415
1761133536921648600,1.661648681640625,0.06868950534462928,0.5764314491461963,-1.8318834189713
1761133536941494800,1.681494873046875,0.07995791833400726,0.6168569830369204,-1.5944237393736838
1761133536961341700,1.701341796875,0.27001754885315893,0.5185642935238778,-1.3526865285873413
1761133536981188900,1.72118896484375,0.5601116710513829,0.335108518249169,-1.0114105737496166
1761133537001035800,1.741035888671875,0.1273871935069561,0.21996114004701375,-0.6406549149926751
1761133537020882700,1.760882568359375,-0.4987912331700325,0.15066110158860682,-0.3674353917604312
1761133537040728600,1.780728515625,-0.8651479263156652,-0.010386880914494395,-0.23994802581463007
1761133537060575700,1.80057568359375,-1.1607453221052884,-0.2714748349893838,-0.1705186984207481
1761133537080422700,1.820422607421875,-1.6878408587396143,-0.3764253018911928,-0.1836744412603788
1761133537100269600,1.84026953125,-2.3602783477663993,-0.5455816989827901,-0.03376903514359146
1761133537120116700,1.86011669921875,-2.706375512215495,-0.7716120759408921,0.034146380556002255
1761133537139963600,1.879963623046875,-2.7424697389036417,-0.9594925357900559,0.052000090219825504
1761133537159809500,1.8998095703125,-2.664879718744755,-1.1230952442772686,-0.15334931775927543
1761133537179656700,1.91965673828125,-2.0008055689156055,-1.2599468700915575,-0.5384731090866028
1761133537199503600,1.939503662109375,-1.056733158966899,-1.394032099932432,-0.9058023735914379
1761133537219350500,1.9593505859375,-0.3756418233633041,-1.0253364424452185,-1.4595713245525956
1761133537239197400,1.979197509765625,1.024621279913187,-0.7834368076387792,-1.2128794139683245
1761133537259043300,1.999043212890625,4.657158282333612,-0.4524653161291033,0.5267419739563017
1761133537278890500,2.018890380859375,8.742106459543109,0.7841522624317556,1.5248349471017717
1761133537298737400,2.0387373046875,10.547511621433497,1.9536524803355335,1.375944800708443
1761133537318584300,2.058584228515625,11.547024179053306,2.753662456308305,1.3260931206941604
1761133537338431200,2.07843115234375,11.85573356987238,3.080676150102913,0.5951356016268954
1761133537358277400,2.09827734375,11.044672038531303,2.8469068494558334,-0.06113914476400241
1761133537378124500,2.11812451171875,8.826279365223646,1.158828967089951,-0.09600494390204549
1761133537397971500,2.137971435546875,5.216899366506934,-0.9349052070222794,1.0854971888974307
1761133537417818400,2.157818359375,2.0953741964042187,-2.3577868232116104,1.8779079419128595
1761133537437665500,2.17766552734375,-1.1495850456655026,-2.8122265812188387,1.9629845184348522
1761133537457512400,2.197512451171875,-4.387547560715675,-2.9432606067955494,0.9015421588636934
1761133537477358300,2.2173583984375,-7.453285961666703,-2.8598759288832545,-0.1189591002437286
1761133537497205500,2.23720556640625,-10.258237583446503,-2.281375345312804,-0.6272711903497576
1761133537517052400,2.257052490234375,-11.954503740704059,-1.4348632920145987,-1.555619961465895
1761133537536899300,2.2768994140625,-12.585484599226712,-0.4059888847015798,-2.576089674657583
1761133537556746500,2.29674658203125,-12.270678645098208,0.3706696609739214,-3.0773037510603665
1761133537576592400,2.31659228515625,-11.451698011195658,0.23590865076333284,-2.8308509099289774
1761133537596439300,2.336439208984375,-10.423128870439529,-0.4681153782688081,-2.0207282668732107
1761133537616286500,2.356286376953125,-8.85118993459642,-1.1074065306276082,-1.1321971268825233
1761133537636133400,2.37613330078125,-7.303187170135974,-1.4976840514563023,-0.5421134383503348
1761133537655980300,2.395980224609375,-5.563783881941437,-1.1897677107110618,-0.1285456428270787
1761133537675827500,2.415827392578125,-3.985025329211354,0.11752112159617245,0.971665204142779
1761133537695673300,2.43567333984375,-1.388047764825821,0.5497721364099531,1.0955590756412594
1761133537715520300,2.455520263671875,2.5888983028262853,0.6743504830412567,0.9127634447757155
1761133537735367400,2.475367431640625,6.899567791044712,1.1503295804224907,0.37787498924285173
1761133537755214300,2.49521435546875,10.254826313698292,-1.705062919436395,-1.555250835892558
1761133537775061200,2.515061279296875,4.118689703291654,-0.9715953537769615,1.384621589769423
1761133537794907400,2.534907470703125,5.407115648892521,1.9152366788320243,-1.0565737306214869
1761133537814754600,2.554754638671875,9.984739791262149,1.036879580722749,0.14899609098583458
1761133537834601500,2.5746015625,12.597196079808473,0.4986402073267847,1.9612562333375214
1761133537854448400,2.594448486328125,10.690451773381232,1.1357695785418152,1.5494444877013562
1761133537874295600,2.614295654296875,7.314156892439723,2.0665099209696054,1.3364730604112147
1761133537894141400,2.634141357421875,5.221939698761702,1.3162363280683755,0.8896322331003844
1761133537913988400,2.65398828125,2.861946597677469,0.02077281198091805,1.1602599497411399
1761133537933835500,2.67383544921875,0.8049322348058223,-0.8315053305633365,1.2705921827465294
1761133537953682400,2.693682373046875,-1.1144646324455738,-1.1429529872398823,0.8576362355113029
1761133537973529300,2.713529296875,-2.82583834246397,-1.1742072996161876,0.2928037464831024
1761133537993376500,2.73337646484375,-4.2160131824463605,-0.5575606348617002,0.25251192197464406
1761133538013222400,2.753222412109375,-5.837012794056535,-0.20608652661461382,0.41782201890163123
1761133538033069300,2.7730693359375,-6.493996108841896,0.1496985584330745,0.2975548865329474
1761133538052916500,2.79291650390625,-5.351404867586493,0.10686567113967611,0.29344869332313533
1761133538072763400,2.812763427734375,-3.6730174813687797,0.35115185402277854,0.5917618508774787
1761133538092610300,2.8326103515625,-2.295595155453682,0.30047957834061234,0.3797225898709148
1761133538112456400,2.85245654296875,-0.32477322139143944,-0.48008481566701083,0.08031783768758177
1761133538132303400,2.872303466796875,1.5060428606092928,-1.3481874636024236,0.13596125284582375
1761133538152150300,2.892150390625,1.176343288731575,-1.8459600212492047,0.542155816187337
1761133538171997200,2.9119970703125,0.008917465949058533,-1.2131178258340805,0.5925893877428025
1761133538191844400,2.93184423828125,-0.5708323870301246,-0.021843948343768713,0.5643687439739704
1761133538211691300,2.951691162109375,-0.29036884748637676,0.8153013608679175,0.5593851103425026
1761133538231536400,2.971536376953125,0.37826515760421753,1.4125665584020315,0.24385383761413393
1761133538251383600,2.991383544921875,1.1110609614819287,1.749178686147183,-0.19613164390921592
1761133538271230500,3.01123046875,1.0671943472266197,1.7588536924652753,-0.2649961404945701
1761133538291077400,3.031077392578125,0.6143488726735115,1.5689225106313824,-0.45615240714401006
1761133538310924500,3.050924560546875,-0.12765081287920474,1.0817623862832784,-0.32730412810854614
1761133538330770400,3.0707705078125,-0.9891846403509378,0.4109949128279462,0.060970236204192035
1761133538350617300,3.090617431640625,-1.7991542848020792,-0.09220067451456561,0.31109497078135606
1761133538370464500,3.110464599609375,-2.063158856976032,-0.3061439607778564,0.08247552717812359
1761133538390311400,3.1303115234375,-1.712146447956562,-0.5889920208379625,-0.3358800871435553
1761133538410158300,3.150158447265625,-0.8895821103483438,-1.0165658376209437,-0.7006864821072667
1761133538430004500,3.17000439453125,-0.37716216479837894,-1.140265209460631,-0.8754650299295782
1761133538449851400,3.189851318359375,0.4685913252174854,-1.1254717641502618,-1.04145667937994
1761133538469698300,3.2096982421875,1.2538403699100016,-0.8767331501692534,-0.7642043569676578
1761133538489545500,3.22954541015625,0.8210802365303039,-0.5201119613572955,-0.01056391798183322
1761133538509392400,3.249392333984375,0.5458382310271263,-0.25480942179467525,0.518592058313638
1761133538529239300,3.2692392578125,2.5956857710093257,0.017987108518835157,2.110282573331147
1761133538549085400,3.28908544921875,4.912590256473422,-0.6759148828137665,3.188441820555925
1761133538568932600,3.3089326171875,5.18292636975646,-0.21966412986181674,2.8621792373895643
1761133538588779500,3.328779541015625,5.858510924637318,1.3179619828172027,1.5571142916768788
1761133538608626400,3.34862646484375,8.328327505487204,2.5329849846854806,1.317131669472903
1761133538628473600,3.3684736328125,11.58233865354061,2.434514527452737,1.5125351452380418
1761133538648319500,3.388319580078125,12.24348668678999,1.971765790783614,1.1294367222584782
1761133538668166400,3.40816650390625,10.249915160781145,1.6409022896930574,0.4171476267714053
1761133538688013600,3.428013671875,5.508216308498382,0.7265063483446836,0.6271093508515506
1761133538707860500,3.447860595703125,0.16025544388592242,-0.6646781070716679,0.1601614089269191
1761133538727707400,3.467707275390625,-4.8200879138648505,-1.7973991116978227,-0.4880720515612513
1761133538747554600,3.487554443359375,-8.587408065262437,-2.322527586042881,-1.4133834277428685
1761133538767400400,3.507400390625,-10.766000058579444,-2.432072833389044,-2.9994132866501806
1761133538787247400,3.527247314453125,-11.98439619014263,-2.6294132685661316,-3.3617116443157196
1761133538807094300,3.54709423828125,-12.396586998224258,-2.7058804221749306,-2.9855449202954767
1761133538826941400,3.56694140625,-12.31193069294095,-2.067557238065451,-2.822151178383827
1761133538846788400,3.586788330078125,-11.732053414189815,-1.3049300672866404,-3.2549826234340666
1761133538866634500,3.606634521484375,-11.100116277855633,-0.7012500342741608,-3.7170024613067505
1761133538886481400,3.6264814453125,-10.52484269350767,-0.5338122776687145,-3.737018536636233
1761133538906328300,3.646328369140625,-9.7539074208498,-0.6280779766879976,-3.2853269082933663
1761133538926175200,3.66617529296875,-8.349205458343029,-0.3428646853338927,-2.5975091870442033
1761133538946022400,3.6860224609375,-6.447224420794845,0.6110853408329189,-2.015598502769321
1761133538965868500,3.70586865234375,-4.673886714294553,1.6099389961525796,-1.96511933850646
1761133538985715500,3.725715576171875,-0.3466495376348495,2.0838195138193667,-1.5920004577495157
1761133539005562600,3.745562744140625,4.701501866450905,0.6988429731324315,0.22063947769999503
1761133539025409500,3.765409423828125,7.334304192933439,-6.708163760179281,-2.3912775894030927
1761133539045256400,3.78525634765625,6.53429012530744,-7.180453939914703,2.9021964827403424
1761133539065103600,3.805103515625,10.18720180723667,-4.071072796592116,6.959502912047505
1761133539084949500,3.824949462890625,12.501127569150924,1.2306528249375521,5.570078013649582
1761133539104796400,3.84479638671875,13.118081071364879,4.119920121869445,2.9176947883844373
1761133539124643600,3.8646435546875,11.651686330533026,4.0831513569206,1.7000779706306755
1761133539144490500,3.884490478515625,8.913837821689247,1.844367929752171,1.853517450891435
1761133539164337400,3.90433740234375,7.109268526101112,-0.13529000252075493,2.227232690106332
1761133539184183300,3.924183349609375,5.154318699431419,-0.981856781680882,1.3389493873968719
1761133539204030500,3.944030517578125,1.9966069481819866,-1.2374093134604394,0.8548219087429344
1761133539223877400,3.96387744140625,-1.3497358620882034,-0.9024473640751093,0.5715066330298781
1761133539243725800,3.983725830078125,-3.2481863874226806,-0.12896671778336166,-0.579995498303324
1761133539263570400,4.0035703125,-3.537702417472005,0.44512971254400907,-1.8590598874494433
1761133539283417600,4.02341748046875,-3.3479549216419455,0.5671954918324947,-1.5687586983717976
1761133539303264500,4.043264404296875,-3.8789240848392246,0.45112858763262625,-0.7334549984388054
1761133539323111700,4.063111572265625,-3.8881414105176924,0.273747017705068,-0.7895460112340748
1761133539342958600,4.08295849609375,-2.3658839126884934,-0.31680655336119234,-1.1838761684544383
1761133539362804700,4.1028046875,-1.2669886052966117,-0.8965570639275013,-0.6129858406919986
1761133539382651600,4.122651611328125,-1.77781689774096,-1.1352602407801895,0.08972769026346504
1761133539402498800,4.142498779296875,-2.849182977694273,-0.7978986829072237,-0.14958061287552119
1761133539422345700,4.162345703125,-3.469110527282953,0.06051960635986179,-0.8810801663976162
1761133539442192600,4.182192626953125,-3.294759922549128,0.722499743051827,-1.4961970277689396
1761133539462038800,4.202038818359375,-2.716517551523447,0.5168215780423954,-1.008687651591748
1761133539481885700,4.2218857421875,-1.8510756106972692,-0.28533900009300556,-0.29489611565247176
1761133539501732600,4.241732666015625,-0.6812807206958532,-0.6839222481805831,-0.06710413584932684
1761133539521579800,4.261579833984375,-0.06488660593032837,-0.6320191155292093,-0.2648399270195514
1761133539541426700,4.2814267578125,-0.7113660623580217,-0.45127566795311863,-0.3089772479750216
1761133539561273600,4.301273681640625,-1.864338412374258,-0.3403919750774279,-0.32744996632002293
1761133539581119700,4.32111962890625,-2.3692747241705656,-0.18063173082992434,-0.6034752311553806
1761133539600966700,4.340966552734375,-2.200792719209194,0.23399414064520968,-1.0751871726114302
1761133539620813600,4.3608134765625,-1.0404957253932952,0.7108907729964703,-0.8922694497361778
1761133539640660700,4.38066064453125,1.9336451728343962,1.4384224458009003,0.10747852407470344
1761133539660507600,4.400507568359375,5.948855212429166,1.204254062833637,0.08687083952762185
1761133539680354600,4.4203544921875,10.828246963655948,0.766984635335952,-0.8607681037962436
1761133539700201700,4.44020166015625,15.996647964453697,-0.5413113281872123,1.5200304694294928
1761133539720048600,4.460048583984375,19.573000722837445,-2.0094941945448515,4.012795087407529
1761133539739894500,4.47989453125,19.772336715745926,-1.2142532596047968,3.4324230108767746
1761133539759741400,4.499741455078125,15.726255152547358,0.9036405924476683,2.0836719220422206
1761133539779588600,4.519588623046875,9.284235314658284,1.2385777727179228,1.649556720791757
1761133539799435500,4.539435546875,2.1503379587352276,0.4723920326747,1.3677552106425166
1761133539819282700,4.55928271484375,-3.9367841531336305,0.9311815833892673,-0.2941700664002448
1761133539839128800,4.57912890625,-7.8396601914465425,0.8666660027284174,-1.563954951351881
1761133539858975700,4.598975830078125,-10.17524950363636,-0.6281352598331869,-0.7222624271646142
1761133539878822700,4.61882275390625,-11.891095975154638,-1.6871907242678106,-0.1941089789751917
1761133539898669800,4.638669921875,-14.083435338795184,-1.614207467252016,0.1799753858130425
1761133539918516700,4.658516845703125,-15.455785183751582,-0.8601650233365595,-1.2473822798117995
1761133539938363600,4.67836376953125,-13.235289400684833,-0.6664547613553703,-2.0509256906077264
1761133539958209800,4.698209716796875,-8.893266742825508,-2.9525363846629857,-0.6533340715628116
1761133539978056700,4.718056640625,-6.507980210530757,-4.598103451296687,0.6652015464238822
1761133539997903600,4.737903564453125,-7.227758711925149,-4.22101142912507,0.6807775934793054
1761133540017750800,4.757750732421875,-8.457610888004302,-2.815269602176547,0.2966506311696023
1761133540037597700,4.77759765625,-9.517653609910607,-1.399770935845375,0.27458851003050805
1761133540057443600,4.797443603515625,-10.095420180118083,-0.0995209161337465,-0.056053822590038174
1761133540077290800,4.817290771484375,-10.054840332448482,1.0117525921203196,0.3149755385417491
1761133540097137700,4.8371376953125,-8.826324373409152,2.018279558546841,0.562610136803612
1761133540116984600,4.856984619140625,-5.617050777226686,2.304483103047311,1.259544719031453
1761133540136831700,4.876831787109375,2.4698399617254734,0.6122033120121807,2.2088448005005716
1761133540156677600,4.896677734375,8.895396740591526,-6.1731707482933995,-1.8835298734478652
1761133540176524500,4.916524658203125,10.744117897117137,-7.012877943882346,-3.39184900842607
1761133540196371500,4.936371337890625,15.7496371971786,-6.103564712625742,-4.242915217897296
1761133540216218600,4.956218505859375,14.043949716103077,-4.862646368131041,-1.487870075058937
1761133540236064800,4.976064697265625,10.689666175961493,-0.11041808465793729,-3.122435855206847
1761133540255912000,4.995911865234375,9.490558097714185,5.004013571673632,-4.29415732935667
1761133540275757800,5.0157578125,8.01681942386031,5.526778970149159,-2.9461577895417808
1761133540295604700,5.035604736328125,5.794310547405481,3.6792774185463784,-0.5506518053213134
1761133540315452000,5.055451904296875,3.066513476976752,2.3771289448022843,0.9740002229616045
1761133540335298800,5.075298828125,1.3810001844018698,1.485762581385672,1.0407931009046734
1761133540355145700,5.095145751953125,0.5450199003815651,0.4098077123373747,1.2961534711129963
1761133540374992000,5.114991943359375,-0.8602630768835544,-0.6965659681111573,1.505178206603974
1761133540394838800,5.1348388671875,-2.8429414529561994,-0.9544248771369457,1.4519801387712359
1761133540414685700,5.154685791015625,-4.044755867552757,-0.10942015966176986,0.5317762783290818
1761133540434532900,5.174532958984375,-3.4045541762202975,0.5897822944328188,-0.9319909270107746
1761133540454379800,5.1943798828125,-2.5412188522845507,0.5111442265257239,-1.2967305403485894
1761133540474226700,5.214226806640625,-2.621690565359592,0.33064328246861696,-1.018835974510014
1761133540494072600,5.234072509765625,-2.8641899926900862,0.21990970212072133,-0.7406043587367981
1761133540513919700,5.253919677734375,-1.417850197893381,-0.1540916605591774,-0.1905147173428908
1761133540533766700,5.2737666015625,1.0935428404480219,-0.9049109046444296,0.6169874044835567
1761133540553613800,5.29361376953125,2.173110931557417,-0.8114297801315784,1.1725392202734946
1761133540573460700,5.313460693359375,1.2944389222800732,0.046829263453185554,1.4020111159875988
1761133540593307000,5.333306884765625,0.13770283581614493,0.913177797730267,1.3799743484854696
1761133540613153800,5.35315380859375,0.18836159442961214,1.1913204931110144,1.0329586078867317
1761133540633001000,5.3730009765625,0.2669511470198631,0.9183861800283193,1.1689075127076356
1761133540652847900,5.392847900390625,-0.18790917448699473,0.8845799181468784,0.837170516718179
1761133540672694800,5.41269482421875,-0.6124760645389556,0.8537757606908678,0.32519619604386385
1761133540692541000,5.432541015625,-0.3985632647454738,0.25308380357846616,-0.15897249140329658
1761133540712387800,5.452387939453125,0.5360574262470007,-0.6367959745422005,0.031585133499559014
1761133540732234800,5.47223486328125,0.7440472657322883,-1.0072298539988696,0.3323611923024058
1761133540752082000,5.49208203125,0.08397709084749222,-0.5912691719897091,0.22491350175738334
1761133540771928800,5.5119287109375,-0.9123252725541591,0.20086203343197703,-0.018131229697261005
1761133540791775700,5.531775634765625,-2.366054593080282,0.9545683772608637,-0.09766854799902067
1761133540811622000,5.551621826171875,-3.6780320946604013,1.4289549447536467,-0.22359978881031273
1761133540831468800,5.57146875,-3.8719180054694413,1.4071382497429847,-0.41318182841297235
1761133540851315700,5.591315673828125,-3.8150346732527014,0.9455668862901627,-0.11135759399775415
1761133540871163000,5.611162841796875,-4.17067649563849,0.6179539114281535,-0.03831694423891604
1761133540891009800,5.631009765625,-4.150810934695601,0.4623971467524767,0.30704138454161584
1761133540910855700,5.650855712890625,-4.132600155222415,0.2519168056257069,0.2615238612741232
1761133540930702600,5.67070263671875,-4.497905293488502,0.5351317627694457,0.04145093141570687
1761133540950549800,5.6905498046875,-4.210243366873264,1.1973837386727333,-1.2194895528230816
1761133540970396700,5.710396728515625,0.04781681318581104,0.06988441421762108,-0.8825340184677392
1761133540990243600,5.73024365234375,9.494630461719632,-3.2392379418134687,0.7823619449488818
1761133541010090000,5.750090087890625,20.102664064133165,-5.72435555216968,3.7945816678106783
1761133541029937000,5.76993701171875,25.619323206806182,-5.907805993682146,4.052268727400898
1761133541049783800,5.78978369140625,25.800765815627575,-5.506400783509016,3.6032071553006766
1761133541069631000,5.809630859375,23.44137126495838,-5.40592556232512,3.49227980594635
1761133541089478000,5.829477783203125,19.150359832412004,-4.328158675418794,2.5813857352390883
1761133541109324800,5.84932470703125,10.727157409965992,-0.6011581133194267,-1.4661267375454305
1761133541129171000,5.8691708984375,0.4987269357621669,3.3613688222274183,-5.887762738084793
1761133541149017900,5.889017822265625,-7.849005527418852,4.0134094199135895,-4.499081351530552
1761133541168864800,5.90886474609375,-12.032489482182264,3.4523058152154085,-3.179456550067663
1761133541188712000,5.9287119140625,-14.083662133288383,2.0259905713155866,-2.309929385754466
1761133541208558800,5.948558837890625,-14.685136326819658,0.7095109360106289,-0.48129269361943006
1761133541228404700,5.96840478515625,-15.790325765919684,-0.44352812256626784,-0.07179828501492738
1761133541248252200,5.988252197265625,-16.494532019650936,-0.9274478036884218,0.11736863444820046
1761133541268099000,6.00809912109375,-14.783331328111887,-1.2672484252765774,-0.1408282743602991
1761133541287946000,6.027946044921875,-10.769909340977668,-2.1734844410449266,-1.2454635867089032
1761133541307793200,6.047793212890625,-6.84783526571989,-2.9147382766664025,-2.385729892148077
1761133541327639000,6.06763916015625,-5.590007287478446,-2.430119653494656,-2.2745878771297634
1761133541347486000,6.08748583984375,-6.591497867172956,-1.4071744901001453,-1.7271747980013488
1761133541367333000,6.1073330078125,-8.237327384135126,-0.08207856374979018,-1.3804926732711493
1761133541387180000,6.127179931640625,-9.053982789960504,0.8361366436257958,-1.6686995204180477
1761133541407027000,6.14702685546875,-9.179290839105844,1.1029170371886343,-1.7447586777478457
1761133541426874000,6.1668740234375,-8.015799433162808,0.9921996042579412,-0.9874446648158133
1761133541446720000,6.186719970703125,-6.964077964878082,1.3155028992272912,-0.945487245182693
1761133541466567000,6.20656689453125,-5.096140066707134,0.5847559907034039,-1.5535494388021527
1761133541486414000,6.2264140625,0.25321955878734587,-0.8431007835499942,-0.667962973961234
1761133541506261000,6.246260986328125,6.199288939890265,-3.5090322033047676,-0.7845159081123769
1761133541526108000,6.26610791015625,10.66423596662879,-7.65997114829421,-1.8269930165812371
1761133541545954000,6.2859541015625,16.173227351152896,-6.733855835318565,-0.03757920454889536
1761133541565801200,6.30580126953125,17.61219866300821,-4.5219764894276855,3.0676281602203845
1761133541585648000,6.325648193359375,16.174859336268902,-0.16375278448238967,2.930896215263009
1761133541605495000,6.3454951171875,13.360709093511105,3.331775355735421,0.896217310579121
1761133541625342200,6.36534228515625,10.362655404776334,3.196006410591304,1.7593099118001758
1761133541645188000,6.38518798828125,6.69615475795567,1.4290730181753635,2.7406641507863996
1761133541665035000,6.405034912109375,4.182993540897965,0.6887770678006112,2.503214992582798
1761133541684882200,6.424882080078125,2.2660060728758573,0.48608051241785283,1.8217504397526383
1761133541704729000,6.44472900390625,0.6175561442822217,0.5551603322543204,0.9399771034590899
1761133541724576000,6.464575927734375,-1.7429425682365893,0.6771240394078195,-0.3701322661615908
1761133541744423200,6.484423095703125,-4.231478462603688,0.9002645401433109,-1.0048565489962697
1761133541764269000,6.50426904296875,-5.527062463265657,0.6527642357856035,-0.8659957753166556
1761133541784116000,6.524115966796875,-5.8026358926802875,0.07594707525745034,-0.4526881650995463
1761133541803963100,6.543963134765625,-5.5262733587145805,-0.10182941227182746,-0.48120209272652864
1761133541823810000,6.56381005859375,-4.052641067844629,-0.2605538471981883,-0.7778447597853839
1761133541843657000,6.583656982421875,-2.1633219434708355,-0.7928637574799359,-1.248837739317119
1761133541863503000,6.603503173828125,-0.6009376024365425,1.2763237121358513,-4.318021896807849
1761133541883350000,6.62335009765625,0.15451543892920017,4.141871549175679,-6.906883082494139
1761133541903197000,6.643197021484375,-0.21878654330968855,-1.104079724292457,-0.19246965080294756
1761133541923043800,6.6630439453125,-0.22984978911578655,-2.3190464659288526,1.109554502441734
1761133541942891000,6.68289111328125,0.1514811857998371,-1.9472138255901634,1.6869431792475282
1761133541962738000,6.702738037109375,0.27072715842723843,-1.0439425048463047,1.7942095218762755
1761133541982584000,6.722583984375,0.3089186496555805,0.3899122677128762,0.931723508246243
1761133542002431200,6.74243115234375,1.122735617184639,0.6868574979148805,0.5212504273353145
1761133542022278100,6.762278076171875,1.8622440704435108,0.04243815235476941,0.52442211617399
1761133542042125000,6.782125,1.6404431477487087,-0.495696189764142,0.8381500292748212
1761133542061972200,6.80197216796875,0.7860217826306819,-0.6319145591761917,0.8630914321772754
1761133542081818000,6.821818115234375,-0.08887889141440392,-0.5320674798280001,0.5253226452102885
1761133542101665000,6.8416650390625,-0.8873089047193526,-0.28441103506051,0.1921679644426331
1761133542121512200,6.86151220703125,-1.3709861553877591,-0.10315868811421096,-0.002981280833110213
1761133542141359000,6.881359130859375,-1.638144807678461,-0.012941241572424768,-0.056911644995771345
1761133542161206000,6.9012060546875,-1.1239262882739305,0.07215235914960504,-0.03493939409721643
1761133542181052000,6.921052001953125,-0.2528308517307043,-0.023115064258128402,0.038195765544660386
1761133542200899000,6.940899169921875,0.27374270685613156,-0.11318155802190304,0.11713541021421552
1761133542220746000,6.96074609375,0.6269459039181471,-0.197293381164968,0.0215913618221879
1761133542240592600,6.980592529296875,0.7331763276278972,-0.2633129366479814,0.018748210818134246
1761133542260439600,7.000439453125,0.5553630152195692,-0.24535715484917162,-0.04767239974644035
1761133542280286700,7.02028662109375,0.2860141594082117,-0.235627641864866,0.019098229832202194
1761133542300132900,7.0401328125,-0.031282442492246626,-0.18622341335713863,0.0872127483004704
1761133542319979800,7.059979736328125,-0.27924948757886886,-0.08415537002384663,0.15245887172557412
1761133542339826700,7.07982666015625,-0.2771598218232393,-0.022213146982342002,0.21963844743128866
1761133542359673900,7.099673828125,-0.10189327128827572,-0.11207374291047453,0.397808500855416
1761133542379520800,7.119520751953125,0.050592123118042946,-0.17123758727982638,0.4869207626342773
1761133542399366700,7.13936669921875,0.09571838204562663,-0.1386924313753843,0.43259281398877497
1761133542419213800,7.1592138671875,0.07563245635032653,-0.1259722121424973,0.40690468437224625
1761133542439060700,7.179060791015625,-0.07747603839039802,-0.1818694559313357,0.4111278184926137
1761133542458907600,7.19890771484375,-0.27928514341413974,-0.21790274621248243,0.36857418653201307
1761133542478754800,7.2187548828125,-0.5243149660050869,-0.22478607598543165,0.33208730726446956
1761133542498601700,7.238601806640625,-0.4456470874816179,-0.22568010221570728,0.02274739998951554
1761133542518447600,7.258447509765625,-0.40720191375315185,-0.2485334467977285,-0.18847225172985343
1761133542538294800,7.278294677734375,-0.17950667232275008,-0.35464082864969965,-0.2671239828361198
1761133542558141700,7.2981416015625,-0.038812253475189205,-0.3871878842502832,-0.2144709451328963
1761133542577988600,7.317988525390625,-0.019886603730916975,-0.34028292521238324,-0.26792335305288434
1761133542597835800,7.337835693359375,-0.05656359874308109,-0.2497667879849672,-0.3386766225269064
1761133542617681700,7.357681640625,0.03221066325306892,-0.24206337400078773,-0.34797216454073787
1761133542637528600,7.377528564453125,0.046591070783138275,-0.19441519538015126,-0.3559515093894675
1761133542657375700,7.397375732421875,-0.024791911429166792,-0.17307371666580437,-0.2839239821959287
1761133542677222700,7.41722265625,0.03850537948310375,-0.1760597467392683,-0.27378190635535865
1761133542697069600,7.437069580078125,0.2793184611618519,-0.09939677829742431,-0.3122201023537665
1761133542716915700,7.456915771484375,0.27164544231593607,-0.048971243917942046,-0.21038762134201824
1761133542736763000,7.476762939453125,0.26098084043860437,0.014272855502367019,-0.1113754584480077
1761133542756609800,7.49660986328125,0.18220657893121242,0.06217793149352073,-0.04379365861695259
1761133542776456700,7.516456787109375,-0.011014145967364311,0.19270576111376284,-0.07382814687471836
1761133542796304000,7.536303955078125,-0.1604559348940849,0.2980179009348154,-0.13496058790329843
1761133542816150800,7.55615087890625,-0.20434651454687117,0.3755155666351318,-0.1726579024065286
1761133542835996700,7.57599658203125,-0.07478782221972942,0.38565965176969763,-0.20959866292141377
