time,seconds_elapsed,z,y,x
1761133535333901800,0.07390185546875,-0.12089379131793976,-0.01426638476550579,-0.15273122489452362
1761133535353748700,0.093748779296875,-0.037754125893116,-0.013179948553442955,-0.06120096147060394
1761133535373595600,0.113595703125,0.017720870673656464,-0.035149987787008286,0.04931577295064926
1761133535393442800,0.13344287109375,0.048245564103126526,-0.059111498296260834,0.11554250121116638
1761133535413288700,0.153288818359375,0.059879157692193985,-0.08035391569137573,0.14266012609004974
1761133535433135900,0.173135986328125,0.08767197281122208,-0.05790700763463974,0.1662827432155609
1761133535452982800,0.192982666015625,0.10721051692962646,-0.062632717192173,0.16832144558429718
1761133535472829700,0.21282958984375,0.10182072967290878,-0.09048481285572052,0.1130763366818428
1761133535492676600,0.232676513671875,0.07768458127975464,-0.10187286138534546,0.056142646819353104
1761133535512523000,0.25252294921875,0.019453581422567368,-0.12039951980113983,0.004842080175876617
1761133535532370000,0.272369873046875,-0.02916822023689747,-0.09143952280282974,-0.01838238537311554
1761133535552216800,0.292216796875,-0.06030665338039398,-0.026538852602243423,-0.017927754670381546
1761133535572064000,0.31206396484375,-0.08297223597764969,-0.0054484521970152855,-0.06931841373443604
1761133535591911000,0.331910888671875,-0.09787887334823608,-0.03237185999751091,-0.2060576230287552
1761133535611757800,0.3517578125,-0.09867361187934875,-0.026723798364400864,-0.29258161783218384
1761133535631603700,0.371603759765625,-0.05695169419050217,-0.04589715972542763,-0.2900465428829193
1761133535651451000,0.391450927734375,0.10867775231599808,-0.3616900146007538,-0.2576121687889099
1761133535671297800,0.4112978515625,0.24571749567985535,-1.0508456230163574,-0.5183004140853882
1761133535691145000,0.43114501953125,0.25741052627563477,-1.3622111082077026,-0.9196208119392395
1761133535710992000,0.450991943359375,0.46732112765312195,-1.2381713390350342,-0.9994231462478638
1761133535730837800,0.470837646484375,0.49608114361763,-0.9154924750328064,-0.7945733666419983
1761133535750684700,0.4906845703125,0.4230395555496216,-0.5945031642913818,-0.5721407532691956
1761133535770531800,0.51053173828125,0.40347424149513245,-0.3424731194972992,-0.3555746078491211
1761133535790378800,0.530378662109375,0.3306463062763214,-0.13310496509075165,-0.19746451079845428
1761133535810225700,0.5502255859375,0.2440655529499054,0.08568354696035385,-0.17877720296382904
1761133535830072800,0.57007275390625,0.1611499786376953,0.25742024183273315,-0.19761042296886444
1761133535849918700,0.589918701171875,0.056570399552583694,0.4884609878063202,-0.10425713658332825
1761133535869765600,0.609765625,-0.08285004645586014,0.8069794178009033,-0.06129360571503639
1761133535889612800,0.62961279296875,-0.19980530440807343,1.2348805665969849,-0.07904230058193207
1761133535909459700,0.649459716796875,-0.22253268957138062,1.3171931505203247,-0.023303860798478127
1761133535929306600,0.669306640625,-0.1176769807934761,1.0356016159057617,0.29317769408226013
1761133535949153800,0.68915380859375,-0.29517826437950134,0.6188088655471802,0.4921203851699829
1761133535969000000,0.709,-0.6420458555221558,0.35329315066337585,0.4269423186779022
1761133535988846800,0.728846923828125,-0.8898766040802002,0.12144529074430466,0.336899995803833
1761133536008694000,0.748694091796875,-0.7839167714118958,0.024759577587246895,0.34645089507102966
1761133536028541000,0.768541015625,-0.46053561568260193,0.249916210770607,0.33737173676490784
1761133536048387800,0.788387939453125,-0.21203477680683136,0.6119722723960876,0.22202178835868835
1761133536068233700,0.808233642578125,-0.09656054526567459,0.8233613967895508,0.11165014654397964
1761133536088081000,0.828080810546875,0.054042749106884,0.8838301301002502,0.12248144298791885
1761133536107927800,0.847927734375,0.1679757535457611,0.7091050148010254,0.29525622725486755
1761133536127774700,0.867774658203125,0.2622672915458679,0.41448599100112915,0.39533525705337524
1761133536147622000,0.887621826171875,0.3470454812049866,0.2751771807670593,0.3266679644584656
1761133536167468800,0.90746875,0.37405747175216675,0.3184005320072174,0.1761367917060852
1761133536187314700,0.927314697265625,0.30528634786605835,0.2518986761569977,0.18702776730060577
1761133536207161900,0.947161865234375,0.23352313041687012,0.015248933807015419,0.3164021074771881
1761133536227009800,0.967009765625,0.2115161120891571,-0.2228323519229889,0.41736412048339844
1761133536246856700,0.986856689453125,0.24022898077964783,-0.33485740423202515,0.41964513063430786
1761133536266703600,1.00670361328125,0.29493746161460876,-0.27749282121658325,0.3588171899318695
1761133536286549500,1.026549560546875,0.39452165365219116,-0.04182368144392967,0.24451369047164917
1761133536306396700,1.046396728515625,0.44949522614479065,0.29221439361572266,0.13646775484085083
1761133536326243600,1.06624365234375,0.39805248379707336,0.5836039781570435,0.2422393560409546
1761133536346090500,1.086090576171875,0.2452862560749054,0.6358012557029724,0.3973815441131592
1761133536365937700,1.105937744140625,0.11202462017536163,0.4667220711708069,0.46719470620155334
1761133536385783600,1.125783447265625,-0.01375306211411953,0.09306591749191284,0.44328075647354126
1761133536405630500,1.14563037109375,-0.07801765948534012,-0.2535560429096222,0.3041224181652069
1761133536425477600,1.1654775390625,-0.1324950009584427,-0.6170868277549744,0.43737494945526123
1761133536445324500,1.185324462890625,-0.2883971631526947,-0.9802234768867493,1.0116088390350342
1761133536465171500,1.20517138671875,-0.3939034938812256,-1.2830207347869873,1.393621802330017
1761133536485018600,1.2250185546875,-0.34643861651420593,-1.3216681480407715,1.0370439291000366
1761133536504864800,1.24486474609375,-0.17653076350688934,-0.9698007106781006,0.39974766969680786
1761133536524711700,1.264711669921875,-0.06024237722158432,-0.17493945360183716,-0.15155833959579468
1761133536544558800,1.284558837890625,-0.15342110395431519,0.4547370374202728,-0.7609812021255493
1761133536564405800,1.30440576171875,-0.4558393359184265,0.8528727293014526,-1.2945631742477417
1761133536584252700,1.324252685546875,-0.832080066204071,0.995783805847168,-1.3641047477722168
1761133536604099800,1.344099853515625,-1.10324227809906,0.7820062041282654,-1.1407884359359741
1761133536623945700,1.36394580078125,-1.2593594789505005,0.32891833782196045,-1.069543719291687
1761133536643792600,1.383792724609375,-1.5914192199707031,-0.0714067816734314,-1.1304011344909668
1761133536663639600,1.4036396484375,-1.7802459001541138,-0.3044373393058777,-1.0335512161254883
1761133536683486700,1.42348681640625,-1.622220754623413,-0.27851375937461853,-0.8226956725120544
1761133536703333600,1.443333740234375,-1.3134808540344238,-0.15996649861335754,-0.6262726187705994
1761133536723179500,1.463179443359375,-1.2170166969299316,-0.13171865046024323,-0.34333932399749756
1761133536743026700,1.483026611328125,-1.4057124853134155,-0.23407654464244843,-0.0351325124502182
1761133536762873600,1.50287353515625,-1.456738829612732,-0.35808566212654114,0.12531138956546783
1761133536782720500,1.522720458984375,-1.1991233825683594,-0.48266372084617615,0.10034392774105072
1761133536802567700,1.542567626953125,-0.8232014775276184,-0.5301114916801453,-0.05623244866728783
1761133536822414600,1.56241455078125,-0.6280947327613831,-0.4185595214366913,-0.2564985454082489
1761133536842260500,1.582260498046875,-0.5677295923233032,-0.14362096786499023,-0.3529658615589142
1761133536862107600,1.602107666015625,-0.3894510269165039,0.16470684111118317,-0.32627415657043457
1761133536881954600,1.62195458984375,-0.22912201285362244,0.3131992220878601,-0.21478742361068726
1761133536901801500,1.641801513671875,-0.11724986135959625,0.3098856508731842,-0.1862121820449829
1761133536921648600,1.661648681640625,-0.03161497786641121,0.19850413501262665,-0.23128026723861694
1761133536941494800,1.681494873046875,0.05734873190522194,0.10824736952781677,-0.2787170112133026
1761133536961341700,1.701341796875,0.16383184492588043,0.04388405755162239,-0.20409181714057922
1761133536981188900,1.72118896484375,0.21608318388462067,-0.07016885280609131,-0.017236042767763138
1761133537001035800,1.741035888671875,0.24246644973754883,-0.12757933139801025,0.07671735435724258
1761133537020882700,1.760882568359375,0.25220000743865967,-0.11724953353404999,0.08898305147886276
1761133537040728600,1.780728515625,0.25582602620124817,-0.11271798610687256,0.11747008562088013
1761133537060575700,1.80057568359375,0.2612574100494385,-0.18481862545013428,0.1608540415763855
1761133537080422700,1.820422607421875,0.27099907398223877,-0.3407800495624542,0.18171316385269165
1761133537100269600,1.84026953125,0.2255367934703827,-0.41056540608406067,0.17268984019756317
1761133537120116700,1.86011669921875,0.17466183006763458,-0.352573961019516,0.23336347937583923
1761133537139963600,1.879963623046875,0.13504715263843536,-0.16925184428691864,0.33375978469848633
1761133537159809500,1.8998095703125,0.184371218085289,0.03221241384744644,0.3815167248249054
1761133537179656700,1.91965673828125,0.2715498208999634,0.08497445285320282,0.44873476028442383
1761133537199503600,1.939503662109375,0.3953869342803955,-0.06831101328134537,0.4137231707572937
1761133537219350500,1.9593505859375,0.7716413140296936,-0.09116977453231812,0.036417387425899506
1761133537239197400,1.979197509765625,1.0351364612579346,0.13463491201400757,-0.5844941735267639
1761133537259043300,1.999043212890625,0.8616639971733093,0.012610147707164288,-0.8808870315551758
1761133537278890500,2.018890380859375,0.6691402792930603,-0.4150373637676239,-0.8464707732200623
1761133537298737400,2.0387373046875,0.649470329284668,-0.20765548944473267,-0.7677736282348633
1761133537318584300,2.058584228515625,0.48463815450668335,0.5075974464416504,-0.4322436451911926
1761133537338431200,2.07843115234375,0.4914714992046356,1.0771358013153076,-0.16192303597927094
1761133537358277400,2.09827734375,0.8146470189094543,1.1476778984069824,-0.05239742249250412
1761133537378124500,2.11812451171875,1.0550997257232666,0.6860355734825134,-0.15578195452690125
1761133537397971500,2.137971435546875,0.9220408797264099,0.13664206862449646,-0.23897673189640045
1761133537417818400,2.157818359375,0.5004776120185852,-0.23907779157161713,0.027714530006051064
1761133537437665500,2.17766552734375,0.061531513929367065,-0.3164985477924347,0.5184077024459839
1761133537457512400,2.197512451171875,-0.26603415608406067,-0.5001015663146973,0.8766859769821167
1761133537477358300,2.2173583984375,-0.5619409084320068,-0.826544463634491,0.9766226410865784
1761133537497205500,2.23720556640625,-0.915882408618927,-0.9654285311698914,0.839626669883728
1761133537517052400,2.257052490234375,-0.9963523149490356,-0.97004234790802,0.5064540505409241
1761133537536899300,2.2768994140625,-0.6503903865814209,-0.8089463114738464,0.11544744670391083
1761133537556746500,2.29674658203125,-0.04727550595998764,-0.5136168003082275,-0.18602001667022705
1761133537576592400,2.31659228515625,0.49111929535865784,-0.2301483452320099,-0.38772428035736084
1761133537596439300,2.336439208984375,0.7151899933815002,-0.12151395529508591,-0.5629398822784424
1761133537616286500,2.356286376953125,0.5817365646362305,-0.19624097645282745,-0.5667356848716736
1761133537636133400,2.37613330078125,0.3589809536933899,-0.24917078018188477,-0.3976259231567383
1761133537655980300,2.395980224609375,0.15486817061901093,-0.2674378454685211,-0.10910651087760925
1761133537675827500,2.415827392578125,0.12656909227371216,0.0589178130030632,0.06805906444787979
1761133537695673300,2.43567333984375,0.31759539246559143,0.6449007987976074,0.14240528643131256
1761133537715520300,2.455520263671875,0.4980070888996124,0.9045235514640808,0.012924684211611748
1761133537735367400,2.475367431640625,0.8309345841407776,0.4569065272808075,-0.3335086703300476
1761133537755214300,2.49521435546875,0.9062446355819702,-1.6457545757293701,0.9014842510223389
1761133537775061200,2.515061279296875,0.366041362285614,0.6352881789207458,-1.089814305305481
1761133537794907400,2.534907470703125,0.8784432411193848,-0.6856803297996521,-2.415426254272461
1761133537814754600,2.554754638671875,0.7864494919776917,-0.6631744503974915,-1.9466619491577148
1761133537834601500,2.5746015625,0.3794945776462555,-0.14697547256946564,-0.5176544189453125
1761133537854448400,2.594448486328125,0.29803919792175293,0.3750663995742798,0.24267157912254333
1761133537874295600,2.614295654296875,0.5278980731964111,0.6593247056007385,0.2182503193616867
1761133537894141400,2.634141357421875,0.6558877229690552,0.4389660954475403,0.03220633044838905
1761133537913988400,2.65398828125,0.44863706827163696,0.04842842370271683,-0.2345786839723587
1761133537933835500,2.67383544921875,0.11336702853441238,-0.3359163999557495,-0.3411340117454529
1761133537953682400,2.693682373046875,-0.1586986482143402,-0.40777093172073364,-0.1807934045791626
1761133537973529300,2.713529296875,-0.24066928029060364,-0.36965814232826233,0.18265558779239655
1761133537993376500,2.73337646484375,-0.22203077375888824,-0.2562442719936371,0.47596675157546997
1761133538013222400,2.753222412109375,-0.21646244823932648,0.08102072775363922,0.5036200881004333
1761133538033069300,2.7730693359375,-0.10203072428703308,0.4283100366592407,0.3733976483345032
1761133538052916500,2.79291650390625,-0.015994077548384666,0.5037396550178528,0.2749854028224945
1761133538072763400,2.812763427734375,0.07888723164796829,0.3162175118923187,0.13758955895900726
1761133538092610300,2.8326103515625,0.3584204316139221,0.3261323571205139,-0.15980346500873566
1761133538112456400,2.85245654296875,0.4766790568828583,0.3314376175403595,-0.35302063822746277
1761133538132303400,2.872303466796875,0.24228447675704956,0.011170724406838417,-0.19439122080802917
1761133538152150300,2.892150390625,-0.16962821781635284,-0.021524937823414803,-0.11796241998672485
1761133538171997200,2.9119970703125,-0.5164229869842529,-0.050861574709415436,-0.23748287558555603
1761133538191844400,2.93184423828125,-0.6678581237792969,-0.027358537539839745,-0.35850852727890015
1761133538211691300,2.951691162109375,-0.6736775040626526,0.15421752631664276,-0.2854907810688019
1761133538231536400,2.971536376953125,-0.5450825691223145,0.24366189539432526,-0.09451690316200256
1761133538251383600,2.991383544921875,-0.38716357946395874,0.19770307838916779,0.12648415565490723
1761133538271230500,3.01123046875,-0.2482251524925232,0.08388805389404297,0.23551170527935028
1761133538291077400,3.031077392578125,-0.08156593143939972,-0.08483963459730148,0.24247069656848907
1761133538310924500,3.050924560546875,0.036005016416311264,-0.19078069925308228,0.2924662232398987
1761133538330770400,3.0707705078125,0.03070886805653572,-0.1650821715593338,0.3376729488372803
1761133538350617300,3.090617431640625,0.02161327749490738,-0.02559543401002884,0.31372562050819397
1761133538370464500,3.110464599609375,0.07192926853895187,0.08712344616651535,0.2183723896741867
1761133538390311400,3.1303115234375,0.1290755420923233,0.09797534346580505,0.16415077447891235
1761133538410158300,3.150158447265625,0.13696345686912537,-0.0161215178668499,0.24632343649864197
1761133538430004500,3.17000439453125,0.1627863198518753,-0.06304159760475159,0.3375072479248047
1761133538449851400,3.189851318359375,0.2645568549633026,-0.1578245311975479,0.40903905034065247
1761133538469698300,3.2096982421875,0.3138928711414337,-0.5184921622276306,0.4374614953994751
1761133538489545500,3.22954541015625,0.3143998980522156,-0.884854793548584,0.2968614995479584
1761133538509392400,3.249392333984375,0.4347667396068573,-0.8683596253395081,0.10855595022439957
1761133538529239300,3.2692392578125,0.41997313499450684,-0.6762754321098328,0.3553212583065033
1761133538549085400,3.28908544921875,0.15026243031024933,-0.47178879380226135,0.8600043654441833
1761133538568932600,3.3089326171875,0.02007334493100643,0.06631659716367722,0.7056818008422852
1761133538588779500,3.328779541015625,0.10806160420179367,0.5550158619880676,-0.0476677380502224
1761133538608626400,3.34862646484375,0.03867261856794357,0.5965093970298767,-0.6412792205810547
1761133538628473600,3.3684736328125,-0.23661594092845917,0.4723009765148163,-0.42703431844711304
1761133538648319500,3.388319580078125,-0.3678458333015442,0.48507994413375854,0.2100561410188675
1761133538668166400,3.40816650390625,-0.28609198331832886,0.329620897769928,0.9830557107925415
1761133538688013600,3.428013671875,-0.36007094383239746,0.07930740714073181,1.4699506759643555
1761133538707860500,3.447860595703125,-0.5645238161087036,-0.5276893377304077,1.4568716287612915
1761133538727707400,3.467707275390625,-0.8344082832336426,-1.077450156211853,1.0298113822937012
1761133538747554600,3.487554443359375,-0.8619223833084106,-1.5548620223999023,0.4695911109447479
1761133538767400400,3.507400390625,-0.542800784111023,-1.8369849920272827,0.005507111549377441
1761133538787247400,3.527247314453125,-0.3468943238258362,-1.5430817604064941,-0.22444650530815125
1761133538807094300,3.54709423828125,-0.33945906162261963,-0.8787972927093506,-0.18329255282878876
1761133538826941400,3.56694140625,-0.30314114689826965,-0.2699677050113678,-0.15328285098075867
1761133538846788400,3.586788330078125,-0.1527884602546692,-0.04480477049946785,-0.22597959637641907
1761133538866634500,3.606634521484375,0.0808032900094986,-0.014470170252025127,-0.40514126420021057
1761133538886481400,3.6264814453125,0.24629296362400055,0.017647579312324524,-0.5337479114532471
1761133538906328300,3.646328369140625,0.16282175481319427,0.13713467121124268,-0.4944545328617096
1761133538926175200,3.66617529296875,-0.02272745966911316,0.1529645025730133,-0.2760208249092102
1761133538946022400,3.6860224609375,-0.049167316406965256,-0.06336364895105362,-0.06075259670615196
1761133538965868500,3.70586865234375,0.5115419626235962,0.281374990940094,-0.16963811218738556
1761133538985715500,3.725715576171875,1.4872137308120728,0.8735320568084717,-0.6567408442497253
1761133539005562600,3.745562744140625,1.9141439199447632,0.42812517285346985,-1.1022427082061768
1761133539025409500,3.765409423828125,1.4173120260238647,-0.18506328761577606,-2.0030570030212402
1761133539045256400,3.78525634765625,0.675365149974823,-0.22585496306419373,-3.045910120010376
1761133539065103600,3.805103515625,-0.7566796541213989,0.46176308393478394,-1.878260850906372
1761133539084949500,3.824949462890625,-0.5743499994277954,1.8693352937698364,-0.018862474709749222
1761133539104796400,3.84479638671875,0.12229812145233154,1.9220373630523682,0.5932857394218445
1761133539124643600,3.8646435546875,0.462636262178421,0.2011047601699829,-0.31301432847976685
1761133539144490500,3.884490478515625,0.3145124018192291,-1.1175810098648071,-1.2331199645996094
1761133539164337400,3.90433740234375,0.12024179846048355,-0.7901596426963806,-0.8715552687644958
1761133539184183300,3.924183349609375,0.09019418805837631,0.015820017084479332,0.027993733063340187
1761133539204030500,3.944030517578125,-0.2100965976715088,0.30029863119125366,0.32885652780532837
1761133539223877400,3.96387744140625,-0.6731645464897156,0.24551527202129364,0.016274333000183105
1761133539243725800,3.983725830078125,-0.8293763995170593,0.10414782166481018,-0.37163567543029785
1761133539263570400,4.0035703125,-0.6887534260749817,0.011060778051614761,-0.3696630001068115
1761133539283417600,4.02341748046875,-0.5779578685760498,0.055414002388715744,-0.03081933781504631
1761133539303264500,4.043264404296875,-0.4840867221355438,0.2603074610233307,0.24125072360038757
1761133539323111700,4.063111572265625,-0.19964390993118286,0.5800988078117371,0.4249383509159088
1761133539342958600,4.08295849609375,0.11554532498121262,0.7738684415817261,0.6842204928398132
1761133539362804700,4.1028046875,0.10569743812084198,0.5174609422683716,0.8001183271408081
1761133539382651600,4.122651611328125,-0.2419898808002472,0.042665477842092514,0.6548557877540588
1761133539402498800,4.142498779296875,-0.6180576086044312,-0.14545081555843353,0.36079591512680054
1761133539422345700,4.162345703125,-0.5581161975860596,-0.05888910964131355,-0.011631706729531288
1761133539442192600,4.182192626953125,-0.20065249502658844,0.08211221545934677,-0.324555367231369
1761133539462038800,4.202038818359375,-0.025210842490196228,0.30544936656951904,-0.34157660603523254
1761133539481885700,4.2218857421875,-0.09473337978124619,0.5572753548622131,-0.07704223692417145
1761133539501732600,4.241732666015625,-0.17573662102222443,0.5444838404655457,0.30987903475761414
1761133539521579800,4.261579833984375,-0.212633416056633,0.2131817787885666,0.6289336681365967
1761133539541426700,4.2814267578125,-0.1754954606294632,-0.14299753308296204,0.6663382053375244
1761133539561273600,4.301273681640625,-0.13591326773166656,-0.33897149562835693,0.5641311407089233
1761133539581119700,4.32111962890625,-0.1363612711429596,-0.38022753596305847,0.4883340895175934
1761133539600966700,4.340966552734375,-0.11134052276611328,-0.4264830946922302,0.47590547800064087
1761133539620813600,4.3608134765625,-0.03071332350373268,-0.3304511606693268,0.5259408354759216
1761133539640660700,4.38066064453125,0.23975121974945068,0.26498550176620483,0.6399403214454651
1761133539660507600,4.400507568359375,0.6984992623329163,0.9805130362510681,0.43520021438598633
1761133539680354600,4.4203544921875,1.1360878944396973,0.6885500550270081,-0.4256499111652374
1761133539700201700,4.44020166015625,0.889594316482544,-0.26157835125923157,-1.5216425657272339
1761133539720048600,4.460048583984375,0.1738629788160324,-0.9471702575683594,-1.345329999923706
1761133539739894500,4.47989453125,0.2797483801841736,-0.4763755202293396,0.026828531175851822
1761133539759741400,4.499741455078125,0.7187312841415405,0.6642792224884033,1.6508357524871826
1761133539779588600,4.519588623046875,0.5309237241744995,1.3562732934951782,2.254274606704712
1761133539799435500,4.539435546875,-0.04327590763568878,1.384537696838379,1.6339857578277588
1761133539819282700,4.55928271484375,-0.11502878367900848,0.32253140211105347,0.5665857195854187
1761133539839128800,4.57912890625,-0.04908708482980728,-0.47388824820518494,-0.09205980598926544
1761133539858975700,4.598975830078125,-0.1996106505393982,-0.513489305973053,0.20570790767669678
1761133539878822700,4.61882275390625,-0.5208369493484497,-0.23450018465518951,0.9147193431854248
1761133539898669800,4.638669921875,-0.6713209748268127,0.02908219024538994,0.8462252616882324
1761133539918516700,4.658516845703125,-0.0748654156923294,0.11255951970815659,-0.09644044935703278
1761133539938363600,4.67836376953125,0.5941475033760071,-0.06448166817426682,-0.86310875415802
1761133539958209800,4.698209716796875,0.5409089922904968,-0.3336746096611023,-0.7603901028633118
1761133539978056700,4.718056640625,0.11067605763673782,-0.3663829267024994,-0.22371943295001984
1761133539997903600,4.737903564453125,-0.1435035616159439,-0.09088440984487534,0.13907775282859802
1761133540017750800,4.757750732421875,-0.3487086892127991,-0.07296007126569748,0.22777964174747467
1761133540037597700,4.77759765625,-0.5654188394546509,-0.23319947719573975,0.0027729161083698273
1761133540057443600,4.797443603515625,-0.6880046725273132,-0.40909096598625183,-0.3385087549686432
1761133540077290800,4.817290771484375,-0.7333042621612549,-0.2660321891307831,-0.6539852023124695
1761133540097137700,4.8371376953125,-0.4621563255786896,0.3160202205181122,-0.905487596988678
1761133540116984600,4.856984619140625,0.2161000370979309,1.6459295749664307,-1.612143874168396
1761133540136831700,4.876831787109375,0.4979000687599182,0.947428822517395,-1.6736057996749878
1761133540156677600,4.896677734375,0.2720768451690674,1.6086602210998535,-1.5428944826126099
1761133540176524500,4.916524658203125,-0.06899739056825638,0.8899169564247131,-2.8226206302642822
1761133540196371500,4.936371337890625,-0.4977330267429352,-0.6244407892227173,-2.660317897796631
1761133540216218600,4.956218505859375,-1.370395302772522,0.1356309950351715,-1.6672158241271973
1761133540236064800,4.976064697265625,-1.241947054862976,1.2348920106887817,-1.0487810373306274
1761133540255912000,4.995911865234375,-0.38771912455558777,1.0371426343917847,-0.8317886590957642
1761133540275757800,5.0157578125,0.24329081177711487,0.10545036941766739,-1.018219232559204
1761133540295604700,5.035604736328125,0.27097952365875244,-0.6953156590461731,-1.0019152164459229
1761133540315452000,5.055451904296875,0.34964221715927124,-0.7816894054412842,-0.797791063785553
1761133540335298800,5.075298828125,0.5932399034500122,-0.6065787076950073,-0.30097696185112
1761133540355145700,5.095145751953125,0.5824766755104065,-0.6632676124572754,0.2971521317958832
1761133540374992000,5.114991943359375,0.3048948049545288,-0.8149995803833008,0.6396673321723938
1761133540394838800,5.1348388671875,-0.09464825689792633,-0.5695356130599976,0.6001344919204712
1761133540414685700,5.154685791015625,-0.16365884244441986,-0.2522951662540436,0.3350657820701599
1761133540434532900,5.174532958984375,0.04889192804694176,-0.22510716319084167,0.1834513247013092
1761133540454379800,5.1943798828125,0.23255717754364014,-0.3081846535205841,0.19510702788829803
1761133540474226700,5.214226806640625,0.34554871916770935,-0.1554040014743805,0.026914335787296295
1761133540494072600,5.234072509765625,0.47507429122924805,0.156412273645401,-0.36262497305870056
1761133540513919700,5.253919677734375,0.44546937942504883,0.26775187253952026,-0.5431351661682129
1761133540533766700,5.2737666015625,0.16564561426639557,0.18505899608135223,-0.2940099537372589
1761133540553613800,5.29361376953125,-0.11135189980268478,0.1161627545952797,0.03558844327926636
1761133540573460700,5.313460693359375,-0.2380523532629013,0.2555772662162781,0.1789519190788269
1761133540593307000,5.333306884765625,-0.13862501084804535,0.4169788062572479,0.23362597823143005
1761133540613153800,5.35315380859375,0.005620040465146303,0.336762011051178,0.36374643445014954
1761133540633001000,5.3730009765625,0.0280435960739851,0.16246697306632996,0.43576234579086304
1761133540652847900,5.392847900390625,0.18996712565422058,0.1580945998430252,0.4272058308124542
1761133540672694800,5.41269482421875,0.4443085491657257,0.2593892514705658,0.3499988317489624
1761133540692541000,5.432541015625,0.5436439514160156,0.1895127147436142,0.13418860733509064
1761133540712387800,5.452387939453125,0.318765252828598,-0.19161881506443024,0.011250268667936325
1761133540732234800,5.47223486328125,0.03362629935145378,-0.4454713463783264,0.09651461988687515
1761133540752082000,5.49208203125,-0.14390377700328827,-0.4668671190738678,0.3652988076210022
1761133540771928800,5.5119287109375,-0.24456676840782166,-0.4432707726955414,0.6592432856559753
1761133540791775700,5.531775634765625,-0.27460339665412903,-0.448072612285614,0.7754691243171692
1761133540811622000,5.551621826171875,-0.18446417152881622,-0.5063185691833496,0.6944872736930847
1761133540831468800,5.57146875,-0.022298425436019897,-0.6912932395935059,0.6364300847053528
1761133540851315700,5.591315673828125,0.10007775574922562,-0.7257379293441772,0.5857159495353699
1761133540871163000,5.611162841796875,0.2265205979347229,-0.5896939039230347,0.4380592703819275
1761133540891009800,5.631009765625,0.23215949535369873,-0.5460721850395203,0.31271448731422424
1761133540910855700,5.650855712890625,-0.05173935741186142,-0.5254977941513062,0.2347155064344406
1761133540930702600,5.67070263671875,-0.3803466260433197,-0.5602661371231079,-0.1213996410369873
1761133540950549800,5.6905498046875,-0.015122349373996258,-0.38597309589385986,-0.8403434157371521
1761133540970396700,5.710396728515625,0.5933213233947754,0.7002578377723694,-1.3743934631347656
1761133540990243600,5.73024365234375,0.661150336265564,1.7312489748001099,-1.1588239669799805
1761133541010090000,5.750090087890625,-0.04929185286164284,1.3279458284378052,-0.6794095635414124
1761133541029937000,5.76993701171875,-0.40593886375427246,0.12718325853347778,-0.5182708501815796
1761133541049783800,5.78978369140625,-0.43352073431015015,-0.5133674144744873,-0.32022690773010254
1761133541069631000,5.809630859375,-0.5473623275756836,-0.20594792068004608,0.6193424463272095
1761133541089478000,5.829477783203125,-0.6567437648773193,0.6499125957489014,2.235107183456421
1761133541109324800,5.84932470703125,-0.20624670386314392,0.8884506821632385,2.9901249408721924
1761133541129171000,5.8691708984375,0.39021366834640503,-0.3431515693664551,1.809017300605774
1761133541149017900,5.889017822265625,0.3813868761062622,-1.5808289051055908,0.3027278184890747
1761133541168864800,5.90886474609375,0.630017101764679,-1.7213858366012573,-0.0017584841698408127
1761133541188712000,5.9287119140625,0.8743014931678772,-0.9580119848251343,0.6395925879478455
1761133541208558800,5.948558837890625,0.8099537491798401,-0.525682806968689,1.1319411993026733
1761133541228404700,5.96840478515625,0.6917518377304077,-0.28728553652763367,0.756866455078125
1761133541248252200,5.988252197265625,0.5975024700164795,0.09152070432901382,-0.2448074072599411
1761133541268099000,6.00809912109375,0.4801968038082123,0.3501743972301483,-1.158621072769165
1761133541287946000,6.027946044921875,0.409105509519577,0.27711883187294006,-1.3881155252456665
1761133541307793200,6.047793212890625,0.3412621319293976,-0.024553295224905014,-0.749215841293335
1761133541327639000,6.06763916015625,0.12034809589385986,-0.16464874148368835,0.17182207107543945
1761133541347486000,6.08748583984375,-0.22860832512378693,-0.1571497619152069,0.6939458250999451
1761133541367333000,6.1073330078125,-0.4247213304042816,-0.05551871284842491,0.7594836950302124
1761133541387180000,6.127179931640625,-0.4107612371444702,-0.15964828431606293,0.466757595539093
1761133541407027000,6.14702685546875,-0.3732822835445404,-0.2849213778972626,0.09366639703512192
1761133541426874000,6.1668740234375,-0.40208953619003296,-0.39052292704582214,0.027146246284246445
1761133541446720000,6.186719970703125,-0.04910818114876747,-0.031840451061725616,0.047274813055992126
1761133541466567000,6.20656689453125,0.6102316379547119,0.9360132217407227,-0.19137750566005707
1761133541486414000,6.2264140625,0.839644193649292,0.8923332691192627,-0.6466590166091919
1761133541506261000,6.246260986328125,1.2296226024627686,0.8803260326385498,-0.753399133682251
1761133541526108000,6.26610791015625,0.6166951656341553,1.2306641340255737,-1.7819172143936157
1761133541545954000,6.2859541015625,-0.07948806881904602,-0.4081125259399414,-2.439859390258789
1761133541565801200,6.30580126953125,-1.1118216514587402,-0.18350990116596222,-1.6836421489715576
1761133541585648000,6.325648193359375,-1.1404097080230713,1.093384861946106,-0.2456827014684677
1761133541605495000,6.3454951171875,-0.29680925607681274,1.5066606998443604,0.4323700964450836
1761133541625342200,6.36534228515625,0.024193430319428444,0.8733665347099304,0.27207615971565247
1761133541645188000,6.38518798828125,-0.14007483422756195,0.22974847257137299,-0.24264627695083618
1761133541665035000,6.405034912109375,-0.269808292388916,-0.13665449619293213,-0.5119456648826599
1761133541684882200,6.424882080078125,-0.42883190512657166,-0.3718404769897461,-0.35971805453300476
1761133541704729000,6.44472900390625,-0.5388225317001343,-0.6357442736625671,0.01952832192182541
1761133541724576000,6.464575927734375,-0.5160353779792786,-0.6290201544761658,0.45982450246810913
1761133541744423200,6.484423095703125,-0.5003750324249268,-0.4038555324077606,0.8161510825157166
1761133541764269000,6.50426904296875,-0.6186729669570923,-0.08879970014095306,1.1361271142959595
1761133541784116000,6.524115966796875,-0.7653126120567322,0.22064751386642456,1.263159155845642
1761133541803963100,6.543963134765625,-0.7594922184944153,0.5135754346847534,1.16025972366333
1761133541823810000,6.56381005859375,-0.6450058817863464,0.7700933814048767,1.1205071210861206
1761133541843657000,6.583656982421875,-0.36453723907470703,0.7317277193069458,1.1312683820724487
1761133541863503000,6.603503173828125,0.26798051595687866,-0.39173468947410583,0.3751234710216522
1761133541883350000,6.62335009765625,1.023198127746582,0.45181894302368164,0.9167178273200989
1761133541903197000,6.643197021484375,0.4283945560455322,0.8406792283058167,1.0767940282821655
1761133541923043800,6.6630439453125,0.24758917093276978,0.7664536833763123,1.008767008781433
1761133541942891000,6.68289111328125,0.14026407897472382,0.7234763503074646,0.908176839351654
1761133541962738000,6.702738037109375,0.03863595426082611,0.4711517095565796,0.5509300231933594
1761133541982584000,6.722583984375,0.007205483037978411,0.25747987627983093,0.1774490922689438
1761133542002431200,6.74243115234375,0.07480472326278687,0.17377784848213196,0.30430102348327637
1761133542022278100,6.762278076171875,0.20256488025188446,0.13062681257724762,0.5715371370315552
1761133542042125000,6.782125,0.29784196615219116,0.1188778206706047,0.731787919998169
1761133542061972200,6.80197216796875,0.298367440700531,0.08889219164848328,0.7597013115882874
1761133542081818000,6.821818115234375,0.2157207429409027,0.02466900274157524,0.7242275476455688
1761133542101665000,6.8416650390625,0.1311369091272354,0.014743269421160221,0.6688578724861145
1761133542121512200,6.86151220703125,0.06028389558196068,0.03291406109929085,0.5448793172836304
1761133542141359000,6.881359130859375,0.03765343874692917,0.12947019934654236,0.38803818821907043
1761133542161206000,6.9012060546875,0.0012166446540504694,0.10753768682479858,0.25487056374549866
1761133542181052000,6.921052001953125,-0.08037756383419037,-0.013680249452590942,0.18354471027851105
1761133542200899000,6.940899169921875,-0.13210977613925934,-0.08209315687417984,0.17095425724983215
1761133542220746000,6.96074609375,-0.12217743694782257,-0.08379539847373962,0.22131028771400452
1761133542240592600,6.980592529296875,-0.08935398608446121,-0.018323605880141258,0.3342765271663666
1761133542260439600,7.000439453125,-0.0353403314948082,0.10393936187028885,0.47745880484580994
1761133542280286700,7.02028662109375,0.0031526728998869658,0.22982393205165863,0.5951417684555054
1761133542300132900,7.0401328125,0.022200945764780045,0.28188782930374146,0.6253095269203186
1761133542319979800,7.059979736328125,0.020271625369787216,0.25932714343070984,0.5278955101966858
1761133542339826700,7.07982666015625,0.02893640846014023,0.2089104801416397,0.43535831570625305
1761133542359673900,7.099673828125,0.022696636617183685,0.1553552746772766,0.3898552656173706
1761133542379520800,7.119520751953125,-0.0045875851064920425,0.06507411599159241,0.3852219581604004
1761133542399366700,7.13936669921875,-0.0060423011891543865,-0.03778428956866264,0.398267924785614
1761133542419213800,7.1592138671875,0.022611400112509727,-0.14462202787399292,0.41660404205322266
1761133542439060700,7.179060791015625,0.07875432819128036,-0.16666734218597412,0.4137430191040039
1761133542458907600,7.19890771484375,0.10870025306940079,-0.0782935693860054,0.40400445461273193
1761133542478754800,7.2187548828125,0.08605539798736572,0.02232038788497448,0.35735973715782166
1761133542498601700,7.238601806640625,0.05283982679247856,0.04658300057053566,0.2610015273094177
1761133542518447600,7.258447509765625,0.03827545791864395,0.03822078928351402,0.14011354744434357
1761133542538294800,7.278294677734375,0.023876847699284554,-0.00004456820897758007,0.07830259203910828
1761133542558141700,7.2981416015625,-0.015644218772649765,-0.0311141200363636,0.054524682462215424
1761133542577988600,7.317988525390625,-0.02498478628695011,-0.07391849905252457,0.04806188866496086
1761133542597835800,7.337835693359375,0.009743650443851948,-0.07896602153778076,0.05653587356209755
1761133542617681700,7.357681640625,0.05102281644940376,-0.06630068272352219,0.11022096127271652
1761133542637528600,7.377528564453125,0.09127859026193619,-0.06568289548158646,0.1277298927307129
1761133542657375700,7.397375732421875,0.11388023942708969,-0.046572472900152206,0.10960265249013901
1761133542677222700,7.41722265625,0.13187476992607117,-0.016095470637083054,0.13392788171768188
1761133542697069600,7.437069580078125,0.12158939987421036,-0.021995997056365013,0.15973319113254547
1761133542716915700,7.456915771484375,0.11525684595108032,-0.004532371647655964,0.1863587498664856
1761133542736763000,7.476762939453125,0.10506849735975266,0.03723162040114403,0.25516176223754883
1761133542756609800,7.49660986328125,0.09064346551895142,0.04228898137807846,0.279141366481781
1761133542776456700,7.516456787109375,0.08285267651081085,-0.010126234032213688,0.21860051155090332
1761133542796304000,7.536303955078125,0.07239136099815369,-0.11758588999509811,0.07003679126501083
1761133542816150800,7.55615087890625,0.034722454845905304,-0.24791200459003448,-0.06882646679878235
1761133542835996700,7.57599658203125,-0.005762090440839529,-0.286673903465271,-0.0518932044506073
