time,seconds_elapsed,z,y,x
1761132271294014500,0.121014404296875,-1.7196464538574219,-0.8885475397109985,2.9776418209075928
1761132271324014800,0.151014892578125,-1.7400102615356445,-0.8199585676193237,2.9374630451202393
1761132271334015000,0.161014892578125,-1.7466859817504883,-0.7982217073440552,2.9215645790100098
1761132271344014800,0.171014892578125,-1.7506494522094727,-0.7896748781204224,2.9034974575042725
1761132271354015000,0.181014892578125,-1.7530107498168945,-0.7846711874008179,2.8923897743225098
1761132271364015000,0.19101513671875,-1.7543010711669922,-0.782525897026062,2.8851194381713867
1761132271374015000,0.201014892578125,-1.7546672821044922,-0.7854822874069214,2.876098871231079
1761132271384015000,0.21101513671875,-1.7535333633422852,-0.7983514070510864,2.8608827590942383
1761132271394015000,0.221014892578125,-1.7519254684448242,-0.8222755193710327,2.826892614364624
1761132271404012500,0.231012451171875,-1.748666763305664,-0.862282395362854,2.771678924560547
1761132271414012400,0.241012451171875,-1.7422113418579102,-0.9222809076309204,2.6958868503570557
1761132271424012500,0.251012451171875,-1.7344045639038086,-0.9890154600143433,2.6052327156066895
1761132271434012400,0.261012451171875,-1.7287988662719727,-1.0369707345962524,2.5291409492492676
1761132271444012500,0.271012451171875,-1.7359199523925781,-1.013900876045227,2.5091445446014404
1761132271454012400,0.281012451171875,-1.753861427307129,-0.929695725440979,2.5375587940216064
1761132271464012500,0.291012451171875,-1.7749643325805664,-0.8084636926651001,2.6175296306610107
1761132271474012400,0.301012451171875,-1.7930421829223633,-0.6646441221237183,2.754340648651123
1761132271484012500,0.311012451171875,-1.8038501739501953,-0.5022187232971191,2.9485089778900146
1761132271494012400,0.321012451171875,-1.8081130981445312,-0.3281097412109375,3.155789852142334
1761132271504012500,0.331012451171875,-1.8114604949951172,-0.14832115173339844,3.3263328075408936
1761132271514012400,0.341012451171875,-1.818446159362793,0.03006422519683838,3.437607526779175
1761132271524012500,0.351012451171875,-0.8943653106689453,-1.266105055809021,-0.6309584379196167
1761132271534012700,0.3610126953125,-1.2441911697387695,-1.4789752960205078,-0.3965200185775757
1761132271544012500,0.371012451171875,-0.9624814987182617,-0.7888073325157166,-1.1829551458358765
1761132271554012700,0.3810126953125,-0.6199254989624023,-0.49083802103996277,-1.0554507970809937
1761132271564012500,0.391012451171875,0.1098623275756836,0.7592483162879944,-0.5756869316101074
1761132271574012700,0.4010126953125,2.272491455078125,2.51849102973938,-0.5749105215072632
1761132271584012500,0.411012451171875,-1.0082902908325195,1.5527832508087158,0.8768011331558228
1761132271594012700,0.4210126953125,-5.285049915313721,-0.7988473176956177,1.9127466678619385
1761132271604011800,0.43101171875,-6.0167951583862305,-1.5737916231155396,-0.03063035011291504
1761132271614011600,0.44101171875,-4.791662216186523,-1.1333202123641968,-1.161969542503357
1761132271624011500,0.451011474609375,-3.7043251991271973,-0.8430091142654419,0.2187989354133606
1761132271634011600,0.46101171875,-1.9162163734436035,-0.7672499418258667,2.014448642730713
1761132271644011500,0.471011474609375,3.21401309967041,-0.5461201071739197,5.957088947296143
1761132271654011600,0.48101171875,3.7026052474975586,-1.0821248292922974,5.495372772216797
1761132271664011500,0.491011474609375,1.0139694213867188,-0.6724855899810791,4.0816731452941895
1761132271674011600,0.50101171875,-1.9776835441589355,0.09136438369750977,2.9996440410614014
1761132271684011500,0.511011474609375,-3.785090923309326,0.2640190124511719,2.468963384628296
1761132271694011600,0.52101171875,-5.016970157623291,0.6694103479385376,2.101332426071167
1761132271704012500,0.531012451171875,-7.1009416580200195,2.2753591537475586,-2.4264917373657227
1761132271714012400,0.541012451171875,-4.585447788238525,1.7774312496185303,-1.8590387105941772
1761132271724012500,0.551012451171875,-2.808716297149658,-0.04564565420150757,1.190392017364502
1761132271734012400,0.561012451171875,-0.7226724624633789,0.2664734721183777,1.4468495845794678
1761132271744012500,0.571012451171875,0.653264045715332,1.2941527366638184,1.4538722038269043
1761132271754012400,0.581012451171875,0.7664766311645508,1.0598033666610718,2.9548428058624268
1761132271764012500,0.591012451171875,0.7637100219726562,1.1844054460525513,2.9434750080108643
1761132271774012400,0.601012451171875,-1.4530220031738281,1.0598983764648438,4.741690158843994
1761132271784012500,0.611012451171875,-3.741879940032959,0.7794762849807739,4.5889129638671875
1761132271794012400,0.621012451171875,-5.485881328582764,0.781904935836792,4.024963855743408
1761132271804011800,0.63101171875,-7.480596542358398,0.9078435897827148,2.194823980331421
1761132271814011600,0.64101171875,-6.444937705993652,1.643758773803711,-0.20622766017913818
1761132271824011800,0.65101171875,-3.0139598846435547,1.443342685699463,1.4372655153274536
1761132271834011600,0.66101171875,-0.9478445053100586,0.9449551105499268,2.631960391998291
1761132271844011500,0.671011474609375,-1.6257429122924805,0.5064600706100464,2.833414077758789
1761132271854011600,0.68101171875,-2.75162410736084,0.1787913590669632,3.569002628326416
1761132271864011500,0.691011474609375,-3.211491584777832,0.0782289057970047,2.2056612968444824
1761132271874011600,0.70101171875,-2.7184677124023438,2.1420915126800537,0.4723990559577942
1761132271884011500,0.711011474609375,-3.316828727722168,2.690554141998291,-0.9255750775337219
1761132271894011600,0.72101171875,-1.3784904479980469,2.505495309829712,-3.0655884742736816
1761132271904012500,0.731012451171875,4.395198822021484,3.272575855255127,-5.191655158996582
1761132271914012400,0.741012451171875,13.075056076049805,3.338331699371338,-4.498467445373535
1761132271924012500,0.751012451171875,23.977210998535156,2.661489486694336,-4.281590461730957
1761132271934012400,0.761012451171875,27.007858276367188,4.739567756652832,-4.860294342041016
1761132271944012500,0.771012451171875,29.893009185791016,1.2435896396636963,5.942863464355469
1761132271954012400,0.781012451171875,29.615392684936523,2.0454957485198975,9.4719820022583
1761132271964012300,0.79101220703125,30.687389373779297,4.305463790893555,11.756253242492676
1761132271974012200,0.80101220703125,29.2674503326416,5.3044281005859375,12.87426471710205
1761132271984012300,0.81101220703125,27.562236785888672,5.099311351776123,11.557445526123047
1761132271994012200,0.82101220703125,23.662796020507812,3.3971574306488037,9.94631290435791
1761132272004011300,0.83101123046875,18.833209991455078,2.2273612022399902,8.123037338256836
1761132272014011400,0.841011474609375,13.920199394226074,1.6596896648406982,5.815859317779541
1761132272024011300,0.85101123046875,10.527002334594727,1.2807071208953857,3.621891975402832
1761132272034011400,0.861011474609375,8.457075119018555,1.051081657409668,2.1768264770507812
1761132272044011300,0.87101123046875,7.3328094482421875,1.011552333831787,1.8470361232757568
1761132272054011400,0.881011474609375,6.7678985595703125,0.7635109424591064,1.686032772064209
1761132272064011300,0.89101123046875,6.449450492858887,0.05541682243347168,1.3235464096069336
1761132272074011400,0.901011474609375,6.90037727355957,-0.8939852714538574,1.2860958576202393
1761132272084011300,0.91101123046875,7.395367622375488,-1.3009039163589478,2.132086753845215
1761132272094011400,0.921011474609375,5.653944969177246,-1.9369709491729736,3.624678611755371
1761132272104012300,0.93101220703125,1.25787353515625,-2.4048068523406982,2.5251617431640625
1761132272114012200,0.94101220703125,-3.87782621383667,-3.612942934036255,1.3535114526748657
1761132272124012300,0.95101220703125,-8.317676544189453,-4.733949661254883,0.18839752674102783
1761132272134012200,0.96101220703125,-11.053150177001953,-5.617119312286377,-0.4245501756668091
1761132272144012300,0.97101220703125,-12.239765167236328,-6.543654918670654,-0.6479640007019043
1761132272154012200,0.98101220703125,-12.833765983581543,-7.331057071685791,-2.487795352935791
1761132272164012300,0.99101220703125,-12.991501808166504,-8.209489822387695,-2.945161819458008
1761132272174012200,1.00101220703125,-12.817502975463867,-8.881383895874023,-3.288571834564209
1761132272184012300,1.01101220703125,-13.096261978149414,-9.593502044677734,-3.738762378692627
1761132272194012200,1.02101220703125,-13.714151382446289,-10.127973556518555,-4.189340591430664
1761132272204011500,1.031011474609375,-14.347850799560547,-10.347298622131348,-4.7574262619018555
1761132272214011400,1.041011474609375,-15.022103309631348,-10.280315399169922,-4.7557053565979
1761132272224011500,1.051011474609375,-15.757225036621094,-10.066361427307129,-4.008774280548096
1761132272234011400,1.061011474609375,-16.098876953125,-9.829980850219727,-3.098139762878418
1761132272244011500,1.071011474609375,-16.014293670654297,-9.47485637664795,-2.4472110271453857
1761132272254011400,1.081011474609375,-15.789554595947266,-9.258996963500977,-2.042707920074463
1761132272264011800,1.09101171875,-15.160211563110352,-9.162603378295898,-1.4967505931854248
1761132272274011600,1.10101171875,-14.378328323364258,-8.838005065917969,-1.3620703220367432
1761132272284011800,1.11101171875,-13.549386978149414,-8.795533180236816,-1.2629013061523438
1761132272294011600,1.12101171875,-12.808231353759766,-8.727987289428711,-1.1213127374649048
1761132272304012300,1.13101220703125,-12.198246002197266,-8.58758544921875,-1.0552873611450195
1761132272314012200,1.14101220703125,-11.716654777526855,-8.422235488891602,-0.8902242183685303
1761132272324012300,1.15101220703125,-10.910861015319824,-8.277288436889648,-0.6113392114639282
1761132272334012200,1.16101220703125,-10.505753517150879,-7.959108352661133,-0.45279818773269653
1761132272344012300,1.17101220703125,-10.145291328430176,-7.673544883728027,-0.6451721787452698
1761132272354012200,1.18101220703125,-10.903876304626465,-7.50919246673584,0.015638113021850586
1761132272364012500,1.191012451171875,-10.457984924316406,-7.4822998046875,0.003871440887451172
1761132272374012400,1.201012451171875,-10.290620803833008,-7.223240852355957,-0.195220947265625
1761132272384012500,1.211012451171875,-10.176815032958984,-7.071125030517578,0.0892554521560669
1761132272394012400,1.221012451171875,-9.286797523498535,-6.643017292022705,0.11784994602203369
1761132272404011500,1.231011474609375,-7.7960920333862305,-6.164525985717773,0.02697288990020752
1761132272414013200,1.24101318359375,-5.7585768699646,-5.409821510314941,-0.04108309745788574
1761132272424013300,1.251013427734375,-3.338676929473877,-4.465587615966797,-0.48007845878601074
1761132272434013200,1.26101318359375,0.21571636199951172,-3.4764938354492188,-0.642991304397583
1761132272444013300,1.271013427734375,3.8192758560180664,-2.0201539993286133,-0.8190538883209229
1761132272454013200,1.28101318359375,6.983875274658203,-0.4669027328491211,-0.4653897285461426
1761132272464013300,1.291013427734375,8.600642204284668,1.5639681816101074,-0.14484381675720215
1761132272474013200,1.30101318359375,10.335179328918457,4.594411849975586,-0.3910024166107178
1761132272484013300,1.311013427734375,12.658952713012695,8.392500877380371,-0.15355825424194336
1761132272494013200,1.32101318359375,16.559005737304688,11.811397552490234,2.0761516094207764
1761132272504014000,1.33101416015625,24.13152503967285,13.356919288635254,4.280572891235352
1761132272514014000,1.341013916015625,35.46516036987305,11.092275619506836,7.428272247314453
1761132272524014000,1.35101416015625,35.35851287841797,11.270950317382812,7.033851623535156
1761132272534014200,1.36101416015625,44.772056579589844,7.556466102600098,7.898339748382568
1761132272544014000,1.37101416015625,41.22662353515625,7.991128444671631,7.513628959655762
1761132272554014200,1.38101416015625,34.693363189697266,9.514683723449707,6.482753753662109
1761132272564014000,1.39101416015625,26.455810546875,10.091058731079102,5.733572959899902
1761132272574014200,1.40101416015625,20.864402770996094,9.79279899597168,4.07371711730957
1761132272584014000,1.41101416015625,16.12281036376953,9.108957290649414,2.689270496368408
1761132272594014000,1.421013916015625,11.861783027648926,7.882946968078613,1.7052685022354126
1761132272604013800,1.431013916015625,9.019989013671875,6.359798908233643,1.2152791023254395
1761132272614013700,1.441013671875,7.215807914733887,4.822392463684082,1.174208641052246
1761132272624013600,1.451013671875,7.094606399536133,2.864967107772827,1.4526314735412598
1761132272634013700,1.461013671875,6.4852800369262695,1.5225855112075806,1.110823631286621
1761132272644013600,1.471013671875,4.480018615722656,0.28320205211639404,0.6688047051429749
1761132272654013700,1.481013671875,1.5491676330566406,-0.7532011270523071,0.059410810470581055
1761132272664013300,1.491013427734375,-1.4925050735473633,-1.6418795585632324,-0.5598289966583252
1761132272674013400,1.501013427734375,-4.198197364807129,-2.4430463314056396,-0.7708917856216431
1761132272684013600,1.511013671875,-6.710880756378174,-3.2711215019226074,-0.7972507476806641
1761132272694013400,1.521013427734375,-8.391799926757812,-3.9415154457092285,-0.6805025339126587
1761132272704014300,1.531014404296875,-9.878554344177246,-4.4463419914245605,-0.6489713191986084
1761132272714012700,1.5410126953125,-11.1978120803833,-4.972820281982422,-0.3264576196670532
1761132272724012500,1.551012451171875,-12.3613862991333,-5.482087135314941,0.18405401706695557
1761132272734012700,1.5610126953125,-13.457754135131836,-5.682509899139404,0.5514333248138428
1761132272744012500,1.571012451171875,-14.450557708740234,-5.790450572967529,0.8317465782165527
1761132272757440800,1.584440673828125,-15.112550735473633,-5.7563300132751465,0.9687923192977905
1761132272767440600,1.594440673828125,-15.59653091430664,-5.754152297973633,1.176161289215088
1761132272777440800,1.604440673828125,-16.184789657592773,-5.815497398376465,1.0802853107452393
1761132272787440600,1.614440673828125,-16.39938735961914,-5.752444744110107,1.2614529132843018
1761132272797440800,1.624440673828125,-16.265380859375,-5.413900375366211,1.280517578125
1761132272807440000,1.63443994140625,-15.95759391784668,-5.122814178466797,1.0396193265914917
1761132272817439700,1.644439697265625,-15.555810928344727,-5.036233425140381,1.1187103986740112
1761132272827439900,1.65443994140625,-14.762260437011719,-5.012279033660889,1.3465909957885742
1761132272837439700,1.664439697265625,-13.724464416503906,-4.8151140213012695,1.5711363554000854
1761132272847440000,1.67443994140625,-12.691255569458008,-4.870436191558838,1.6168370246887207
1761132272857439700,1.684439697265625,-11.626898765563965,-4.997952461242676,1.7883356809616089
1761132272867439900,1.69443994140625,-10.86513900756836,-5.127224922180176,1.891272783279419
1761132272877439700,1.704439697265625,-10.1663236618042,-5.237039566040039,1.9284133911132812
1761132272887440000,1.71443994140625,-9.702250480651855,-5.297633171081543,1.8191382884979248
1761132272897439700,1.724439697265625,-9.429788589477539,-5.3669538497924805,1.7048252820968628
1761132272907440400,1.7344404296875,-9.224543571472168,-5.408524513244629,1.5432562828063965
1761132272917440500,1.7444404296875,-8.776082992553711,-5.349272727966309,1.431910753250122
1761132272927440600,1.754440673828125,-8.546684265136719,-5.363982200622559,1.6394503116607666
1761132272937440500,1.7644404296875,-8.178330421447754,-5.414670467376709,1.7848371267318726
1761132272947440600,1.774440673828125,-7.383493423461914,-5.335439682006836,1.8417762517929077
1761132272957440500,1.7844404296875,-6.2544026374816895,-5.197007656097412,1.525451421737671
1761132272967440600,1.794440673828125,-6.263696193695068,-5.093638896942139,1.547468662261963
1761132272977440500,1.8044404296875,-2.5302982330322266,-4.43604850769043,1.6297379732131958
1761132272987440400,1.8144404296875,-1.2281522750854492,-3.8061351776123047,2.099492073059082
1761132272997440500,1.8244404296875,-0.07551097869873047,-3.024897575378418,3.1979284286499023
1761132273007439600,1.834439697265625,1.5428972244262695,-1.8639717102050781,4.246059417724609
1761132273017439700,1.844439697265625,3.587368965148926,-0.5538328886032104,5.469964504241943
1761132273027439600,1.854439697265625,5.184517860412598,0.7024874687194824,6.211735248565674
1761132273037439700,1.864439697265625,7.392302513122559,3.245999813079834,5.248319625854492
1761132273047439600,1.874439697265625,10.97217845916748,5.656764984130859,3.265333890914917
1761132273057439700,1.884439697265625,17.00139808654785,6.357726097106934,2.973865509033203
1761132273067439600,1.894439697265625,23.552154541015625,7.281180381774902,3.9145874977111816
1761132273077439700,1.904439697265625,29.102088928222656,8.94240951538086,4.983951568603516
1761132273087439600,1.914439697265625,33.109371185302734,10.454214096069336,6.311373710632324
1761132273097439700,1.924439697265625,36.549373626708984,10.97130012512207,7.72610330581665
1761132273107440600,1.934440673828125,40.970062255859375,10.855690002441406,7.941295623779297
1761132273117440500,1.9444404296875,42.564632415771484,10.335801124572754,8.169851303100586
1761132273127440600,1.954440673828125,39.03626251220703,10.577552795410156,8.378070831298828
1761132273137440500,1.9644404296875,31.915538787841797,11.011104583740234,8.175261497497559
1761132273147440600,1.974440673828125,22.973812103271484,10.819793701171875,8.006753921508789
1761132273157440500,1.9844404296875,16.391048431396484,9.253640174865723,7.714669227600098
1761132273167440600,1.994440673828125,10.987223625183105,6.9471116065979,7.018792629241943
1761132273177440500,2.0044404296875,6.803750038146973,4.543568134307861,6.326174259185791
1761132273187440600,2.014440673828125,3.541865348815918,2.687045097351074,5.285733699798584
1761132273197440500,2.0244404296875,0.64599609375,0.9056198596954346,3.717933177947998
1761132273207439600,2.034439697265625,-1.5810041427612305,-1.160353183746338,1.899474859237671
1761132273217439700,2.044439697265625,-2.52999210357666,-2.780719757080078,-0.000260770320892334
1761132273227439600,2.054439697265625,-3.515072822570801,-4.005251407623291,-1.8351744413375854
1761132273237439700,2.064439697265625,-5.200652122497559,-5.001738548278809,-3.043869972229004
1761132273247439600,2.074439697265625,-6.95961856842041,-5.524503707885742,-3.5558719635009766
1761132273257439700,2.084439697265625,-8.765851020812988,-5.83949613571167,-3.5572195053100586
1761132273267439600,2.094439697265625,-10.926398277282715,-6.378171443939209,-3.353261709213257
1761132273277439700,2.104439697265625,-12.757694244384766,-6.7957940101623535,-2.949049949645996
1761132273287439600,2.114439697265625,-14.430717468261719,-7.024456977844238,-2.594670295715332
1761132273297439700,2.124439697265625,-15.700525283813477,-7.044716835021973,-2.3556501865386963
1761132273307440600,2.134440673828125,-16.458887100219727,-7.069779396057129,-2.0334455966949463
1761132273317440500,2.1444404296875,-16.554609298706055,-7.134404182434082,-1.5368678569793701
1761132273327406300,2.15440625,-16.290433883666992,-7.142928123474121,-1.2158410549163818
1761132273367273000,2.19427294921875,-14.922224044799805,-7.08505916595459,-1.1989092826843262
1761132273377239800,2.20423974609375,-14.24644660949707,-6.948884963989258,-1.4987221956253052
1761132273387206400,2.214206298828125,-13.401268005371094,-6.9055023193359375,-1.8429967164993286
1761132273397173000,2.224173095703125,-12.512598037719727,-6.828529357910156,-2.191901445388794
1761132273407138800,2.234138916015625,-11.424555778503418,-6.710261344909668,-2.2543892860412598
1761132273417105700,2.244105712890625,-10.225263595581055,-6.312137126922607,-2.279296636581421
1761132273427072300,2.254072265625,-9.399580955505371,-5.859979629516602,-2.3664584159851074
1761132273437038800,2.264038818359375,-9.11973762512207,-5.560365676879883,-2.3738064765930176
1761132273447005400,2.27400537109375,-9.120413780212402,-5.213471412658691,-2.308509111404419
1761132273456972300,2.28397216796875,-9.164628028869629,-4.892197608947754,-2.219587802886963
1761132273466939000,2.29393896484375,-9.133322715759277,-4.590830326080322,-2.1073527336120605
1761132273476905500,2.303905517578125,-8.945741653442383,-4.2390007972717285,-1.7911627292633057
1761132273486872000,2.3138720703125,-8.683300018310547,-4.174920082092285,-1.5195703506469727
1761132273496839000,2.3238388671875,-8.7742919921875,-3.9402577877044678,-1.3366997241973877
1761132273506806500,2.333806640625,-8.809676170349121,-3.797825336456299,-0.768427312374115
1761132273516773000,2.343773193359375,-8.417680740356445,-3.567682981491089,0.08063721656799316
1761132273526739700,2.35373974609375,-7.207093238830566,-3.165283679962158,0.8097864389419556
1761132273536706600,2.36370654296875,-4.637248992919922,-2.6693649291992188,0.7778912782669067
1761132273546673200,2.373673095703125,-1.8522067070007324,-2.457965135574341,0.4204542934894562
1761132273556639700,2.3836396484375,0.22688865661621094,-2.1425344944000244,-0.10660737752914429
1761132273566606300,2.3936064453125,1.6098175048828125,-1.6514227390289307,-0.2985699772834778
1761132273576573200,2.4035732421875,2.2441930770874023,-0.9051803350448608,-0.10673266649246216
1761132273586539800,2.413539794921875,3.582503318786621,0.6002328395843506,0.05188113451004028
1761132273596506400,2.42350634765625,6.113703727722168,3.0188465118408203,-0.13914024829864502
1761132273606472200,2.43347216796875,9.322625160217285,5.055263519287109,-2.1858139038085938
1761132273616438800,2.443438720703125,14.274033546447754,6.682344436645508,-4.096813678741455
1761132273626439700,2.453439697265625,20.798324584960938,8.333940505981445,-4.204558372497559
1761132273636439800,2.463439697265625,31.71124839782715,9.484100341796875,2.7485270500183105
1761132273646439700,2.473439697265625,44.86728286743164,10.380603790283203,14.1930570602417
1761132273656439800,2.483439697265625,50.249359130859375,10.2098388671875,22.53200340270996
1761132273666439700,2.493439697265625,42.99687194824219,8.685218811035156,25.52537727355957
1761132273676439600,2.503439453125,29.771190643310547,8.779508590698242,24.254562377929688
1761132273686439700,2.513439697265625,19.02277946472168,9.598368644714355,20.365564346313477
1761132273696439600,2.523439453125,14.159248352050781,9.768821716308594,15.554667472839355
1761132273706440400,2.5334404296875,12.445929527282715,8.55232048034668,10.401008605957031
1761132273716440600,2.543440673828125,12.281509399414062,6.904273986816406,4.596668243408203
1761132273726440400,2.5534404296875,12.223495483398438,7.071754455566406,4.943090915679932
1761132273736440600,2.563440673828125,6.904102325439453,4.0226826667785645,-1.0730748176574707
1761132273746440400,2.5734404296875,3.966721534729004,2.7307162284851074,-1.8594049215316772
1761132273756440600,2.583440673828125,2.5504207611083984,1.537761926651001,-1.9603315591812134
1761132273766440700,2.593440673828125,0.9372930526733398,0.3615800142288208,-1.382253885269165
1761132273776440600,2.603440673828125,-1.4656171798706055,-0.6057626008987427,-0.7496353387832642
1761132273786440700,2.613440673828125,-4.618526935577393,-1.0837466716766357,-0.6634914875030518
1761132273796440600,2.623440673828125,-8.085017204284668,-1.7571067810058594,-0.8134657144546509
1761132273806439700,2.633439697265625,-11.082657814025879,-2.45660400390625,-1.035961627960205
1761132273816439800,2.643439697265625,-13.073099136352539,-3.0357234477996826,-1.087225079536438
1761132273826439700,2.653439697265625,-14.233776092529297,-3.442333936691284,-0.982795238494873
1761132273836439600,2.663439453125,-14.849615097045898,-3.821263551712036,-0.6540068984031677
1761132273846439700,2.673439697265625,-14.961431503295898,-4.212059020996094,-0.15282154083251953
1761132273856439600,2.683439453125,-14.778074264526367,-4.525375843048096,0.3410666584968567
1761132273866439700,2.693439697265625,-14.253758430480957,-4.713277339935303,0.7668082118034363
1761132273876439600,2.703439453125,-14.020566940307617,-4.71154260635376,0.8686336278915405
1761132273886439700,2.713439697265625,-14.217910766601562,-5.052966117858887,1.397388219833374
1761132273896439800,2.723439697265625,-14.35934066772461,-5.338873863220215,2.161715030670166
1761132273906440400,2.7334404296875,-14.448261260986328,-5.420045852661133,2.3957111835479736
1761132273916440600,2.743440673828125,-14.328779220581055,-5.585989952087402,2.554391860961914
1761132273926440700,2.753440673828125,-14.239705085754395,-5.759413719177246,2.4349682331085205
1761132273936440600,2.763440673828125,-14.242387771606445,-5.910357475280762,2.17476487159729
1761132273946440700,2.773440673828125,-13.90658187866211,-6.172544479370117,1.8441489934921265
1761132273956440600,2.783440673828125,-13.336593627929688,-6.226410388946533,1.5353606939315796
1761132273966440700,2.793440673828125,-12.59710693359375,-6.189001083374023,1.1941672563552856
1761132273976440600,2.803440673828125,-11.756985664367676,-6.087655544281006,1.0845909118652344
1761132273986440700,2.813440673828125,-10.864827156066895,-6.083916187286377,1.2529224157333374
1761132273996440600,2.823440673828125,-10.034664154052734,-5.930554389953613,1.3467600345611572
1761132274006439700,2.833439697265625,-9.568157196044922,-5.8486738204956055,1.8854165077209473
1761132274016439800,2.843439697265625,-8.996347427368164,-5.690985679626465,2.102515697479248
1761132274026439700,2.853439697265625,-8.544654846191406,-5.348614692687988,2.104767322540283
1761132274036439800,2.863439697265625,-7.906169414520264,-5.334352016448975,2.0397627353668213
1761132274046439700,2.873439697265625,-7.933056354522705,-5.427427291870117,2.3192121982574463
1761132274056439600,2.883439453125,-7.027085304260254,-5.693019866943359,2.5035576820373535
1761132274066439700,2.893439697265625,-5.392276763916016,-5.604825019836426,2.306421995162964
1761132274076439600,2.903439453125,-3.048745632171631,-5.357194900512695,1.623438835144043
1761132274086439700,2.913439697265625,0.005303382873535156,-4.715457916259766,0.8265085220336914
1761132274096439600,2.923439453125,3.367617607116699,-3.762528419494629,0.1562638282775879
1761132274106440400,2.9334404296875,6.693922996520996,-2.8519816398620605,-0.3094313144683838
1761132274116440600,2.943440673828125,9.898569107055664,-1.5377639532089233,0.5558350086212158
1761132274126440400,2.9534404296875,11.058100700378418,0.4140639305114746,3.9072225093841553
1761132274136440600,2.963440673828125,8.94870662689209,2.891129970550537,7.492679595947266
1761132274146440400,2.9734404296875,5.948735237121582,6.251373291015625,9.779191970825195
1761132274156440600,2.983440673828125,5.408987998962402,9.149147033691406,9.601240158081055
1761132274166440400,2.9934404296875,8.96407413482666,9.974859237670898,8.596141815185547
1761132274176440600,3.003440673828125,17.499731063842773,9.076011657714844,7.858733177185059
1761132274186440400,3.0134404296875,28.09180450439453,7.391883850097656,6.292778491973877
1761132274196440600,3.023440673828125,37.215248107910156,5.136470794677734,3.855762481689453
1761132274206439700,3.033439697265625,41.05522918701172,3.706942558288574,1.7162724733352661
1761132274216439600,3.043439453125,40.1325569152832,4.12445592880249,-0.046771109104156494
1761132274226439700,3.053439697265625,36.50204086303711,5.891357421875,-0.2317568063735962
1761132274236439600,3.063439453125,30.971256256103516,8.267584800720215,2.200739622116089
1761132274246439700,3.073439697265625,25.014606475830078,9.367351531982422,4.137239933013916
1761132274256439600,3.083439453125,17.974933624267578,9.479822158813477,4.423780918121338
1761132274266439700,3.093439697265625,11.643604278564453,9.552794456481934,4.666415214538574
1761132274276439600,3.103439453125,7.685323715209961,8.62537670135498,5.387101173400879
1761132274286439700,3.113439697265625,5.179715156555176,6.73902702331543,6.115736961364746
1761132274296439600,3.123439453125,2.6849660873413086,4.692726135253906,5.507896423339844
1761132274306440400,3.1334404296875,0.5283708572387695,2.9737775325775146,3.4793291091918945
1761132274316440600,3.143440673828125,-1.3328790664672852,1.081235408782959,1.6208291053771973
1761132274326440400,3.1534404296875,-2.3260178565979004,0.040281325578689575,-0.032887041568756104
1761132274336440600,3.163440673828125,-3.3493003845214844,-0.7802762985229492,-0.9804418087005615
1761132274346440400,3.1734404296875,-3.854940891265869,-1.3101862668991089,-1.1502647399902344
1761132274356440600,3.183440673828125,-4.320365905761719,-1.8324666023254395,-0.42472803592681885
1761132274366440700,3.193440673828125,-5.108842372894287,-2.4860100746154785,0.4480981230735779
1761132274376440600,3.203440673828125,-6.543601036071777,-3.4064183235168457,1.5297359228134155
1761132274386440700,3.213440673828125,-7.776695251464844,-4.54757833480835,2.438767910003662
1761132274396440600,3.223440673828125,-10.262982368469238,-5.976850509643555,2.822061061859131
1761132274406439700,3.233439697265625,-11.795242309570312,-6.381915092468262,4.549778938293457
1761132274416439800,3.243439697265625,-13.88476276397705,-6.7516279220581055,5.001972198486328
1761132274426439700,3.253439697265625,-15.352855682373047,-7.456789016723633,5.154649257659912
1761132274436439800,3.263439697265625,-15.177865028381348,-7.877346038818359,5.158431529998779
1761132274446439700,3.273439697265625,-18.685138702392578,-8.564105987548828,5.961888790130615
1761132274456439800,3.283439697265625,-18.522489547729492,-8.864738464355469,5.999465465545654
1761132274466439700,3.293439697265625,-19.164093017578125,-9.020742416381836,5.14812707901001
1761132274476439800,3.303439697265625,-18.65041732788086,-9.568861961364746,4.565505027770996
1761132274486439700,3.313439697265625,-17.64954376220703,-10.118541717529297,3.796196699142456
1761132274496439600,3.323439453125,-16.06280517578125,-10.692422866821289,2.8380937576293945
1761132274506440400,3.3334404296875,-14.531962394714355,-11.370462417602539,1.752842664718628
1761132274516440600,3.343440673828125,-13.033117294311523,-11.873050689697266,0.5270485877990723
1761132274526440700,3.353440673828125,-11.244233131408691,-12.003560066223145,-0.716763973236084
1761132274536440600,3.363440673828125,-9.968011856079102,-11.74404525756836,-1.4945659637451172
1761132274546440700,3.373440673828125,-8.99755573272705,-11.350967407226562,-1.7011208534240723
1761132274556440600,3.383440673828125,-8.314956665039062,-10.818732261657715,-1.5776891708374023
1761132274566440400,3.3934404296875,-8.0258150100708,-10.051111221313477,-1.4724900722503662
1761132274576440600,3.403440673828125,-7.5756072998046875,-9.458701133728027,-1.0931873321533203
1761132274586440400,3.4134404296875,-6.965283393859863,-8.807697296142578,-1.5042481422424316
1761132274596440600,3.423440673828125,-6.991290092468262,-8.671740531921387,-1.4622564315795898
1761132274606439700,3.433439697265625,-5.422928810119629,-7.561199188232422,-2.6459574699401855
1761132274616439800,3.443439697265625,-3.4690771102905273,-6.787018775939941,-2.968714952468872
1761132274626439700,3.453439697265625,-0.3432931900024414,-5.695908546447754,-2.2020394802093506
1761132274636439600,3.463439453125,2.727349281311035,-3.7158918380737305,-0.45856523513793945
1761132274646439700,3.473439697265625,6.559608459472656,-0.7395936250686646,1.1761090755462646
1761132274656439600,3.483439453125,10.532264709472656,3.319301128387451,0.6473734378814697
1761132274666439700,3.493439697265625,14.400246620178223,6.476228713989258,-0.02666020393371582
1761132274676439600,3.503439453125,20.371723175048828,8.549217224121094,-0.6704056262969971
1761132274686439700,3.513439697265625,28.62494659423828,10.049644470214844,-0.1283489465713501
1761132274696439600,3.523439453125,37.488250732421875,11.055309295654297,-0.04521000385284424
1761132274706440400,3.5334404296875,44.005367279052734,11.37397575378418,2.3149797916412354
1761132274716440600,3.543440673828125,46.41404342651367,12.152551651000977,4.501597881317139
1761132274726440400,3.5534404296875,43.407474517822266,12.94951057434082,5.2303876876831055
1761132274736440600,3.563440673828125,35.99829864501953,13.368191719055176,6.655728816986084
1761132274746440400,3.5734404296875,26.757793426513672,13.727934837341309,7.579838752746582
1761132274756440600,3.583440673828125,17.197458267211914,13.720698356628418,7.595715045928955
1761132274766440400,3.5934404296875,10.144043922424316,12.231378555297852,6.590940475463867
1761132274776440600,3.603440673828125,10.21228313446045,12.018946647644043,6.674228191375732
1761132274786440400,3.6134404296875,2.598264694213867,8.53100299835205,5.879314422607422
1761132274796440600,3.623440673828125,0.7222375869750977,6.036205768585205,6.5622100830078125
1761132274806439700,3.633439697265625,0.7914705276489258,5.844462871551514,6.459873676300049
1761132274816439600,3.643439453125,-3.1725354194641113,1.6884760856628418,6.328236103057861
1761132274826439700,3.653439697265625,-4.9013800621032715,-0.018535137176513672,5.551624774932861
1761132274836439600,3.663439453125,-6.638669013977051,-1.7064495086669922,4.951473712921143
1761132274846439700,3.673439697265625,-8.261707305908203,-3.1769509315490723,4.385693550109863
1761132274856439600,3.683439453125,-9.598482131958008,-4.3925886154174805,3.717303991317749
1761132274866439700,3.693439697265625,-10.448188781738281,-5.395296573638916,2.9495019912719727
1761132274876439600,3.703439453125,-11.475187301635742,-6.490285873413086,2.158125400543213
1761132274886439700,3.713439697265625,-15.254608154296875,-7.955600738525391,0.6867436170578003
1761132274936440600,3.763440673828125,-16.06614112854004,-8.934694290161133,1.2047935724258423
1761132274956440600,3.783440673828125,-16.362720489501953,-9.179922103881836,1.4850375652313232
1761132274966440400,3.7934404296875,-15.683547973632812,-9.321252822875977,1.8102977275848389
1761132274976440600,3.803440673828125,-14.627504348754883,-9.270302772521973,1.6306893825531006
1761132274986440400,3.8134404296875,-12.990124702453613,-9.445670127868652,1.4514744281768799
1761132274996440600,3.823440673828125,-11.720708847045898,-9.653783798217773,0.8298494815826416
1761132275006439700,3.833439697265625,-10.621840476989746,-9.759439468383789,-0.016332149505615234
1761132275016439600,3.843439453125,-9.767151832580566,-9.794120788574219,-0.7947697639465332
1761132275026439700,3.853439697265625,-9.358247756958008,-9.82786750793457,-1.4235928058624268
1761132275036439600,3.863439453125,-9.297799110412598,-9.756996154785156,-1.7385131120681763
1761132275046439700,3.873439697265625,-9.330414772033691,-9.39276123046875,-1.8939663171768188
1761132275056439600,3.883439453125,-9.15286922454834,-9.0582857131958,-1.829008936882019
1761132275066439700,3.893439697265625,-8.61893367767334,-8.803892135620117,-1.872007131576538
1761132275076439600,3.903439453125,-7.918344497680664,-8.689481735229492,-2.0060319900512695
1761132275086439700,3.913439697265625,-7.293944358825684,-8.532941818237305,-2.068859815597534
1761132275106440400,3.9334404296875,-6.175112724304199,-7.901801109313965,-1.1951285600662231
1761132275116440600,3.943440673828125,-5.143939971923828,-6.869914531707764,-1.1657171249389648
1761132275126440400,3.9534404296875,-2.7790021896362305,-5.800093650817871,-1.1677093505859375
1761132275136440300,3.9634404296875,0.0169677734375,-4.006929874420166,-1.1306670904159546
1761132275146440400,3.9734404296875,2.220428466796875,-1.929375171661377,-0.4786562919616699
1761132275156440600,3.983440673828125,4.292372703552246,0.6901233196258545,1.33243989944458
1761132275166440400,3.9934404296875,7.538455963134766,5.441296577453613,4.042027473449707
1761132275176440600,4.003440673828125,12.128352165222168,10.124154090881348,7.056517601013184
1761132275186440400,4.0134404296875,16.91995620727539,13.469758987426758,10.771471977233887
1761132275196440600,4.023440673828125,21.290122985839844,15.262200355529785,12.942737579345703
1761132275206439700,4.033439697265625,25.747344970703125,16.101274490356445,13.815545082092285
1761132275216439600,4.043439453125,31.481443405151367,16.09246253967285,13.85889720916748
1761132275226439700,4.053439697265625,35.90458679199219,14.997944831848145,12.947005271911621
1761132275236439600,4.063439453125,37.49137496948242,13.488569259643555,12.085648536682129
1761132275246439700,4.073439697265625,35.08531188964844,13.225354194641113,11.388330459594727
1761132275256439600,4.083439453125,29.657684326171875,13.496334075927734,10.82690143585205
1761132275266439700,4.093439697265625,22.938020706176758,13.335597038269043,9.880136489868164
1761132275276439600,4.103439453125,16.50002670288086,12.542388916015625,8.5333833694458
1761132275286439700,4.113439697265625,13.219332695007324,10.70111083984375,7.43324613571167
1761132275296439600,4.123439453125,10.518912315368652,8.012383460998535,6.498541831970215
1761132275306440400,4.1334404296875,7.742833137512207,5.279118537902832,5.215635776519775
1761132275316440600,4.143440673828125,4.124040603637695,2.849607467651367,3.3741908073425293
1761132275326440400,4.1534404296875,0.2577829360961914,0.7942547798156738,1.6256369352340698
1761132275336440600,4.163440673828125,-3.4935731887817383,-1.094090223312378,0.04482823610305786
1761132275346440400,4.1734404296875,-6.158383369445801,-2.4608261585235596,-1.0725979804992676
1761132275356440600,4.183440673828125,-8.352886199951172,-3.6926488876342773,-1.9390063285827637
1761132275366440400,4.1934404296875,-10.06407356262207,-4.622885227203369,-2.290360689163208
1761132275376440600,4.203440673828125,-10.757107734680176,-5.25978422164917,-2.026124954223633
1761132275386440400,4.2134404296875,-11.669733047485352,-5.849553108215332,-1.8542567491531372
1761132275396440600,4.223440673828125,-12.671481132507324,-6.57184362411499,-1.1346898078918457
1761132275406439700,4.233439697265625,-13.844001770019531,-7.0618133544921875,-0.5373023748397827
1761132275416439800,4.243439697265625,-15.23167610168457,-7.494275093078613,0.2123192548751831
1761132275426439700,4.253439697265625,-16.849193572998047,-7.689661979675293,0.7471456527709961
1761132275436439800,4.263439697265625,-18.059614181518555,-7.834359169006348,1.3648886680603027
1761132275446439700,4.273439697265625,-18.390037536621094,-7.9602251052856445,1.886308193206787
1761132275456439800,4.283439697265625,-17.8323974609375,-7.941988945007324,1.869832158088684
1761132275466439700,4.293439697265625,-16.67459487915039,-7.945484638214111,1.7627229690551758
1761132275476439600,4.303439453125,-15.150604248046875,-8.008333206176758,1.1681774854660034
1761132275486439700,4.313439697265625,-13.544849395751953,-8.262470245361328,0.4254073202610016
1761132275496439600,4.323439453125,-11.844286918640137,-8.654104232788086,-0.23120135068893433
1761132275506440400,4.3334404296875,-10.325651168823242,-8.857598304748535,-1.1787859201431274
1761132275516440600,4.343440673828125,-9.36672306060791,-8.893045425415039,-1.7670245170593262
1761132275526440400,4.3534404296875,-8.730606079101562,-8.739880561828613,-1.992929220199585
1761132275536440600,4.363440673828125,-8.28917121887207,-8.534133911132812,-1.8346679210662842
1761132275546440700,4.373440673828125,-8.078896522521973,-8.244062423706055,-1.4184486865997314
1761132275556440600,4.383440673828125,-8.204353332519531,-7.875061988830566,-1.1874172687530518
1761132275566440400,4.3934404296875,-8.426918029785156,-7.470610618591309,-1.2021244764328003
1761132275576440600,4.403440673828125,-8.648714065551758,-7.214639186859131,-1.3334907293319702
1761132275586440400,4.4134404296875,-8.594066619873047,-7.001186370849609,-0.9532365798950195
1761132275596440600,4.423440673828125,-7.949335098266602,-6.5778703689575195,-0.07654929161071777
1761132275606439700,4.433439697265625,-6.9908766746521,-5.631016731262207,0.32786238193511963
1761132275616439600,4.443439453125,-4.647182464599609,-4.718677520751953,1.0534803867340088
1761132275626439700,4.453439697265625,-0.31119537353515625,-3.1048879623413086,1.2700989246368408
1761132275636439600,4.463439453125,5.185976982116699,-1.6058474779129028,0.7660399675369263
1761132275646439700,4.473439697265625,9.314014434814453,-0.9437484741210938,1.6518571376800537
1761132275656439600,4.483439453125,11.653133392333984,-0.22337913513183594,3.086862802505493
1761132275666439700,4.493439697265625,12.461477279663086,2.3403432369232178,3.3379597663879395
1761132275676439600,4.503439453125,12.889357566833496,5.0695719718933105,4.7169342041015625
1761132275686439700,4.513439697265625,12.700263023376465,8.7339448928833,5.025398254394531
1761132275696439600,4.523439453125,14.736080169677734,12.31592845916748,3.632537841796875
1761132275706440400,4.5334404296875,18.947429656982422,15.940661430358887,4.222923278808594
1761132275716440300,4.5434404296875,25.805221557617188,17.262720108032227,8.424253463745117
1761132275726440400,4.5534404296875,34.92498779296875,17.647977828979492,15.21541976928711
1761132275736440600,4.563440673828125,36.666229248046875,17.403034210205078,19.181671142578125
1761132275746440400,4.5734404296875,31.042091369628906,16.070133209228516,19.53680419921875
1761132275756440600,4.583440673828125,25.263675689697266,14.645377159118652,17.129737854003906
1761132275766440400,4.5934404296875,20.43733787536621,13.27785873413086,13.695069313049316
1761132275776440600,4.603440673828125,17.109498977661133,11.67751693725586,9.699075698852539
1761132275786440400,4.6134404296875,13.779038429260254,8.88672924041748,6.657966136932373
1761132275796440600,4.623440673828125,9.795547485351562,5.35049295425415,3.1563873291015625
1761132275806439700,4.633439697265625,6.124903678894043,2.6358447074890137,0.9424042701721191
1761132275816439800,4.643439697265625,2.3887405395507812,0.6005101203918457,-0.6175795793533325
1761132275826439700,4.653439697265625,-1.0492658615112305,-0.8108029365539551,-1.2191532850265503
1761132275836439600,4.663439453125,-4.376872539520264,-2.0709776878356934,-0.9031120538711548
1761132275846439700,4.673439697265625,-7.580827236175537,-3.3355722427368164,-0.5204684734344482
1761132275856439600,4.683439453125,-10.82089900970459,-4.65012264251709,-0.5718848705291748
1761132275866439700,4.693439697265625,-13.19973087310791,-5.7081451416015625,-1.0486758947372437
1761132275876439600,4.703439453125,-14.77115249633789,-6.641625881195068,-1.7471354007720947
1761132275886439700,4.713439697265625,-15.20669937133789,-7.331447601318359,-2.196969747543335
1761132275896439600,4.723439453125,-15.658799171447754,-8.21963119506836,-2.812831163406372
1761132275906440400,4.7334404296875,-15.942708015441895,-8.786197662353516,-3.0633816719055176
1761132275916440600,4.743440673828125,-15.990568161010742,-9.2761869430542,-2.8835790157318115
1761132275926440400,4.7534404296875,-16.21444320678711,-9.700851440429688,-2.5043420791625977
1761132275936440600,4.763440673828125,-16.774253845214844,-10.011308670043945,-2.229828357696533
1761132275946440400,4.7734404296875,-17.39298439025879,-10.087434768676758,-2.0388331413269043
1761132275956440600,4.783440673828125,-17.665668487548828,-10.142667770385742,-1.9406561851501465
1761132275966440700,4.793440673828125,-17.080934524536133,-10.28569507598877,-2.0735435485839844
1761132275976440600,4.803440673828125,-15.563373565673828,-10.39273738861084,-2.3615102767944336
1761132275986440700,4.813440673828125,-13.493720054626465,-10.352347373962402,-2.6100242137908936
1761132275996440600,4.823440673828125,-11.303579330444336,-10.22962474822998,-2.4779787063598633
1761132276006439700,4.833439697265625,-9.557860374450684,-10.073945045471191,-2.1787099838256836
1761132276016439800,4.843439697265625,-8.475567817687988,-9.867759704589844,-1.7563562393188477
1761132276026439700,4.853439697265625,-7.938213348388672,-9.537118911743164,-1.4315334558486938
1761132276036439800,4.863439697265625,-8.4035062789917,-9.093694686889648,-0.9533160924911499
1761132276046439700,4.873439697265625,-9.077815055847168,-8.449711799621582,0.18144023418426514
1761132276056439800,4.883439697265625,-9.084611892700195,-7.623730659484863,1.3895500898361206
1761132276066439700,4.893439697265625,-8.815067291259766,-6.795910835266113,2.2093353271484375
1761132276076439800,4.903439697265625,-8.167006492614746,-6.379495620727539,2.6654531955718994
1761132276096439800,4.923439697265625,-3.976166248321533,-4.835219860076904,2.885810375213623
1761132276106440400,4.9334404296875,-2.15602445602417,-3.7297418117523193,3.6271190643310547
1761132276116440600,4.943440673828125,0.6438713073730469,-2.923217296600342,5.398751735687256
1761132276126440400,4.9534404296875,3.644378662109375,-1.0913785696029663,5.242193222045898
1761132276146440400,4.9734404296875,9.021612167358398,2.674095392227173,2.922436237335205
1761132276156440600,4.983440673828125,13.972814559936523,3.30397367477417,2.317744255065918
1761132276176440600,5.003440673828125,27.592815399169922,4.577975749969482,0.11705398559570312
1761132276186440400,5.0134404296875,33.57148361206055,5.334222793579102,-0.6328630447387695
1761132276196440600,5.023440673828125,38.96940231323242,6.392714023590088,-1.1209691762924194
1761132276206439700,5.033439697265625,43.516109466552734,7.992252349853516,1.651322364807129
1761132276216439800,5.043439697265625,43.659122467041016,10.43195915222168,6.831075668334961
1761132276226439700,5.053439697265625,36.87616729736328,13.049905776977539,11.316553115844727
1761132276236439800,5.063439697265625,26.227767944335938,14.819863319396973,12.011938095092773
1761132276246439700,5.073439697265625,16.67761993408203,15.01755428314209,11.493183135986328
1761132276256439800,5.083439697265625,10.297362327575684,13.535459518432617,11.042339324951172
1761132276266439700,5.093439697265625,7.336648941040039,10.940155029296875,10.095220565795898
1761132276276439600,5.103439453125,6.491791725158691,7.819225311279297,7.052811622619629
1761132276286439700,5.113439697265625,5.453524589538574,5.025832176208496,3.4973278045654297
1761132276296439600,5.123439453125,4.152132034301758,2.738826274871826,0.5332431197166443
1761132276306440400,5.1334404296875,2.867311477661133,1.006691813468933,-1.4744012355804443
1761132276316440600,5.143440673828125,0.9583673477172852,-0.33226144313812256,-2.981473922729492
1761132276326407200,5.1534072265625,-0.7559709548950195,-1.1286580562591553,-3.2919514179229736
1761132276336373800,5.163373779296875,-2.6622495651245117,-1.628085970878601,-3.1166725158691406
1761132276346340400,5.17334033203125,-4.813124179840088,-1.973205327987671,-2.483964443206787
1761132276356307200,5.18330712890625,-7.105780124664307,-2.32188081741333,-1.3326572179794312
1761132276366272800,5.193272705078125,-9.475930213928223,-2.745164394378662,-0.08656692504882812
1761132276376239600,5.203239501953125,-11.319894790649414,-3.069288969039917,1.0335191488265991
1761132276386206200,5.213206298828125,-12.566076278686523,-3.4697232246398926,1.6452412605285645
1761132276396172800,5.2231728515625,-13.481161117553711,-4.174160003662109,1.7572225332260132
1761132276406138600,5.233138671875,-14.299609184265137,-4.605200290679932,2.4057109355926514
1761132276416105500,5.24310546875,-14.503416061401367,-4.78915548324585,2.7214372158050537
1761132276426072000,5.253072021484375,-14.571562767028809,-4.86358642578125,2.9089858531951904
1761132276436038700,5.26303857421875,-14.219685554504395,-5.027849197387695,3.1303539276123047
1761132276446005500,5.273005615234375,-13.745016098022461,-5.165740013122559,3.270834445953369
1761132276455972000,5.28297216796875,-13.135000228881836,-5.3533477783203125,3.4558255672454834
1761132276465938700,5.292938720703125,-12.58102035522461,-5.3615288734436035,3.367094039916992
1761132276475905300,5.3029052734375,-12.140379905700684,-5.339947700500488,3.1740031242370605
1761132276485872000,5.3128720703125,-11.336450576782227,-5.308644771575928,2.939413070678711
1761132276495838700,5.322838623046875,-10.632150650024414,-5.222196578979492,2.636620283126831
1761132276505806300,5.332806396484375,-10.147736549377441,-5.1033430099487305,2.4141600131988525
1761132276515773000,5.34277294921875,-9.662769317626953,-5.039679527282715,2.40840220451355
1761132276525739500,5.352739501953125,-9.05608081817627,-4.891782283782959,2.5506227016448975
1761132276535706400,5.362706298828125,-7.608636856079102,-4.617410659790039,2.727672576904297
1761132276545673000,5.3726728515625,-6.649829864501953,-4.592263221740723,3.0659501552581787
1761132276555639600,5.3826396484375,-6.0994873046875,-4.670433044433594,3.3484044075012207
1761132276565606400,5.3926064453125,-5.8381242752075195,-4.811667442321777,3.726198434829712
1761132276575573000,5.402572998046875,-5.507396697998047,-4.828378200531006,3.9458179473876953
1761132276585539600,5.41253955078125,-5.405999183654785,-4.687653064727783,3.47243070602417
1761132276595506400,5.42250634765625,-5.319486141204834,-4.549493312835693,2.703092336654663
1761132276605472300,5.43247216796875,-3.7985143661499023,-4.237112998962402,1.8096046447753906
1761132276615438800,5.44243896484375,-0.9101047515869141,-3.5952587127685547,0.5574158430099487
1761132276625439000,5.45243896484375,1.5232124328613281,-2.5391039848327637,-0.20477032661437988
1761132276635438800,5.46243896484375,2.3569231033325195,-1.035562515258789,-0.20537376403808594
1761132276645439000,5.47243896484375,2.1858043670654297,1.180131196975708,0.03296792507171631
1761132276655438800,5.48243896484375,2.185396194458008,4.028570175170898,1.702749490737915
1761132276665439700,5.492439697265625,4.012765884399414,5.242032051086426,3.7574501037597656
1761132276675439900,5.50243994140625,9.907341957092285,5.604493141174316,4.071725845336914
1761132276685439700,5.512439697265625,16.485782623291016,5.286713600158691,2.464695692062378
1761132276695440000,5.52243994140625,21.185787200927734,4.4074907302856445,-0.3519876003265381
1761132276705440800,5.532440673828125,24.01910400390625,4.138820171356201,-2.654927968978882
1761132276715440600,5.542440673828125,25.21677017211914,3.8143136501312256,-3.130246639251709
1761132276725440800,5.552440673828125,25.141284942626953,3.4191081523895264,-1.8261650800704956
1761132276735440600,5.562440673828125,25.698780059814453,3.509371519088745,-0.3701852560043335
1761132276745440800,5.572440673828125,26.151233673095703,3.8136708736419678,0.3842787742614746
1761132276755440600,5.582440673828125,24.372211456298828,4.220486640930176,0.17751681804656982
1761132276765441000,5.59244091796875,19.909881591796875,4.796246528625488,-0.6135056018829346
1761132276775441000,5.60244091796875,13.458112716674805,5.024367332458496,-1.2401546239852905
1761132276785440800,5.612440673828125,8.091367721557617,5.001035690307617,-1.1024179458618164
1761132276795441000,5.62244091796875,3.526461601257324,4.999475479125977,-0.8828713893890381
1761132276805440000,5.63243994140625,-0.023395538330078125,5.030663967132568,-0.2176058292388916
1761132276815440100,5.642440185546875,-2.8899106979370117,4.90069055557251,0.9790406227111816
1761132276825440000,5.65243994140625,-5.593095779418945,4.629876613616943,1.849570870399475
1761132276835440000,5.662440185546875,-7.654929161071777,4.061803817749023,2.1893386840820312
1761132276845440000,5.67243994140625,-9.089003562927246,3.150743246078491,2.5766801834106445
1761132276855440100,5.682440185546875,-9.910835266113281,2.352728843688965,2.3848252296447754
1761132276865440000,5.69243994140625,-10.283036231994629,1.9640430212020874,2.021670341491699
1761132276875439900,5.70243994140625,-10.413440704345703,1.6822950839996338,1.8282411098480225
1761132276885440000,5.71243994140625,-10.280144691467285,1.3909202814102173,2.0319766998291016
1761132276895440000,5.72243994140625,-10.180902481079102,1.2672826051712036,2.5603232383728027
1761132276905440800,5.732440673828125,-10.45958423614502,1.1546109914779663,3.369788646697998
1761132276915440600,5.742440673828125,-10.935148239135742,0.9250322580337524,4.333123683929443
1761132276925440800,5.752440673828125,-11.735052108764648,0.1389373540878296,4.217111587524414
1761132276935440600,5.762440673828125,-12.113410949707031,-0.48648321628570557,4.3409504890441895
1761132276945440800,5.772440673828125,-12.163692474365234,-0.8229652643203735,4.03138542175293
1761132276955440600,5.782440673828125,-12.22983169555664,-1.3559541702270508,3.5919361114501953
1761132276965440800,5.792440673828125,-12.27080249786377,-1.857569694519043,3.35203218460083
1761132276975440600,5.802440673828125,-12.028264999389648,-2.0748085975646973,3.1335737705230713
1761132276985440800,5.812440673828125,-11.531635284423828,-2.193859100341797,2.9040005207061768
1761132276995440600,5.822440673828125,-10.8584623336792,-2.252002716064453,2.466813325881958
1761132277005439700,5.832439697265625,-10.171183586120605,-2.2687277793884277,1.9997344017028809
1761132277015440000,5.84243994140625,-9.723694801330566,-2.2044596672058105,1.7238390445709229
1761132277025439700,5.852439697265625,-9.324580192565918,-2.00058650970459,1.6569615602493286
1761132277035439900,5.86243994140625,-8.990798950195312,-1.6953680515289307,1.5770318508148193
1761132277045439700,5.872439697265625,-8.842151641845703,-1.3144806623458862,1.4734479188919067
1761132277055440000,5.88243994140625,-9.013923645019531,-1.4121618270874023,1.836939811706543
1761132277065439500,5.892439453125,-8.584278106689453,-1.601008653640747,1.642599105834961
1761132277075439600,5.902439697265625,-7.128259658813477,-1.6107776165008545,1.0819201469421387
1761132277085439500,5.912439453125,-4.81107234954834,-1.7238214015960693,0.46295762062072754
1761132277095439600,5.922439697265625,-2.336703300476074,-1.9653133153915405,0.10480213165283203
1761132277105440500,5.9324404296875,-0.7897539138793945,-1.8426856994628906,0.4364374876022339
1761132277115440400,5.9424404296875,-0.8262596130371094,-1.0309901237487793,0.10901546478271484
1761132277125440500,5.9524404296875,-1.1002655029296875,0.5042648315429688,-0.8504323959350586
1761132277135440400,5.9624404296875,-0.5770187377929688,2.743417263031006,-2.6869077682495117
1761132277145440500,5.9724404296875,1.1147184371948242,4.618564605712891,-4.19601583480835
1761132277155440400,5.9824404296875,2.9393310546875,5.228047847747803,-3.488043785095215
1761132277165440500,5.9924404296875,3.750049591064453,3.7598862648010254,-0.23577332496643066
1761132277175440400,6.0024404296875,6.7734270095825195,1.9193164110183716,2.905604362487793
1761132277185440500,6.0124404296875,12.240426063537598,0.34939467906951904,4.408933639526367
1761132277195440400,6.0224404296875,20.816570281982422,-3.2436797618865967,5.5415825843811035
1761132277205439500,6.032439453125,28.419513702392578,-5.207388877868652,5.936496257781982
1761132277215439600,6.042439697265625,28.07126235961914,-4.629720687866211,3.8103866577148438
1761132277225439500,6.052439453125,19.289958953857422,-3.544403553009033,1.6323668956756592
1761132277235439600,6.062439697265625,15.213578224182129,-2.523585319519043,4.856375217437744
1761132277245439500,6.072439453125,13.278450965881348,-0.4625367224216461,4.689761161804199
1761132277255439600,6.082439697265625,8.462177276611328,0.935016930103302,3.1811366081237793
1761132277265439500,6.092439453125,5.160358428955078,1.0412931442260742,2.9624404907226562
1761132277275439600,6.102439697265625,5.0705108642578125,0.7487121224403381,3.9828391075134277
1761132277285439500,6.112439453125,5.9427595138549805,0.8705212473869324,4.2540106773376465
1761132277295439600,6.122439697265625,6.588240623474121,1.5004932880401611,3.2745885848999023
1761132277305440500,6.1324404296875,6.150843620300293,1.9202346801757812,2.3999783992767334
1761132277315440400,6.1424404296875,4.460666656494141,2.161501169204712,1.9934629201889038
1761132277325440500,6.1524404296875,1.8912420272827148,2.6637425422668457,1.6296532154083252
1761132277335440400,6.1624404296875,-1.21832275390625,3.3512089252471924,1.4040859937667847
1761132277345440500,6.1724404296875,-4.756393909454346,4.056293487548828,1.4385935068130493
1761132277355440400,6.1824404296875,-6.845663547515869,4.489117622375488,1.475752353668213
1761132277365440500,6.1924404296875,-7.5686492919921875,4.600748062133789,1.3268266916275024
1761132277375440400,6.2024404296875,-7.280331611633301,4.3346171379089355,1.1294524669647217
1761132277385440500,6.2124404296875,-6.41392707824707,3.8645341396331787,1.0135565996170044
1761132277395440400,6.2224404296875,-5.468652248382568,3.253850221633911,1.0476899147033691
1761132277405439700,6.232439697265625,-4.865335941314697,2.5487923622131348,1.0908093452453613
1761132277415439600,6.242439697265625,-4.445362091064453,2.00402569770813,1.0737531185150146
1761132277425439700,6.252439697265625,-4.210794925689697,1.7232295274734497,0.9731642007827759
1761132277435439600,6.262439697265625,-3.808948040008545,1.5239877700805664,0.7580643892288208
1761132277445439700,6.272439697265625,-3.2764806747436523,1.6016252040863037,0.15535128116607666
1761132277455439600,6.282439697265625,-2.9498844146728516,2.086773157119751,-0.7288479804992676
1761132277465439700,6.292439697265625,-3.4183807373046875,2.333393096923828,-2.0594253540039062
1761132277475439600,6.302439697265625,-4.556055068969727,1.7346899509429932,-2.1804046630859375
1761132277485439700,6.312439697265625,-4.904332160949707,0.17289109528064728,-0.3198215961456299
1761132277495439600,6.322439697265625,-3.6213536262512207,-1.942673921585083,2.2560243606567383
1761132277505440500,6.3324404296875,-0.344635009765625,-3.6290814876556396,3.985226631164551
1761132277515440600,6.342440673828125,4.388276100158691,-4.169455051422119,4.312382698059082
1761132277525440500,6.3524404296875,8.888331413269043,-3.97452712059021,3.11403489112854
1761132277535440600,6.362440673828125,10.087716102600098,-3.6159491539001465,1.2554527521133423
1761132277545440500,6.3724404296875,7.799355506896973,-2.940077066421509,-0.6053159236907959
1761132277555440600,6.382440673828125,4.293705940246582,-1.8207087516784668,-1.5975964069366455
1761132277565440500,6.3924404296875,1.2387628555297852,-0.5344108939170837,-1.5345067977905273
1761132277575440600,6.402440673828125,-0.8121356964111328,0.8190233111381531,-0.9055920839309692
1761132277585440500,6.4124404296875,-1.3239707946777344,1.4937039613723755,0.18724143505096436
1761132277595440600,6.422440673828125,-0.7347822189331055,1.5395492315292358,1.3680393695831299
1761132277605439700,6.432439697265625,-0.22293472290039062,1.3907068967819214,2.2587716579437256
1761132277615440000,6.44243994140625,-0.09654808044433594,1.6200810670852661,2.600809335708618
1761132277625439700,6.452439697265625,-0.6058511734008789,2.008457660675049,2.5416111946105957
1761132277635439900,6.46243994140625,-1.6329498291015625,2.3572194576263428,2.461433172225952
1761132277645439700,6.472439697265625,-2.6082963943481445,2.6598501205444336,2.4925010204315186
1761132277655440000,6.48243994140625,-3.5323872566223145,2.859637498855591,2.596355676651001
1761132277665439700,6.492439697265625,-4.198245525360107,2.930382013320923,2.5597097873687744
1761132277675439900,6.50243994140625,-4.467206001281738,2.872955560684204,2.508368968963623
1761132277685439700,6.512439697265625,-4.307667255401611,2.789405107498169,2.4549217224121094
1761132277695440000,6.52243994140625,-3.8076934814453125,2.415959119796753,2.202361583709717
1761132277705440500,6.5324404296875,-3.2060232162475586,1.9686172008514404,1.715334415435791
1761132277715440400,6.5424404296875,-2.4533920288085938,1.6461567878723145,1.3183228969573975
1761132277725440500,6.5524404296875,-1.8292150497436523,1.3709185123443604,1.1487210988998413
1761132277735440400,6.5624404296875,-1.6047067642211914,1.075089454650879,1.1324793100357056
1761132277745440500,6.5724404296875,-1.814272403717041,0.6837189197540283,1.0676462650299072
1761132277755440400,6.5824404296875,-2.3108224868774414,0.6125133037567139,1.0495564937591553
1761132277765440500,6.5924404296875,-2.261263847351074,0.953158438205719,1.2186741828918457
1761132277775440400,6.6024404296875,-1.8363866806030273,1.1267375946044922,1.4389679431915283
1761132277785440500,6.6124404296875,-1.1755952835083008,0.9591379761695862,1.5132062435150146
1761132277795440400,6.6224404296875,-0.4516487121582031,0.8576135039329529,1.3862988948822021
1761132277805439700,6.632439697265625,0.04071617126464844,0.7830324172973633,1.2770906686782837
1761132277815439600,6.642439697265625,0.3714179992675781,0.7895285487174988,1.3464853763580322
1761132277825439700,6.652439697265625,0.42180442810058594,0.8966980576515198,1.5529828071594238
1761132277835439600,6.662439697265625,-0.04700660705566406,1.0191102027893066,1.6957570314407349
1761132277845439700,6.672439697265625,-1.0399694442749023,1.0234581232070923,1.6668955087661743
1761132277855439600,6.682439697265625,-2.1646862030029297,1.1462013721466064,1.5769597291946411
1761132277865439700,6.692439697265625,-3.399712085723877,1.3268193006515503,1.5540395975112915
1761132277875439600,6.702439697265625,-4.539453983306885,1.4213249683380127,1.488856554031372
1761132277885439700,6.712439697265625,-5.711062431335449,1.5049532651901245,1.414218544960022
1761132277895439600,6.722439697265625,-6.748880863189697,1.572310447692871,1.4551527500152588
1761132277905440500,6.7324404296875,-7.382233619689941,1.5486102104187012,1.6518827676773071
1761132277915440400,6.7424404296875,-7.251541614532471,1.4198476076126099,2.0058162212371826
1761132277925440500,6.7524404296875,-6.170064449310303,0.9175113439559937,2.3715858459472656
1761132277935440400,6.7624404296875,-4.324231147766113,0.15923766791820526,2.1908516883850098
1761132277945440500,6.7724404296875,-1.6494178771972656,-0.46293190121650696,1.9431824684143066
1761132277955440400,6.7824404296875,1.5203800201416016,-0.7972514629364014,1.4756052494049072
1761132277965440500,6.7924404296875,4.499037742614746,-0.9040164351463318,0.7751036286354065
1761132277975440600,6.802440673828125,7.494603157043457,-0.7503560781478882,0.20775389671325684
1761132277985440500,6.8124404296875,11.557433128356934,-0.3505987226963043,0.16502809524536133
1761132277995440600,6.822440673828125,15.487552642822266,0.18808230757713318,0.8489663004875183
1761132278005439700,6.832439697265625,18.671035766601562,0.46979498863220215,1.8696072101593018
1761132278015439600,6.842439697265625,21.019001007080078,0.28575485944747925,3.205514430999756
1761132278025439700,6.852439697265625,22.573196411132812,0.06926409900188446,4.217718601226807
1761132278035439600,6.862439697265625,23.115726470947266,0.36101946234703064,4.860725402832031
1761132278045439700,6.872439697265625,22.660730361938477,1.1235088109970093,4.95985746383667
1761132278055439600,6.882439697265625,22.008350372314453,1.9463839530944824,4.674947738647461
1761132278065439500,6.892439453125,21.0699462890625,2.6389145851135254,4.281400203704834
1761132278075439600,6.902439697265625,19.96949005126953,3.0977606773376465,4.013608932495117
1761132278085439500,6.912439453125,18.681108474731445,3.48042893409729,3.8801698684692383
1761132278095439600,6.922439697265625,16.993175506591797,3.9377353191375732,3.104775905609131
1761132278105440500,6.9324404296875,14.37509822845459,3.982630968093872,1.9326305389404297
1761132278115440400,6.9424404296875,11.243224143981934,3.6072285175323486,1.6570968627929688
1761132278125440500,6.9524404296875,7.551987648010254,2.8080639839172363,2.2494289875030518
1761132278135440400,6.9624404296875,3.3318824768066406,1.850372314453125,3.003293037414551
1761132278145440500,6.9724404296875,-1.2104473114013672,1.2454508543014526,3.3051185607910156
1761132278155440400,6.9824404296875,-6.093008041381836,0.875548779964447,3.4762253761291504
1761132278165440500,6.9924404296875,-10.109092712402344,0.06325334310531616,7.045125961303711
1761132278175440400,7.0024404296875,-11.577066421508789,-1.1786198616027832,5.363362789154053
1761132278185440500,7.0124404296875,-12.485596656799316,-0.16527807712554932,2.151358127593994
1761132278195440400,7.0224404296875,-13.83084487915039,-0.4740281105041504,1.5044467449188232
1761132278205439500,7.032439453125,-14.516643524169922,-2.2473673820495605,2.2548766136169434
1761132278215439600,7.042439697265625,-15.291301727294922,-3.7394943237304688,2.564208745956421
1761132278225439700,7.052439697265625,-15.862526893615723,-4.383709907531738,2.5586862564086914
1761132278235439600,7.062439697265625,-16.75819969177246,-4.700312614440918,2.7247467041015625
1761132278245439700,7.072439697265625,-15.883048057556152,-5.30674934387207,3.9647388458251953
1761132278255439600,7.082439697265625,-16.68768882751465,-5.2242350578308105,4.040872573852539
1761132278265439500,7.092439453125,-17.631847381591797,-5.514802932739258,4.600693702697754
1761132278275439600,7.102439697265625,-18.092575073242188,-6.015653133392334,5.065103530883789
1761132278285439500,7.112439453125,-17.916648864746094,-6.443876266479492,4.702821254730225
1761132278295439600,7.122439697265625,-16.921344757080078,-6.77545166015625,3.83663272857666
1761132278305440500,7.1324404296875,-15.340066909790039,-7.110986709594727,2.9776487350463867
1761132278315440400,7.1424404296875,-13.644546508789062,-7.466642379760742,1.7289659976959229
1761132278325440500,7.1524404296875,-12.273387908935547,-7.575443267822266,0.3606252670288086
1761132278335440400,7.1624404296875,-10.736907958984375,-7.608085632324219,-0.5742542743682861
1761132278345440500,7.1724404296875,-8.097986221313477,-7.304769515991211,-1.7341187000274658
1761132278355440400,7.1824404296875,-8.195826530456543,-7.031755447387695,-0.8390836715698242
1761132278365440500,7.1924404296875,-7.7560625076293945,-6.817904472351074,-0.3553934097290039
1761132278375440400,7.2024404296875,-8.557232856750488,-6.293464660644531,-0.16926145553588867
1761132278385440500,7.2124404296875,-9.447272300720215,-5.94087028503418,0.49539613723754883
1761132278395440400,7.2224404296875,-9.883331298828125,-5.327836036682129,1.1287215948104858
1761132278405439500,7.232439453125,-9.56612491607666,-4.677466869354248,1.5001859664916992
1761132278415439600,7.242439697265625,-7.999439716339111,-4.124371528625488,1.5771905183792114
1761132278425439500,7.252439453125,-5.798967361450195,-3.466996669769287,1.4307336807250977
1761132278435439600,7.262439697265625,-4.417163848876953,-2.5996055603027344,1.1739461421966553
1761132278445439500,7.272439453125,-3.697629928588867,-1.2514315843582153,0.42098093032836914
1761132278455439600,7.282439697265625,-2.9577317237854004,1.0993835926055908,-1.1753242015838623
1761132278465439500,7.292439453125,0.11536216735839844,4.481600761413574,-2.4133541584014893
1761132278475439600,7.302439697265625,7.797547340393066,7.2442240715026855,-2.9173648357391357
1761132278485439500,7.312439453125,20.681642532348633,7.429365634918213,-1.7349507808685303
1761132278495439600,7.322439697265625,32.73043441772461,6.688002109527588,-1.3210420608520508
1761132278505440500,7.3324404296875,46.77513885498047,3.5751328468322754,-0.5703907012939453
1761132278515440400,7.3424404296875,51.04771041870117,2.4574272632598877,0.7595916986465454
1761132278525440500,7.3524404296875,43.27580642700195,4.730983734130859,0.5740306377410889
1761132278535440400,7.3624404296875,34.89407730102539,6.241225242614746,1.9143952131271362
1761132278545440500,7.3724404296875,27.881567001342773,7.140748977661133,2.9970123767852783
1761132278555440400,7.3824404296875,22.76634979248047,7.868401050567627,2.4683761596679688
1761132278565440500,7.3924404296875,17.757335662841797,7.462800025939941,1.0171540975570679
1761132278575440400,7.4024404296875,13.29686450958252,6.576699256896973,-0.19439196586608887
1761132278585440500,7.4124404296875,9.018092155456543,5.813835144042969,-0.6860511302947998
1761132278595440400,7.4224404296875,5.0462751388549805,5.263854026794434,-0.3276808261871338
1761132278605439700,7.432439697265625,1.661057472229004,4.894707679748535,0.4188570976257324
1761132278615440000,7.44243994140625,-1.1726131439208984,4.467226982116699,1.1803429126739502
1761132278625439700,7.452439697265625,-4.154306411743164,3.807847738265991,1.8710919618606567
1761132278635439900,7.46243994140625,-6.169073104858398,3.2562506198883057,2.1333436965942383
1761132278645439700,7.472439697265625,-7.673860549926758,2.898499011993408,2.3156187534332275
1761132278655440000,7.48243994140625,-8.762277603149414,2.585878610610962,2.7454562187194824
1761132278665439700,7.492439697265625,-9.715187072753906,2.157768726348877,3.6293563842773438
1761132278675439900,7.50243994140625,-10.756058692932129,1.8124858140945435,3.942685604095459
1761132278685439700,7.512439697265625,-11.279807090759277,1.855412244796753,3.282083749771118
1761132278695440000,7.52243994140625,-11.846477508544922,1.3535470962524414,3.6644415855407715
1761132278705440800,7.532440673828125,-12.838438034057617,0.6436092853546143,4.0684356689453125
1761132278715440600,7.542440673828125,-13.761584281921387,0.02769458293914795,4.364673137664795
1761132278725440800,7.552440673828125,-13.9259033203125,-0.48166507482528687,5.104619026184082
1761132278735440600,7.562440673828125,-13.992547035217285,-0.6507388949394226,5.397093772888184
1761132278745440800,7.572440673828125,-14.411393165588379,-0.9274154305458069,5.3588643074035645
1761132278755440600,7.582440673828125,-14.747993469238281,-1.5406291484832764,5.6270222663879395
1761132278765440800,7.592440673828125,-14.722967147827148,-2.065406322479248,5.784577369689941
1761132278775440600,7.602440673828125,-14.282848358154297,-2.39778733253479,5.56646728515625
1761132278785440800,7.612440673828125,-13.664762496948242,-2.8938519954681396,5.1436614990234375
1761132278795440600,7.622440673828125,-12.901687622070312,-3.5631637573242188,4.374103546142578
1761132278805439700,7.632439697265625,-11.968843460083008,-4.171091556549072,3.4435930252075195
1761132278815440000,7.64243994140625,-11.030903816223145,-4.6934614181518555,2.4483861923217773
1761132278825439700,7.652439697265625,-10.094413757324219,-5.0334625244140625,1.7686364650726318
1761132278835439900,7.66243994140625,-9.333761215209961,-5.376901626586914,1.8366475105285645
1761132278845439700,7.672439697265625,-7.86176061630249,-5.2587080001831055,1.728738784790039
1761132278855440000,7.68243994140625,-5.886673927307129,-4.98374080657959,1.0974433422088623
1761132278865439700,7.692439697265625,-3.0805816650390625,-4.851169586181641,0.3014028072357178
1761132278875439900,7.70243994140625,-0.05932426452636719,-4.533863544464111,-0.9021148681640625
1761132278885439700,7.712439697265625,2.3983192443847656,-4.082963466644287,-1.8734042644500732
1761132278895440000,7.72243994140625,3.8128137588500977,-3.4472484588623047,-2.263690710067749
1761132278905440500,7.7324404296875,4.568812370300293,-1.9967314004898071,-2.4500579833984375
1761132278915440400,7.7424404296875,5.474949836730957,0.2683730125427246,-1.6285440921783447
1761132278925440500,7.7524404296875,7.606497764587402,2.926785945892334,-0.27793896198272705
1761132278935440400,7.7624404296875,12.518712997436523,4.875626564025879,0.4501534700393677
1761132278945440500,7.7724404296875,18.236711502075195,5.607466697692871,0.35324299335479736
1761132278955440400,7.7824404296875,23.196996688842773,5.299498558044434,0.15934622287750244
1761132278965440500,7.7924404296875,27.917858123779297,5.051426410675049,-0.3235541582107544
1761132278975440400,7.8024404296875,33.39162826538086,4.595317840576172,-1.4952863454818726
1761132278985440500,7.8124404296875,35.91938018798828,4.628593444824219,-2.1833791732788086
1761132278995440400,7.8224404296875,35.875946044921875,4.896388530731201,-2.2788214683532715
1761132279005439700,7.832439697265625,31.691753387451172,5.7270002365112305,-2.0537729263305664
1761132279015439600,7.842439697265625,23.97559356689453,6.219461917877197,-1.7756575345993042
1761132279025439500,7.852439453125,15.633977890014648,6.398880481719971,-1.1461215019226074
1761132279035439600,7.862439697265625,8.723613739013672,6.017766952514648,-0.7715106010437012
1761132279045439500,7.872439453125,3.6239089965820312,5.36885929107666,-0.23549699783325195
1761132279055439600,7.882439697265625,-0.1949596405029297,4.721036911010742,0.6056300401687622
1761132279065439500,7.892439453125,-3.1967697143554688,4.087883472442627,1.4701917171478271
1761132279075439600,7.902439697265625,-5.977739334106445,3.4772751331329346,2.0742218494415283
1761132279085439500,7.912439453125,-8.461504936218262,2.9924094676971436,2.4343831539154053
1761132279095439600,7.922439697265625,-10.01181411743164,2.6826834678649902,2.966356039047241
1761132279105440300,7.932440185546875,-11.141386985778809,2.4242000579833984,3.5605711936950684
1761132279115440400,7.9424404296875,-12.192822456359863,2.13206148147583,4.104084491729736
1761132279125440500,7.9524404296875,-12.861505508422852,1.85956871509552,4.720305442810059
1761132279135440400,7.9624404296875,-13.186075210571289,1.5015112161636353,5.227849006652832
1761132279145440500,7.9724404296875,-13.46209716796875,0.9960663318634033,5.70748233795166
1761132279155440400,7.9824404296875,-13.587751388549805,0.4100663661956787,6.206761360168457
1761132279165440500,7.9924404296875,-13.933950424194336,-0.10412788391113281,6.468966484069824
1761132279175440400,8.0024404296875,-14.586036682128906,-0.8056617975234985,5.973389625549316
1761132279185440500,8.0124404296875,-14.954694747924805,-1.449076533317566,6.081035614013672
1761132279195440400,8.0224404296875,-14.954072952270508,-1.8232316970825195,5.583193778991699
1761132279205439500,8.032439453125,-14.499351501464844,-2.1816015243530273,5.204015731811523
1761132279215439600,8.042439697265625,-14.02125358581543,-2.559584856033325,4.929512977600098
1761132279225439700,8.052439697265624,-13.414953231811523,-2.8720169067382812,4.6812663078308105
1761132279235439600,8.062439697265624,-12.801177978515625,-3.1752095222473145,4.369278907775879
1761132279245439500,8.072439453125,-12.267949104309082,-3.47920560836792,3.731410503387451
1761132279255439600,8.082439697265626,-11.731353759765625,-3.8664207458496094,3.05485463142395
1761132279265439500,8.092439453125,-11.322117805480957,-4.273807048797607,2.527026891708374
1761132279275439600,8.102439697265625,-10.819314956665039,-4.581472396850586,2.2526142597198486
1761132279285439500,8.112439453125,-10.023983001708984,-4.691328525543213,2.2927565574645996
1761132279295439600,8.122439697265625,-9.249922752380371,-4.787912368774414,2.5662174224853516
1761132279305440500,8.1324404296875,-8.785975456237793,-4.969070911407471,2.658348560333252
1761132279315440400,8.1424404296875,-8.397195816040039,-5.2139892578125,2.1635966300964355
1761132279325440500,8.1524404296875,-7.155483722686768,-5.154074668884277,1.651188611984253
1761132279335440400,8.1624404296875,-4.647309303283691,-4.993877410888672,1.088690996170044
1761132279345440500,8.1724404296875,-1.9611339569091797,-4.552016258239746,1.1175763607025146
1761132279355440400,8.1824404296875,0.9826345443725586,-4.283226013183594,1.3107163906097412
1761132279365440500,8.1924404296875,3.0705413818359375,-3.5887556076049805,1.423532485961914
1761132279375440400,8.2024404296875,3.8359251022338867,-2.2261743545532227,1.7169431447982788
1761132279385440500,8.2124404296875,4.851806640625,-0.5346750020980835,2.311424970626831
1761132279395440400,8.2224404296875,8.869348526000977,0.5040469169616699,3.9715681076049805
1761132279405439500,8.232439453125,16.67218780517578,0.5405529737472534,5.550900459289551
1761132279415439600,8.242439697265626,28.197235107421875,-0.14954328536987305,4.889978885650635
1761132279425439500,8.252439453125,38.93988800048828,-1.2009780406951904,3.48545241355896
1761132279435439600,8.262439697265625,45.8209228515625,-2.7992324829101562,2.115124225616455
1761132279445439500,8.272439453125,45.25188446044922,-2.2183339595794678,2.338353157043457
1761132279455439600,8.282439697265625,37.064849853515625,2.2863526344299316,0.7154324054718018
1761132279465439500,8.292439453125,30.077213287353516,4.0826191902160645,1.8357224464416504
1761132279475439600,8.302439697265624,24.051876068115234,5.875870227813721,1.838193416595459
1761132279485439700,8.312439697265624,17.890705108642578,6.652680397033691,1.2544034719467163
1761132279495439600,8.322439697265626,12.944429397583008,6.591037750244141,0.1816188097000122
1761132279505440500,8.3324404296875,7.934222221374512,6.574489593505859,-0.5029382705688477
1761132279515440400,8.3424404296875,3.261349678039551,6.905256271362305,-1.4276645183563232
1761132279525440500,8.3524404296875,-1.007765769958496,7.268622875213623,-1.741387128829956
1761132279535440400,8.3624404296875,-4.458972930908203,7.873074531555176,-2.077037811279297
1761132279545440500,8.3724404296875,-6.354848384857178,8.523295402526855,-2.010924816131592
1761132279555440400,8.3824404296875,-7.169646739959717,8.640324592590332,-1.5891761779785156
1761132279565440500,8.3924404296875,-7.859861373901367,8.184812545776367,-1.0222580432891846
1761132279575440400,8.4024404296875,-9.04992961883545,7.43373966217041,-0.6045207977294922
1761132279585440500,8.4124404296875,-10.263687133789062,6.551900863647461,-0.020273447036743164
1761132279595440400,8.4224404296875,-11.398962020874023,5.999650955200195,0.4000418186187744
1761132279605439700,8.432439697265625,-11.61376953125,5.228414535522461,1.003361463546753
1761132279615439600,8.442439697265625,-11.208264350891113,5.551419258117676,1.9987928867340088
1761132279625439700,8.452439697265625,-11.579263687133789,4.923675537109375,2.881908655166626
1761132279635439600,8.462439697265625,-12.257821083068848,4.257861137390137,3.1445422172546387
1761132279645439700,8.472439697265624,-11.712367057800293,3.793386936187744,3.3038291931152344
1761132279655439600,8.482439697265624,-10.41965103149414,3.226606845855713,3.559237003326416
1761132279665439700,8.492439697265626,-9.41336727142334,2.4817495346069336,3.3391003608703613
1761132279675439600,8.502439697265626,-9.261089324951172,1.6269699335098267,2.7953038215637207
1761132279685439700,8.512439697265625,-9.681241989135742,0.9808226823806763,2.4151272773742676
1761132279695439600,8.522439697265625,-10.024591445922852,0.56380295753479,2.3136098384857178
1761132279705440500,8.5324404296875,-10.09190559387207,0.8921456933021545,1.7434591054916382
1761132279715440400,8.5424404296875,-9.858522415161133,1.1271806955337524,1.4375818967819214
1761132279725440500,8.5524404296875,-9.876744270324707,0.9039230942726135,2.003516435623169
1761132279735440400,8.5624404296875,-9.565882682800293,0.3289879560470581,2.6318697929382324
1761132279745440500,8.5724404296875,-7.384403705596924,0.12339222431182861,3.559880256652832
1761132279755440400,8.5824404296875,-4.215009689331055,0.5820730328559875,3.022963762283325
1761132279765440500,8.5924404296875,-2.775546073913574,-0.0720529556274414,2.399498224258423
1761132279775440400,8.6024404296875,-1.3833112716674805,-0.8251694440841675,1.893297791481018
1761132279785440500,8.6124404296875,-0.5522994995117188,-1.2116270065307617,1.0433812141418457
1761132279795440400,8.6224404296875,0.45694446563720703,-0.8557403683662415,0.14111113548278809
1761132279805439700,8.632439697265625,1.7802295684814453,-0.048592209815979004,-0.3063085079193115
1761132279815439600,8.642439697265624,1.1837053298950195,1.1330714225769043,-0.6747289896011353
1761132279825439700,8.652439697265624,0.030399322509765625,1.5862576961517334,0.4307343065738678
1761132279835439600,8.662439697265626,3.352029800415039,1.6813066005706787,3.2821755409240723
1761132279845439700,8.672439697265625,4.941545486450195,1.8466196060180664,4.147318363189697
1761132279855439600,8.682439697265625,4.788949012756348,1.853041410446167,5.301855087280273
1761132279865439700,8.692439697265625,5.072297096252441,0.13298940658569336,6.168719291687012
1761132279875439600,8.702439697265625,6.172579765319824,-2.114593982696533,6.3676438331604
1761132279885439700,8.712439697265625,8.319976806640625,-3.4965720176696777,5.067385673522949
1761132279895439600,8.722439697265624,10.771622657775879,-3.883007526397705,3.1596832275390625
1761132279905440500,8.7324404296875,12.197089195251465,-4.094499111175537,2.273498296737671
1761132279915440400,8.7424404296875,11.377838134765625,-4.452540874481201,2.247580051422119
1761132279925440500,8.7524404296875,9.408727645874023,-4.988165378570557,1.3139894008636475
1761132279935440400,8.7624404296875,7.693537712097168,-3.922863721847534,-0.10531425476074219
1761132279945440500,8.7724404296875,7.342616081237793,-2.0493874549865723,-1.7743191719055176
1761132279955440400,8.7824404296875,7.313168525695801,-1.4922488927841187,-2.3303627967834473
1761132279965440500,8.7924404296875,6.8292999267578125,-0.9977716207504272,-2.1075286865234375
1761132279975440600,8.802440673828125,5.6283979415893555,-0.6697211265563965,-1.1964633464813232
1761132279985440500,8.8124404296875,5.647751808166504,-0.7562671899795532,0.11200082302093506
1761132279995440600,8.822440673828124,6.169859886169434,-0.5987356901168823,0.9682459235191345
1761132280005439700,8.832439697265626,6.252972602844238,-0.19800686836242676,1.526181936264038
1761132280015439600,8.842439697265625,4.967006683349609,0.06904208660125732,2.072183609008789
1761132280025439700,8.852439697265625,3.005594253540039,-0.06470394134521484,2.701301336288452
1761132280035439600,8.862439697265625,0.5333395004272461,-0.30997347831726074,3.2989749908447266
1761132280045439700,8.872439697265625,-1.665724754333496,-0.5413612127304077,4.007236957550049
1761132280055439600,8.882439697265625,-3.124016284942627,-0.5692211389541626,4.359939098358154
1761132280065439700,8.892439697265624,-4.744072437286377,0.46859556436538696,3.097123861312866
1761132280075439600,8.902439697265624,-5.4925618171691895,1.6476272344589233,1.3988316059112549
1761132280085439700,8.912439697265626,-5.699180603027344,1.94866943359375,0.3969982862472534
1761132280095439600,8.922439697265625,-5.717339038848877,1.4398999214172363,0.15700304508209229
1761132280105440500,8.9324404296875,-5.455227375030518,0.8266565799713135,0.16497132182121277
1761132280115440400,8.9424404296875,-5.144039154052734,0.7211176156997681,0.0102500319480896
1761132280125440500,8.9524404296875,-2.460629463195801,1.518643856048584,-0.8108096122741699
1761132280155440400,8.9824404296875,-1.8109803199768066,1.4047551155090332,0.2039172649383545
1761132280165440500,8.9924404296875,-1.6844654083251953,1.4709641933441162,0.3170175552368164
1761132280175440400,9.0024404296875,-1.321868896484375,1.3745841979980469,0.7798337340354919
1761132280185440500,9.0124404296875,-1.2433242797851562,0.9459360837936401,1.6178642511367798
1761132280195440400,9.0224404296875,-0.7482681274414062,0.6287837028503418,2.1678502559661865
1761132280205439500,9.032439453125,0.048897743225097656,0.3330421447753906,2.392827272415161
1761132280215439600,9.042439697265625,0.2161264419555664,-0.3029104471206665,2.1633553504943848
1761132280225439500,9.052439453125,0.38996028900146484,-0.5707495808601379,1.5588399171829224
1761132280235439600,9.062439697265624,0.5719699859619141,-0.3058185577392578,0.9529514312744141
1761132280245439500,9.072439453125,0.4645261764526367,-0.08256244659423828,0.674290657043457
1761132280255439600,9.082439697265626,0.2226572036743164,0.05329239368438721,0.6538299322128296
1761132280265439500,9.092439453125,-0.009203910827636719,0.3360753059387207,0.760891318321228
1761132280275439600,9.102439697265625,-0.32726383209228516,0.7249016761779785,0.9767139554023743
1761132280285439500,9.112439453125,-0.5842266082763672,1.1104408502578735,1.3484957218170166
1761132280295439600,9.122439697265625,-0.5806636810302734,1.4422097206115723,1.7413525581359863
1761132280305440300,9.132440185546875,-0.42902183532714844,1.6214361190795898,1.896347165107727
1761132280315440400,9.1424404296875,-0.1809711456298828,1.6180487871170044,1.8162271976470947
1761132280325440500,9.1524404296875,-0.058933258056640625,1.5364381074905396,1.6013638973236084
1761132280335440400,9.1624404296875,-0.17872142791748047,1.4712039232254028,1.280299186706543
1761132280345440500,9.1724404296875,-0.49527740478515625,1.4858306646347046,1.019903540611267
1761132280355440400,9.1824404296875,-1.0927610397338867,1.5731472969055176,1.0186102390289307
1761132280365440500,9.1924404296875,-1.5565738677978516,1.8018174171447754,0.9262996912002563
1761132280375440400,9.2024404296875,-1.7547006607055664,1.999740719795227,0.8003039360046387
1761132280385440500,9.2124404296875,-1.8247742652893066,2.0152063369750977,0.915018618106842
1761132280395440400,9.2224404296875,-1.7433114051818848,1.8274389505386353,1.2271027565002441
1761132280405439500,9.232439453125,-1.5539155006408691,1.6130658388137817,1.3730380535125732
1761132280415439600,9.242439697265626,-1.3637409210205078,1.585839033126831,1.532625436782837
1761132280425439500,9.252439453125,-1.34320068359375,1.4356095790863037,1.7208144664764404
1761132280435439600,9.262439697265625,-1.5224652290344238,1.1775875091552734,1.8132838010787964
1761132280445439500,9.272439453125,-1.527432918548584,1.0044524669647217,1.5522582530975342
1761132280455439600,9.282439697265625,-1.2820215225219727,0.8553340435028076,1.024537205696106
1761132280465439500,9.292439453125,-0.7583150863647461,0.6877362728118896,0.5963703393936157
1761132280475439600,9.302439697265624,-0.14776992797851562,0.48984992504119873,0.2198251485824585
1761132280485439500,9.312439453125,0.052954673767089844,0.4574851989746094,0.05392563343048096
1761132280495439600,9.322439697265626,-0.07975959777832031,0.5084130764007568,-0.04254579544067383
1761132280505440500,9.3324404296875,-0.26163673400878906,0.5883430242538452,-0.09729385375976562
1761132280515440400,9.3424404296875,-0.45178794860839844,0.688709020614624,-0.2206871509552002
1761132280525440500,9.3524404296875,-0.5969429016113281,0.8303909301757812,-0.33018505573272705
1761132280535440400,9.3624404296875,-0.7377157211303711,0.9900288581848145,0.05075240135192871
1761132280545440500,9.3724404296875,-1.0114517211914062,1.0143262147903442,0.44385087490081787
1761132280555440400,9.3824404296875,-1.2620019912719727,0.9831647872924805,0.6571449041366577
1761132280565440500,9.3924404296875,-1.3495550155639648,0.9535253047943115,0.6120977401733398
1761132280575440400,9.4024404296875,-1.2882146835327148,0.8815046548843384,0.5898429155349731
1761132280585440500,9.4124404296875,-1.0767135620117188,0.7889144420623779,0.5797255039215088
1761132280595440400,9.4224404296875,-1.2072725296020508,0.6614782810211182,0.7847306728363037
1761132280605439500,9.432439453125,-1.4215078353881836,0.6142538785934448,0.6986490488052368
1761132280615439600,9.442439697265625,-1.4867005348205566,0.626378059387207,0.39891517162323
1761132280625439500,9.452439453125,-1.281315803527832,0.6349706649780273,0.19287443161010742
1761132280635439600,9.462439697265625,-0.3851308822631836,0.40475356578826904,0.2313072681427002
1761132280645439500,9.472439453125,0.4027996063232422,0.5856139659881592,-0.11890316009521484
1761132280655439600,9.482439697265624,0.6572809219360352,0.6488114595413208,0.13261640071868896
1761132280665439500,9.492439453125,0.58447265625,0.3382154703140259,0.627739667892456
1761132280675439600,9.502439697265626,0.5053176879882812,0.2720445394515991,0.8084419369697571
1761132280685439500,9.512439453125,0.6075496673583984,0.39832496643066406,0.730946958065033
1761132280695439600,9.522439697265625,0.7318601608276367,0.5484378337860107,0.3470414876937866
1761132280705440500,9.5324404296875,0.5732641220092773,0.5154510736465454,-0.07188987731933594
