time,seconds_elapsed,z,y,x
1761132058196128000,0.1121279296875,0.04919624328613281,0.0016599856317043304,-0.004107087850570679
1761132058226103000,0.14210302734375,0.049193382263183594,0.0018378384411334991,-0.0039278119802474976
1761132058236103000,0.15210302734375,0.049193382263183594,0.0018833354115486145,-0.003873184323310852
1761132058246103000,0.16210302734375,0.0491943359375,0.002061065286397934,-0.0038718879222869873
1761132058256103400,0.172103515625,0.049193382263183594,0.0018834695219993591,-0.0038731396198272705
1761132058266103600,0.182103515625,0.049193382263183594,0.001944020390510559,-0.0038597136735916138
1761132058276103700,0.192103759765625,0.049193382263183594,0.001878347247838974,-0.003931418061256409
1761132058286103600,0.202103515625,0.049195289611816406,0.0018661729991436005,-0.004048481583595276
1761132058296103700,0.212103759765625,0.0491943359375,0.001735839992761612,-0.00397568941116333
1761132058306103600,0.222103515625,0.0491943359375,0.0016748905181884766,-0.003989279270172119
1761132058316103700,0.232103759765625,0.04919624328613281,0.001801036298274994,-0.004101112484931946
1761132058326103800,0.242103759765625,0.04919719696044922,0.0018526315689086914,-0.004165902733802795
1761132058336104000,0.25210400390625,0.04919910430908203,0.0019011422991752625,-0.0042694807052612305
1761132058346104000,0.26210400390625,0.049198150634765625,0.0016629882156848907,-0.0042841434478759766
1761132058356104000,0.27210400390625,0.049198150634765625,0.0014200694859027863,-0.004337936639785767
1761132058366104000,0.28210400390625,0.04919910430908203,0.0012949593365192413,-0.004403918981552124
1761132058376104200,0.292104248046875,0.04919910430908203,0.0013495534658432007,-0.004448980093002319
1761132058386104000,0.30210400390625,0.04920005798339844,0.0013377703726291656,-0.00456586480140686
1761132058396104200,0.312104248046875,0.049201011657714844,0.001331288367509842,-0.004624545574188232
1761132058406104300,0.322104248046875,0.04920196533203125,0.0012066513299942017,-0.004690185189247131
1761132058416103200,0.332103271484375,0.049202919006347656,0.0011420398950576782,-0.004742637276649475
1761132058426103000,0.34210302734375,0.046807289123535156,-0.01567210629582405,-0.026245445013046265
1761132058436103200,0.352103271484375,0.03722667694091797,0.0033043064177036285,-0.02604973316192627
1761132058446103300,0.362103271484375,0.04680347442626953,0.0009602196514606476,-0.009295642375946045
1761132058456103200,0.372103271484375,0.042016029357910156,-0.008557934314012527,-0.01887846738100052
1761132058466103300,0.382103271484375,0.04201316833496094,0.0010785572230815887,-0.011504799127578735
1761132058476103200,0.392103271484375,0.02046680450439453,-0.001099027693271637,-0.006719127297401428
1761132058486103300,0.402103271484375,0.015679359436035156,-0.005650781095027924,0.01961253583431244
1761132058496103200,0.412103271484375,0.044409751892089844,0.006440136581659317,-0.006716132164001465
1761132058506103300,0.422103271484375,0.010890960693359375,-0.0031365416944026947,-0.004321873188018799
1761132058516104200,0.432104248046875,0.03243732452392578,0.013734567910432816,0.0029871761798858643
1761132058526104000,0.44210400390625,0.025255203247070312,-0.0005073957145214081,-0.0017547756433486938
1761132058536104200,0.452104248046875,0.042014122009277344,-0.012483682483434677,0.0029754042625427246
1761132058546104300,0.462104248046875,0.03243827819824219,-0.014816764742136002,-0.006587892770767212
1761132058556104200,0.472104248046875,0.022859573364257812,-0.007700059562921524,-0.006462752819061279
1761132058566104000,0.48210400390625,0.03483104705810547,0.018739767372608185,-0.030356332659721375
1761132058576104200,0.492104248046875,0.022857666015625,0.01868743821978569,-0.001561284065246582
1761132058586104300,0.502104248046875,0.0252532958984375,-0.012568388134241104,-0.011262521147727966
1761132058596104200,0.512104248046875,0.015677452087402344,-0.003056041896343231,-0.011314943432807922
1761132058606104300,0.522104248046875,0.010890007019042969,0.008744748309254646,-0.0018585026264190674
1761132058616103400,0.532103515625,0.04201316833496094,0.0014233067631721497,0.010107055306434631
1761132058626103600,0.542103515625,0.03722572326660156,-0.001081019639968872,0.002817481756210327
1761132058636103400,0.552103515625,0.025255203247070312,-0.02275722101330757,-0.004307776689529419
1761132058646103300,0.562103271484375,0.030042648315429688,0.005838777869939804,-0.001910582184791565
1761132058656103400,0.572103515625,0.03722572326660156,0.01056089997291565,-0.0020394623279571533
1761132058666103300,0.582103271484375,0.03722667694091797,0.010495949536561966,-0.002092108130455017
1761132058676103400,0.592103515625,0.034832000732421875,0.0007416792213916779,0.0026949048042297363
1761132058686103300,0.602103271484375,0.010890960693359375,0.0006161406636238098,-0.00215950608253479
1761132058696103400,0.612103515625,0.02764892578125,-0.0018941499292850494,-0.01651245355606079
1761132058706103300,0.622103271484375,0.02046680450439453,0.017076246440410614,-0.0046012550592422485
1761132058716104200,0.632104248046875,0.039620399475097656,0.007374530658125877,-0.028609350323677063
1761132058726104000,0.64210400390625,0.037227630615234375,-0.009574972093105316,-0.0047858357429504395
1761132058736104200,0.652104248046875,0.030045509338378906,0.0022726841270923615,-0.004832416772842407
1761132058746104000,0.66210400390625,0.027650833129882812,0.01394101046025753,-0.012082457542419434
1761132058756104200,0.672104248046875,0.032439231872558594,-0.005277872085571289,0.0046243369579315186
1761132058766104000,0.68210400390625,0.03722953796386719,-0.0077450573444366455,0.016464650630950928
1761132058776104200,0.692104248046875,0.034836769104003906,0.016125980764627457,0.013959288597106934
1761132058786104300,0.702104248046875,0.03244209289550781,0.0015187598764896393,0.02348218858242035
1761132058796104200,0.712104248046875,0.027652740478515625,-0.0011110343039035797,-0.017214447259902954
1761132058806104000,0.72210400390625,0.020471572875976562,0.013070547953248024,-0.014880210161209106
1761132058816103400,0.732103515625,0.02046966552734375,0.012937335297465324,-0.014827370643615723
1761132058826103300,0.742103271484375,0.02525806427001953,0.01999485120177269,-0.007710769772529602
1761132058836103200,0.752103271484375,0.013287544250488281,0.0055646877735853195,-0.014946013689041138
1761132058846103300,0.762103271484375,0.027654647827148438,0.0221305713057518,0.0016559362411499023
1761132058856103200,0.772103271484375,0.03483867645263672,-0.006868384778499603,-0.00324307382106781
1761132058866103300,0.782103271484375,0.025262832641601562,0.0001385919749736786,-0.00581611692905426
1761132058876102700,0.7921025390625,0.027657508850097656,-0.00968678668141365,0.029984310269355774
1761132058886102000,0.80210205078125,0.02287006378173828,0.004553863778710365,0.008370697498321533
1761132058896102000,0.812101806640625,0.0061092376708984375,-0.02436843514442444,0.013217911124229431
1761132058906102000,0.82210205078125,0.030050277709960938,-0.0030115656554698944,0.0013060569763183594
1761132058916102700,0.8321025390625,0.0372314453125,0.0015979930758476257,-0.005878254771232605
1761132058926102800,0.842102783203125,-0.00586700439453125,0.006077144294977188,-0.010595753788948059
1761132058936102700,0.8521025390625,0.05159187316894531,-0.010925404727458954,-0.008077874779701233
1761132058946102800,0.862102783203125,0.04441070556640625,0.017680052667856216,-0.029691636562347412
1761132058956102700,0.8721025390625,0.044409751892089844,0.017502017319202423,-0.02969306707382202
1761132058966102800,0.882102783203125,0.025257110595703125,0.005408056080341339,0.0061735063791275024
1761132058976102700,0.8921025390625,0.022861480712890625,0.007683638483285904,-0.01059335470199585
1761132058986102800,0.902102783203125,0.039620399475097656,0.005276486277580261,0.006226792931556702
1761132058996102700,0.9121025390625,0.04919624328613281,-0.004294291138648987,0.0014969110488891602
1761132059006102800,0.922102783203125,0.0491943359375,-0.006753508001565933,0.02317000925540924
1761132059016102000,0.932101806640625,0.03004169464111328,0.012335155159235,0.003963753581047058
1761132059026102000,0.94210205078125,0.034829139709472656,0.017168734222650528,-0.022317908704280853
1761132059036102000,0.952101806640625,0.03961753845214844,-0.011443015187978745,-0.01033957302570343
1761132059046101800,0.962101806640625,0.01806926727294922,-0.02089674025774002,-0.015081509947776794
1761132059056102000,0.972101806640625,0.010886192321777344,0.003092018887400627,-0.012613236904144287
1761132059066101800,0.982101806640625,0.03482818603515625,0.012792754918336868,-0.0005956143140792847
1761132059076102000,0.992101806640625,0.05397987365722656,0.01272047683596611,-0.019682742655277252
1761132059086101800,1.002101806640625,0.03722095489501953,-0.018346060067415237,-0.024477176368236542
1761132059096102000,1.012101806640625,0.03003692626953125,0.017621252685785294,0.009193435311317444
1761132059106102000,1.02210205078125,0.008488655090332031,-0.0038650445640087128,0.009207099676132202
1761132059116102700,1.0321025390625,0.0420074462890625,-0.006260093301534653,0.016389548778533936
1761132059126102800,1.042102783203125,0.03243064880371094,0.005749668926000595,-0.0027681589126586914
1761132059136103000,1.05210302734375,0.027645111083984375,-0.008549556136131287,-0.02444107085466385
1761132059146102800,1.062102783203125,0.022855758666992188,0.0057568177580833435,-0.007675603032112122
1761132059156103000,1.07210302734375,0.03482818603515625,-0.0038849450647830963,-0.03406446427106857
1761132059166102800,1.082102783203125,0.020463943481445312,0.020171325653791428,-0.012548476457595825
1761132059176103400,1.092103515625,0.027645111083984375,-0.01097026839852333,-0.017315179109573364
1761132059196104200,1.112104248046875,0.044402122497558594,0.005770348012447357,-0.014721810817718506
1761132059206104000,1.12210400390625,0.027642250061035156,0.02011604607105255,0.011616423726081848
1761132059216103200,1.132103271484375,0.027643203735351562,-0.008637771010398865,0.0020026415586471558
1761132059226103300,1.142103271484375,0.04440498352050781,-0.011030539870262146,-0.007751777768135071
1761132059236103200,1.152103271484375,0.042011260986328125,0.0009985975921154022,0.016184091567993164
1761132059246103300,1.162103271484375,0.03003978729248047,0.027315441519021988,-0.01015007495880127
1761132059256103200,1.172103271484375,0.03003978729248047,-0.0014153793454170227,-0.01733282208442688
1761132059266103300,1.182103271484375,0.03004169464111328,-0.0014281421899795532,-0.017449960112571716
1761132059276103200,1.192103271484375,0.03004169464111328,-0.0013680048286914825,-0.005465611815452576
1761132059286103300,1.202103271484375,0.03004169464111328,0.0010263286530971527,0.006505429744720459
1761132059296103200,1.212103271484375,0.0252532958984375,0.0010852552950382233,-0.0030772536993026733
1761132059306103300,1.222103271484375,0.030042648315429688,0.003592943772673607,-0.01749354600906372
1761132059316104000,1.23210400390625,0.04441070556640625,-0.020347509533166885,0.0014825165271759033
1761132059326104000,1.24210400390625,0.04441070556640625,0.005982682108879089,-0.012941226363182068
1761132059336104200,1.252104248046875,0.037227630615234375,0.008377015590667725,-0.015335381031036377
1761132059346104000,1.26210400390625,0.015680313110351562,-0.0060081519186496735,-0.017727568745613098
1761132059356104200,1.272104248046875,0.01568126678466797,-0.013132896274328232,-0.012945428490638733
1761132059366104000,1.28210400390625,0.03722858428955078,0.008535556495189667,-0.0009474605321884155
1761132059376104200,1.292104248046875,0.03962421417236328,0.013318773359060287,-0.005794242024421692
1761132059386104300,1.302104248046875,0.01568126678466797,-0.02025197073817253,-0.0009412318468093872
1761132059396104200,1.312104248046875,0.032439231872558594,-0.00835297629237175,0.006307929754257202
1761132059406104300,1.322104248046875,0.05877685546875,0.008458629250526428,0.006243407726287842
1761132059416103400,1.332103515625,0.030045509338378906,0.01798253133893013,-0.01763416826725006
1761132059426103300,1.342103271484375,0.032439231872558594,-0.0010725520551204681,0.006297975778579712
1761132059436103400,1.352103515625,0.013286590576171875,0.0015131272375583649,0.011027425527572632
1761132059446103300,1.362103271484375,0.022863388061523438,-0.005688861012458801,-0.02009514719247818
1761132059456103400,1.372103515625,0.02765178680419922,-0.010536182671785355,-0.02008926123380661
1761132059466103300,1.382103271484375,0.03483390808105469,-0.020164519548416138,-0.003265097737312317
1761132059476103400,1.392103515625,0.03962230682373047,-0.005759887397289276,0.01109623908996582
1761132059486103300,1.402103271484375,0.010892868041992188,0.008617959916591644,0.003852933645248413
1761132059496103400,1.412103515625,0.03483390808105469,0.015907125547528267,0.01349794864654541
1761132059506103300,1.422103271484375,0.02286529541015625,0.011244082823395729,-0.022546060383319855
1761132059516104200,1.432104248046875,0.030046463012695312,0.006566975265741348,0.0015225261449813843
1761132059526104300,1.442104248046875,0.03962230682373047,0.01134234108030796,-0.01278214156627655
1761132059536104200,1.452104248046875,0.018075942993164062,0.008955735713243484,-0.015295356512069702
1761132059546104300,1.462104248046875,0.02286529541015625,0.0018316544592380524,-0.02008979767560959
1761132059556104200,1.472104248046875,0.04441261291503906,-0.0029141083359718323,-0.015266522765159607
1761132059566104300,1.482104248046875,0.032440185546875,0.004315683618187904,-0.0032214373350143433
1761132059576104200,1.492104248046875,0.04680347442626953,-0.00281384214758873,0.018458902835845947
1761132059586104300,1.502104248046875,0.02765178680419922,0.00680912658572197,0.00397065281867981
1761132059596104200,1.512104248046875,0.022863388061523438,0.01884428784251213,0.008811429142951965
1761132059606104300,1.522104248046875,0.032440185546875,0.0020659007132053375,0.015996232628822327
1761132059616103400,1.532103515625,0.02046966552734375,-0.009785592555999756,0.013609498739242554
1761132059629755000,1.5457548828125,0.032440185546875,-0.00026771798729896545,-0.00793243944644928
1761132059639755000,1.555755126953125,0.027649879455566406,0.014030035585165024,0.0017501264810562134
1761132059649755000,1.5657548828125,0.0300445556640625,0.030850375071167946,0.004157960414886475
1761132059659755000,1.575755126953125,0.027649879455566406,-0.00027491524815559387,-0.007813289761543274
1761132059669755000,1.5857548828125,0.027647972106933594,-0.00028236955404281616,-0.012482613325119019
1761132059679754800,1.595754638671875,0.042014122009277344,0.014141906052827835,-0.012488454580307007
1761132059689755000,1.6057548828125,0.02286052703857422,-0.009800110012292862,0.011453568935394287
1761132059699754800,1.615754638671875,0.027649879455566406,0.011795921251177788,0.006561487913131714
1761132059709755000,1.6257548828125,0.04201507568359375,0.004716044291853905,0.004215627908706665
1761132059719755500,1.635755615234375,0.03962230682373047,0.0023938603699207306,-0.0006393492221832275
1761132059729755600,1.645755615234375,0.03962230682373047,-0.014430373907089233,-0.010268747806549072
1761132059739755300,1.65575537109375,0.032439231872558594,-0.004873078316450119,-0.003084123134613037
1761132059749755100,1.665755126953125,0.030045509338378906,0.004709886386990547,-0.0006313621997833252
1761132059759755300,1.67575537109375,0.027650833129882812,-0.004748251289129257,-0.010200843214988708
1761132059769755100,1.685755126953125,0.02046966552734375,0.014398939907550812,0.004105687141418457
1761132059779755300,1.69575537109375,0.044411659240722656,-0.019177883863449097,-0.012647509574890137
1761132059789755400,1.70575537109375,0.03483390808105469,-0.021585162729024887,0.004172593355178833
1761132059799755300,1.71575537109375,0.03962230682373047,-0.00009815767407417297,-0.0054177939891815186
1761132059809755100,1.725755126953125,0.030045509338378906,-0.0023732930421829224,0.02092587947845459
1761132059819754500,1.73575439453125,0.02525615692138672,-0.01675185188651085,-0.0005613565444946289
1761132059829754400,1.74575439453125,0.02525615692138672,-0.0023281127214431763,0.011403635144233704
1761132059839754200,1.755754150390625,0.032440185546875,-0.009462099522352219,-0.0030650943517684937
1761132059849754400,1.76575439453125,0.034834861755371094,0.00011515617370605469,0.004117503762245178
1761132059859754200,1.775754150390625,0.020468711853027344,0.02406412921845913,-0.01976565271615982
1761132059869754400,1.78575439453125,0.02046680450439453,-0.0023384802043437958,-0.00527547299861908
1761132059879753700,1.795753662109375,0.013284683227539062,0.007232300937175751,-0.005334004759788513
1761132059889753600,1.805753662109375,0.04680442810058594,0.009620610624551773,0.0017901062965393066
1761132059899753700,1.815753662109375,0.027650833129882812,0.0024965330958366394,0.0017840713262557983
1761132059909753900,1.82575390625,0.027650833129882812,0.0263606458902359,-0.000602036714553833
1761132059919754500,1.83575439453125,0.02765178680419922,0.026307567954063416,-0.0007345825433731079
1761132059929754600,1.845754638671875,0.037227630615234375,-0.00010008737444877625,-0.00545637309551239
1761132059939754800,1.855754638671875,0.042016029357910156,0.0022945180535316467,-0.012638852000236511
1761132059949754600,1.865754638671875,0.02525615692138672,-0.005020905286073685,-0.0006148368120193481
1761132059959754500,1.87575439453125,0.030042648315429688,0.009358763694763184,0.0043102651834487915
1761132059969754600,1.885754638671875,0.04201316833496094,0.004609508439898491,0.009094715118408203
1761132059979754800,1.895754638671875,0.025252342224121094,0.009389661252498627,-0.03867054730653763
1761132059989754600,1.905754638671875,0.02764606475830078,-0.00006205588579177856,-0.002691522240638733
1761132059999754800,1.915754638671875,0.01807117462158203,0.014414317905902863,-0.012338876724243164
1761132060009754600,1.925754638671875,0.01806926727294922,0.009631942957639694,-0.019462950527668
1761132060019754000,1.93575390625,0.030042648315429688,0.007333014160394669,-0.00033898651599884033
1761132060029753900,1.94575390625,0.03483009338378906,0.002626221626996994,0.00448039174079895
1761132060039754200,1.955754150390625,0.037224769592285156,-0.011686880141496658,0.01638670265674591
1761132060049754400,1.96575439453125,0.025252342224121094,0.007537443190813065,0.023680388927459717
1761132060059754200,1.975754150390625,0.02764606475830078,-0.001991916447877884,-0.00018745660781860352
1761132060069754400,1.98575439453125,0.03003978729248047,-0.006715632975101471,0.016624510288238525
1761132060079754200,1.995754150390625,0.02525043487548828,0.01709589548408985,0.0071201324462890625
1761132060089754400,2.00575439453125,0.020462989807128906,0.007570747286081314,-0.012098178267478943
1761132060099754500,2.01575439453125,0.027643203735351562,-0.009195592254400253,-0.021555714309215546
1761132060109754400,2.02575439453125,0.013279914855957031,-0.006749287247657776,0.007109999656677246
1761132060119755300,2.03575537109375,0.027643203735351562,-0.0018950290977954865,-0.004789084196090698
1761132060129755100,2.045755126953125,0.04919242858886719,0.019591450691223145,0.0023797303438186646
1761132060139755300,2.05575537109375,0.03722095489501953,0.02926741912961006,0.004783257842063904
1761132060149755400,2.06575537109375,0.0204620361328125,-0.0018566735088825226,0.01436026394367218
1761132060159755300,2.07575537109375,0.025251388549804688,0.007714107632637024,-0.004851877689361572
1761132060169755400,2.08575537109375,0.051586151123046875,0.012568043544888496,0.014354437589645386
1761132060179756000,2.095756103515625,0.02285480499267578,-0.006596650928258896,0.002463608980178833
1761132060189756200,2.105756103515625,0.03722190856933594,-0.013668928295373917,0.007181346416473389
1761132060199756000,2.115756103515625,0.01806640625,0.007767900824546814,-0.009507641196250916
1761132060209756200,2.125756103515625,0.02764415740966797,0.022067073732614517,-0.01915626972913742
1761132060229755100,2.145755126953125,0.022856712341308594,-0.0016972124576568604,-0.004789561033248901
1761132060239755300,2.15575537109375,0.030040740966796875,-0.006431106477975845,-0.01680561900138855
1761132060249755100,2.165755126953125,0.034829139709472656,0.0032631568610668182,-0.009634926915168762
1761132060259755300,2.17575537109375,0.03722190856933594,-0.015844065696001053,0.014380872249603271
1761132060269755100,2.185755126953125,0.030040740966796875,0.008215006440877914,-0.009573191404342651
1761132060279755000,2.195755126953125,0.037222862243652344,0.008334606885910034,0.007193863391876221
1761132060289755100,2.205755126953125,0.037224769592285156,0.008446082472801208,0.007123291492462158
1761132060299755300,2.21575537109375,0.022858619689941406,-0.0010696537792682648,0.002348572015762329
1761132060309755100,2.225755126953125,0.02764606475830078,0.01795140840113163,-0.016751959919929504
1761132060319756000,2.235756103515625,0.04201030731201172,0.0036523640155792236,-0.007103294134140015
1761132060329756000,2.245755859375,0.03961658477783203,-0.0036041326820850372,-0.021421395242214203
1761132060339756000,2.255756103515625,0.027643203735351562,-0.0012823417782783508,-0.02135496586561203
1761132060349756000,2.265755859375,0.03722095489501953,0.012979822233319283,0.0049329400062561035
1761132060359756000,2.275756103515625,0.020461082458496094,-0.0037341490387916565,0.004987597465515137
1761132060369756000,2.285755859375,0.0037012100219726562,0.008295964449644089,0.0049816519021987915
1761132060379756000,2.295756103515625,0.03482627868652344,-0.015585511922836304,0.009783536195755005
1761132060389756000,2.305755859375,0.03482627868652344,-0.015604492276906967,0.009785741567611694
1761132060399755300,2.31575537109375,0.03482532501220703,-0.0012941919267177582,0.014619037508964539
1761132060409755100,2.325755126953125,0.034827232360839844,0.008270695805549622,0.00492522120475769
1761132060419754200,2.335754150390625,0.010885238647460938,-0.015611626207828522,-0.011820867657661438
1761132060429753900,2.34575390625,0.03722095489501953,0.0059361886233091354,-0.007032468914985657
1761132060439753200,2.355753173828125,0.053981781005859375,0.008501701056957245,-0.016666457056999207
1761132060449752800,2.3657529296875,0.022856712341308594,0.008487813174724579,-0.0070292651653289795
1761132060459752200,2.375752197265625,0.030040740966796875,0.010954037308692932,-0.002307415008544922
1761132060469752000,2.385751953125,0.037222862243652344,0.020630527287721634,0.019249901175498962
1761132060479752200,2.395752197265625,0.04201030731201172,0.00633629597723484,-0.009369328618049622
1761132060489752000,2.405751953125,0.022857666015625,0.0016005262732505798,-0.0022512227296829224
1761132060499752000,2.415751953125,0.01567554473876953,0.01841963268816471,0.016915708780288696
1761132060509752000,2.425751953125,0.027647018432617188,-0.00541161373257637,-0.004702776670455933
1761132060519753000,2.4357529296875,0.03722190856933594,0.006552780047059059,-0.009371966123580933
1761132060529752800,2.4457529296875,0.0467987060546875,0.00653981976211071,-0.006917029619216919
1761132060539753000,2.4557529296875,0.030038833618164062,-0.007943239063024521,0.002671539783477783
1761132060549752800,2.4657529296875,0.013279914855957031,-0.00794927030801773,-0.009358003735542297
1761132060559753000,2.4757529296875,0.020462989807128906,-0.005555376410484314,0.012189850211143494
1761132060569752800,2.4857529296875,0.03243255615234375,0.003963347524404526,-0.0021693259477615356
1761132060579753200,2.495753173828125,0.03243446350097656,-0.005560826510190964,-0.011810630559921265
1761132060589753300,2.50575341796875,0.03961658477783203,0.0015636458992958069,-0.01898706704378128
1761132060599753200,2.515753173828125,0.022857666015625,0.01831801049411297,0.002502426505088806
1761132060609753300,2.52575341796875,0.022855758666992188,0.011128339916467667,-0.01653197407722473
1761132060619752400,2.53575244140625,0.027643203735351562,-0.003191690891981125,-0.0021122097969055176
1761132060629752300,2.54575244140625,0.02764415740966797,-0.003133561462163925,-0.0021183639764785767
1761132060639752400,2.55575244140625,0.020463943481445312,0.011357780545949936,0.002558276057243347
1761132060649752300,2.56575244140625,0.027647972106933594,0.013923240825533867,-0.019046597182750702
1761132060659752200,2.575752197265625,0.020465850830078125,-0.0003842301666736603,-0.004687696695327759
1761132060669752300,2.58575244140625,0.037222862243652344,0.0140290018171072,0.004963323473930359
1761132060679752200,2.595752197265625,0.03722190856933594,0.014021096751093864,0.005082383751869202
1761132060689752300,2.60575244140625,0.027647018432617188,0.004568811506032944,-0.011808142066001892
1761132060699753000,2.6157529296875,0.046799659729003906,-0.00513840839266777,-0.0021586865186691284
1761132060709753000,2.625753173828125,0.025251388549804688,-0.0003443770110607147,-0.014071330428123474
1761132060719753500,2.63575341796875,0.04201030731201172,0.00921349972486496,0.012266963720321655
1761132060729753900,2.64575390625,0.02525043487548828,0.009219523519277573,0.01711389422416687
1761132060739753500,2.65575341796875,0.02285480499267578,0.018717976287007332,0.0003625601530075073
1761132060749753300,2.66575341796875,0.03243255615234375,0.0018976256251335144,0.0099257230758667
1761132060759754000,2.67575390625,0.030037879943847656,-0.0076726265251636505,-0.004380747675895691
1761132060769753300,2.68575341796875,0.020461082458496094,-0.005298327654600143,-0.00437888503074646
1761132060779752400,2.69575244140625,0.010883331298828125,0.01865016110241413,-0.0019261538982391357
1761132060789751600,2.70575146484375,0.030035972595214844,0.011409156024456024,-0.0043142735958099365
1761132060799751200,2.715751220703125,0.03961372375488281,0.03541210666298866,-0.011483252048492432
1761132060809750500,2.72575048828125,0.025249481201171875,0.011483706533908844,-0.01633213460445404
1761132060819749600,2.73574951171875,0.015671730041503906,0.011386554688215256,-0.00913935899734497
1761132060829749200,2.745749267578125,0.030037879943847656,-0.0005553439259529114,-0.00684666633605957
1761132060839748900,2.755748779296875,0.022856712341308594,0.006717221811413765,0.0026420801877975464
1761132060849748200,2.765748291015625,0.042011260986328125,0.016268182545900345,-0.018962226808071136
1761132060859748000,2.775748046875,0.025252342224121094,0.011378213763237,0.00016242265701293945
1761132060869748200,2.785748291015625,0.027645111083984375,0.004098188132047653,0.00017251074314117432
1761132060879747800,2.795747802734375,0.027645111083984375,0.00406680628657341,0.00025440752506256104
1761132060889747000,2.805746826171875,0.027645111083984375,0.006402479484677315,0.0002604275941848755
1761132060899747000,2.8157470703125,0.015672683715820312,0.006447656080126762,0.0003149956464767456
1761132060909746400,2.825746337890625,0.032431602478027344,0.004111189395189285,-0.016450732946395874
1761132060919747300,2.835747314453125,0.03482627868652344,0.008899331092834473,0.00030857324600219727
1761132060929747200,2.845747314453125,0.03482627868652344,-0.0006909593939781189,-0.00920771062374115
1761132060939747300,2.855747314453125,0.027643203735351562,0.0017041601240634918,0.009946271777153015
1761132060949747200,2.865747314453125,0.02764129638671875,0.01847205124795437,0.01002432405948639
1761132060959747300,2.875747314453125,0.05158519744873047,0.008828237652778625,-0.004412919282913208
1761132060969747200,2.885747314453125,0.03721809387207031,0.013545209541916847,-0.004346281290054321
1761132060979747300,2.895747314453125,0.02764129638671875,0.020669281482696533,0.01002494990825653
1761132060989747200,2.905747314453125,0.034824371337890625,0.0062790680676698685,-0.004396587610244751
1761132060999747300,2.915747314453125,0.02764129638671875,-0.0009775608777999878,-0.004349544644355774
1761132061009746400,2.925746337890625,0.03961372375488281,0.00625327043235302,0.0027293860912323
1761132061019746300,2.935746337890625,0.01567363739013672,0.006326125934720039,-0.018884830176830292
1761132061029745700,2.94574560546875,0.03243255615234375,0.004110042005777359,-0.006912171840667725
1761132061039745500,2.95574560546875,0.030040740966796875,-0.0030269213020801544,0.0001471787691116333
1761132061049745200,2.9657451171875,0.03961658477783203,-0.01022287830710411,-0.011763244867324829
1761132061059744300,2.975744140625,0.03722190856933594,0.004083801060914993,-0.011757224798202515
1761132061069744000,2.985744140625,0.03961753845214844,-0.007835492491722107,-0.009427860379219055
1761132061079744300,2.995744140625,0.022857666015625,0.01850125379860401,0.009725943207740784
1761132061089744100,3.005744140625,0.03243446350097656,-0.010229166597127914,0.004937529563903809
1761132061099743700,3.01574365234375,0.02764606475830078,0.011379320174455643,0.016922086477279663
1761132061109743400,3.025743408203125,0.027647972106933594,0.011425800621509552,0.01440480351448059
1761132061119743200,3.0357431640625,0.04201316833496094,0.00669650174677372,-0.0071489810943603516
1761132061129742800,3.045742919921875,0.02286052703857422,0.0066892411559820175,0.0023689866065979004
1761132061139742500,3.055742431640625,0.022861480712890625,0.006682770326733589,0.002310454845428467
1761132061149742300,3.065742431640625,0.04201507568359375,-0.00038018450140953064,-0.01922985166311264
1761132061159741400,3.075741455078125,0.02286052703857422,-0.0002677924931049347,0.0024448037147521973
1761132061169740500,3.085740478515625,0.02764892578125,-0.002596866339445114,0.012074187397956848
1761132061179739600,3.09573974609375,0.02286052703857422,0.009493604302406311,-0.007071822881698608
1761132061189739300,3.1057392578125,0.039620399475097656,-0.0001500248908996582,-0.004749730229377747
1761132061199738600,3.115738525390625,0.04201507568359375,0.00696842186152935,0.004774704575538635
1761132061209738200,3.12573828125,0.03483390808105469,0.011686384677886963,-0.00970149040222168
1761132061219737300,3.1357373046875,0.018073081970214844,-0.002753645181655884,-0.004866316914558411
1761132061229736700,3.14573681640625,0.032439231872558594,-0.0028176680207252502,0.009446591138839722
1761132061239735800,3.15573583984375,0.030045509338378906,0.0019126012921333313,0.00705854594707489
1761132061249735000,3.16573486328125,0.02046966552734375,0.02351350337266922,0.004599854350090027
1761132061259734000,3.175734130859375,0.03483390808105469,0.0043017566204071045,-0.009759187698364258
1761132061269733000,3.185733154296875,0.03483295440673828,0.006583442911505699,-0.007313728332519531
1761132061279732200,3.195732177734375,0.03483295440673828,0.011351943016052246,-0.004917651414871216
1761132061289731300,3.2057314453125,0.032439231872558594,0.009076409041881561,-0.012092933058738708
1761132061299730400,3.21573046875,0.027650833129882812,0.006740475073456764,-0.0025222599506378174
1761132061309730300,3.225730224609375,0.02765178680419922,0.006794540211558342,0.004615291953086853
1761132061319730200,3.235730224609375,0.020471572875976562,0.011766571551561356,-0.0074927955865859985
1761132061329730000,3.24572998046875,0.034836769104003906,0.016596399247646332,-0.005082935094833374
1761132061339730200,3.255730224609375,0.018074989318847656,0.01889823190867901,0.00695645809173584
1761132061349730000,3.26572998046875,0.025257110595703125,0.006841907277703285,0.002295076847076416
1761132061359730200,3.275730224609375,0.01567840576171875,0.00441470742225647,0.00954023003578186
1761132061369730000,3.28572998046875,0.02046680450439453,0.002027057111263275,-0.02391987293958664
1761132061379730200,3.295730224609375,0.018072128295898438,-0.005161572247743607,0.0023578107357025146
1761132061389730000,3.30572998046875,0.03962230682373047,-0.0003786608576774597,0.0046936869621276855
1761132061399730200,3.315730224609375,0.02525806427001953,0.011580303311347961,-0.005000174045562744
1761132061409730000,3.32572998046875,0.04441356658935547,0.009238339960575104,-0.009853243827819824
1761132061419730200,3.335730224609375,0.03004741668701172,0.006785610690712929,-0.014635607600212097
1761132061429731000,3.34573095703125,0.030048370361328125,0.006837720051407814,-0.014700308442115784
1761132061439732000,3.35573193359375,0.03244209289550781,-0.00028466060757637024,-0.021869398653507233
1761132061449732900,3.36573291015625,0.027654647827148438,-0.005014095455408096,-0.0027217864990234375
1761132061459733800,3.375733642578125,0.027654647827148438,-0.00016742199659347534,-0.00033371150493621826
1761132061469734700,3.385734619140625,0.018077850341796875,0.007015181705355644,-0.002727910876274109
1761132061479735600,3.395735595703125,0.0396270751953125,0.004614640027284622,-0.002786397933959961
1761132061489736200,3.405736083984375,0.05159759521484375,0.006988538429141045,-0.005178898572921753
1761132061499737000,3.415737060546875,0.0396270751953125,-0.014565695077180862,-0.010025978088378906
1761132061509738000,3.425738037109375,0.02047443389892578,0.011903207749128342,-0.0005021989345550537
1761132061519739000,3.43573876953125,0.03484153747558594,-0.00013235583901405334,0.006627902388572693
1761132061529739800,3.44573974609375,0.025264739990234375,0.007088957354426384,-0.005347087979316711
1761132061539740700,3.45574072265625,0.020476341247558594,0.002294529229402542,0.006565377116203308
1761132061549741600,3.465741455078125,0.008502960205078125,0.004700779914855957,0.00907665491104126
1761132061559742500,3.475742431640625,0.020476341247558594,0.007148066535592079,-0.010141462087631226
1761132061569743400,3.485743408203125,0.032446861267089844,0.014494778588414192,-0.02205047756433487
1761132061579744300,3.495744140625,0.020476341247558594,0.00031287968158721924,-0.019596286118030548
1761132061589745200,3.5057451171875,0.046813011169433594,0.012271445244550705,-0.024501897394657135
1761132061599746000,3.51574609375,0.022871017456054688,0.007526198402047157,-0.014890030026435852
1761132061609747000,3.525746826171875,0.027657508850097656,-0.002077970653772354,0.00199030339717865
1761132061619747000,3.5357470703125,0.03723430633544922,-0.0043726228177547455,0.01636497676372528
1761132061629748000,3.545748046875,0.030054092407226562,-0.006725862622261047,-0.0029511451721191406
1761132061639748900,3.555748779296875,0.027660369873046875,0.009966138750314713,-0.010205939412117004
1761132061649749800,3.565749755859375,0.03723716735839844,0.0003893338143825531,-0.010205939412117004
1761132061659750700,3.575750732421875,0.02766132354736328,0.002843804657459259,-0.01258675754070282
1761132061669751600,3.58575146484375,0.020477294921875,-0.013870563358068466,-0.0029554367065429688
1761132061679752400,3.59575244140625,0.05160236358642578,0.007735518738627434,-0.019720979034900665
1761132061689753300,3.60575341796875,0.03723716735839844,-0.018600303679704666,-0.007749810814857483
1761132061699754200,3.615754150390625,0.037238121032714844,0.012518826872110367,-0.005413934588432312
1761132061709755100,3.625755126953125,0.01808452606201172,-0.0042397379875183105,0.001768842339515686
1761132061719756000,3.635756103515625,0.027663230895996094,0.0006549656391143799,-0.010311886668205261
1761132061729756000,3.645755859375,0.04681873321533203,0.005569498986005783,-0.0008468478918075562
1761132061739756000,3.655756103515625,0.046817779541015625,0.017467331141233444,-0.007982239127159119
1761132061749756000,3.665755859375,0.022876739501953125,-0.004026684910058975,-0.03196939826011658
1761132061759756000,3.675756103515625,0.02287578582763672,-0.004102267324924469,-0.03194183111190796
1761132061769756000,3.685755859375,0.04202747344970703,0.024624843150377274,0.004129320383071899
1761132061779756000,3.695756103515625,0.02766132354736328,0.005380101501941681,0.011380642652511597
1761132061789756200,3.705756103515625,0.0228729248046875,0.0005918294191360474,0.008986487984657288
1761132061799756000,3.715756103515625,0.01569080352783203,0.012499134987592697,-0.007825270295143127
1761132061809756200,3.725756103515625,0.020479202270507812,0.005296751856803894,-0.0054291486740112305
1761132061819755300,3.73575537109375,0.03963184356689453,-0.006548766046762466,-0.007757216691970825
1761132061829755100,3.745755126953125,0.025267601013183594,0.0005698166787624359,0.006555691361427307
1761132061839755000,3.755755126953125,0.030055999755859375,0.034211721271276474,0.006602182984352112
1761132061849755100,3.765755126953125,0.03484344482421875,0.012710165232419968,0.006675884127616882
1761132061859755000,3.775755126953125,0.03244972229003906,-0.004074651747941971,-0.0005631893873214722
1761132061869755100,3.785755126953125,0.049210548400878906,-0.011266130954027176,0.004147008061408997
1761132061879755000,3.795755126953125,0.025267601013183594,-0.004094425588846207,-0.0005612820386886597
1761132061889755100,3.805755126953125,0.03244972229003906,-0.004094425588846207,0.011409729719161987
1761132061899755000,3.815755126953125,0.030055999755859375,0.007809175178408623,-0.014998659491539001
1761132061909755100,3.825755126953125,0.037238121032714844,-0.00888269767165184,-0.00774383544921875
1761132061919756000,3.835756103515625,0.013295173645019531,0.007863229140639305,0.004287704825401306
1761132061929756000,3.845755859375,0.04442119598388672,0.0007336623966693878,0.009011775255203247
1761132061939756000,3.855756103515625,0.03484535217285156,0.003180369734764099,0.01373562216758728
1761132061949756000,3.865755859375,0.04921150207519531,0.0033130496740341187,-0.015047818422317505
1761132061959756000,3.875756103515625,0.03484630584716797,-0.00394759327173233,-0.007857188582420349
1761132061969756000,3.885755859375,0.030057907104492188,0.010481905192136765,-0.000622183084487915
1761132061979756000,3.895756103515625,0.03724098205566406,0.005805697292089462,0.004115000367164612
1761132061989756000,3.905755859375,0.022874832153320312,0.003516312688589096,0.004163801670074463
1761132061999756000,3.915756103515625,0.020483016967773438,0.008311910554766655,-0.0007437616586685181
1761132062009756000,3.925755859375,0.04203033447265625,-0.0036590993404388428,-0.0007437616586685181
1761132062019755000,3.935755126953125,0.02287578582763672,0.013086564838886261,-0.010260149836540222
1761132062029755100,3.945755126953125,0.03245258331298828,0.015363706275820732,-0.007853895425796509
1761132062039755300,3.95575537109375,0.022874832153320312,0.017804723232984543,-0.010193049907684326
1761132062049755100,3.965755126953125,0.03245258331298828,-0.008537065237760544,-0.027010977268218994
1761132062059755300,3.97575537109375,0.030058860778808594,0.0010398738086223602,-0.02222251147031784
1761132062069755100,3.985755126953125,0.04442310333251953,0.0033575929701328278,-0.01980077475309372
1761132062079755300,3.99575537109375,0.03005504608154297,-0.0014511793851852417,0.004320889711380005
1761132062089755100,4.005755126953125,0.02526569366455078,0.010443799197673798,0.018713653087615967
1761132062099755000,4.015755126953125,0.037238121032714844,0.015342788770794868,0.016248852014541626
1761132062109755100,4.025755126953125,0.032448768615722656,-0.0038631483912467957,-0.0004460960626602173
1761132062119756000,4.035756103515625,0.027660369873046875,-0.006276458501815796,0.004344478249549866
1761132062129756000,4.045755859375,0.04442024230957031,0.008088750764727592,0.001950278878211975
1761132062139756000,4.055756103515625,0.037238121032714844,-0.008677396923303604,0.011468440294265747
1761132062149756000,4.065755859375,0.03723716735839844,0.008023088797926903,-0.0004967004060745239
1761132062159756000,4.075756103515625,0.04442119598388672,0.010472200810909271,0.0018526017665863037
1761132062169756000,4.085755859375,0.01808643341064453,0.034525830298662186,-0.005400508642196655
1761132062179756000,4.095756103515625,0.025267601013183594,0.00818215124309063,-0.002887248992919922
1761132062189756000,4.105755859375,0.03484535217285156,-0.006234440952539444,-0.000606045126914978
1761132062199756000,4.115756103515625,0.04921150207519531,-0.008693192154169083,-0.005446955561637878
1761132062209756000,4.125755859375,0.032451629638671875,-0.0014715194702148438,-0.007845327258110046
1761132062219755300,4.13575537109375,0.032451629638671875,-0.0015884414315223694,-0.007833227515220642
1761132062229755100,4.145755126953125,0.04442405700683594,-0.008718542754650116,0.0016790330410003662
1761132062239755000,4.155755126953125,0.030057907104492188,-0.015953652560710907,-0.007833227515220642
1761132062249755100,4.165755126953125,0.030057907104492188,0.0007994174957275391,0.01844450831413269
1761132062259755000,4.175755126953125,0.03963279724121094,0.0030025355517864227,0.001744195818901062
1761132062269755100,4.185755126953125,0.037240028381347656,0.010240234434604645,-0.007877588272094727
1761132062279755000,4.195755126953125,0.04202842712402344,0.012634437531232834,-0.01745438575744629
1761132062289755100,4.205755126953125,0.0252685546875,-0.0017442591488361359,-0.012605458498001099
1761132062299755000,4.215755126953125,0.0228729248046875,0.022139359265565872,-0.0006283819675445557
1761132062309755100,4.225755126953125,0.02048015594482422,0.007832681760191917,-0.0173938125371933
1761132062319756000,4.235756103515625,0.04202842712402344,-0.004149973392486572,-0.015116527676582336
1761132062329756000,4.245755859375,0.027663230895996094,-0.0017551928758621216,-0.005539640784263611
1761132062339756000,4.255756103515625,0.03484630584716797,0.02464156597852707,0.008839070796966553
1761132062349756000,4.265755859375,0.03484630584716797,0.024621207267045975,0.008840903639793396
1761132062359756000,4.275756103515625,0.04202842712402344,0.012632828205823898,-0.00550273060798645
1761132062369756000,4.285755859375,0.04681587219238281,0.02929670363664627,0.013680413365364075
1761132062379756000,4.295756103515625,0.02048015594482422,0.012499246746301651,0.006502047181129456
1761132062389756000,4.305755859375,0.018085479736328125,0.017241761088371277,0.01841837167739868
1761132062399756000,4.315756103515625,0.04921150207519531,-0.004371006041765213,0.0016063004732131958
1761132062409756000,4.325755859375,0.030057907104492188,0.0003781169652938843,0.00879281759262085
1761132062419755000,4.335755126953125,0.020479202270507812,0.0003251582384109497,-0.010296270251274109
1761132062429755100,4.345755126953125,0.03244972229003906,0.012295771390199661,-0.005508005619049072
1761132062439755000,4.355755126953125,0.03963279724121094,0.005093790590763092,-0.012688562273979187
1761132062449755100,4.365755126953125,0.034844398498535156,0.0026410557329654694,0.0040768831968307495
1761132062459755000,4.375755126953125,0.0228729248046875,0.012092776596546173,0.0016166865825653076
1761132062469755100,4.385755126953125,0.05160236358642578,0.004902441054582596,0.01131245493888855
1761132062479755000,4.395755126953125,0.03244972229003906,0.014591896906495094,0.008867055177688599
1761132062489755100,4.405755126953125,0.025267601013183594,-0.007014848291873932,-0.007886499166488647
1761132062499755000,4.415755126953125,0.022871017456054688,0.0025490038096904755,-0.019796766340732574
1761132062509755100,4.425755126953125,0.020477294921875,0.016794748604297638,-0.017410174012184143
1761132062519756000,4.435756103515625,0.03723716735839844,0.01912354864180088,-0.007886052131652832
1761132062529756000,4.445755859375,0.03963279724121094,0.000005073845386505127,-0.0007464289665222168
1761132062539756000,4.455756103515625,0.03723716735839844,0.02141391485929489,0.004036366939544678
1761132062549756000,4.465755859375,0.022871017456054688,0.0021838247776031494,0.0016697049140930176
1761132062559756000,4.475756103515625,0.03723907470703125,-0.00495171919465065,0.01591189205646515
1761132062569756000,4.485755859375,0.030057907104492188,0.004618614912033081,-0.010482877492904663
1761132062579756000,4.495756103515625,0.034844398498535156,0.016537699848413467,0.013523772358894348
1761132062589756000,4.505755859375,0.03963470458984375,0.0046195946633815765,-0.008088469505310059
1761132062599756000,4.515756103515625,0.022874832153320312,0.007008617743849754,0.011006802320480347
1761132062609756000,4.525755859375,0.01808643341064453,0.006995266303420067,-0.012874633073806763
1761132062619755000,4.535755126953125,0.022873878479003906,0.009273253381252289,-0.00807403028011322
1761132062629755100,4.545755126953125,0.032451629638671875,-0.0026455633342266083,-0.000955924391746521
1761132062639755000,4.555755126953125,0.04681587219238281,0.0045430660247802734,-0.022445224225521088
1761132062649755100,4.565755126953125,0.03245353698730469,0.0022498592734336853,-0.005853921175003052
1761132062659755000,4.575755126953125,0.018088340759277344,-0.002596486359834671,-0.020213060081005096
1761132062669755100,4.585755126953125,0.0276641845703125,0.011710193008184433,0.003734990954399109
1761132062679755000,4.595755126953125,0.032454490661621094,-0.00014977902173995972,-0.0035181939601898193
1761132062689755100,4.605755126953125,0.025272369384765625,0.004580628126859665,0.003670632839202881
1761132062699755000,4.615755126953125,0.020483016967773438,0.011804260313510895,0.013262942433357239
1761132062709755100,4.625755126953125,0.020483016967773438,0.011744704097509384,0.01324966549873352
1761132062719756000,4.635756103515625,0.03963661193847656,-0.009742576628923416,-0.001102060079574585
1761132062729756000,4.645755859375,0.02287769317626953,0.004617009311914444,0.013204768300056458
1761132062739756000,4.655756103515625,0.03245258331298828,-0.007420256733894348,-0.001035451889038086
1761132062749756000,4.665755859375,0.03005695343017578,-0.005091652274131775,0.008666589856147766
1761132062759756000,4.675756103515625,0.051604270935058594,0.002091404050588608,-0.010487005114555359
1761132062769756000,4.685755859375,0.022874832153320312,0.009326200932264328,-0.010551542043685913
1761132062779756000,4.695756103515625,0.0252685546875,0.02852770686149597,-0.012871548533439636
1761132062789756000,4.705755859375,0.01808452606201172,0.004591848701238632,0.0015522539615631104
1761132062799756000,4.715756103515625,0.0252685546875,0.014163030311465263,-0.0009003430604934692
1761132062809756000,4.725755859375,0.04202747344970703,0.006921498104929924,-0.010471269488334656
1761132062819755300,4.73575537109375,0.037240028381347656,-0.002602670341730118,0.00861784815788269
1761132062829755100,4.745755126953125,0.032451629638671875,0.00224386528134346,0.011005878448486328
1761132062839755000,4.755755126953125,0.02527141571044922,0.004686560481786728,0.008508101105690002
1761132062849755100,4.765755126953125,0.030059814453125,-0.01925492286682129,0.013296708464622498
1761132062859755000,4.775755126953125,0.030061721801757812,-0.019150305539369583,0.013167455792427063
1761132062869755100,4.785755126953125,0.030060768127441406,-0.0073094442486763,-0.003519222140312195
1761132062879755000,4.795755126953125,0.032454490661621094,-0.007309708744287491,-0.0011251270771026611
1761132062889755100,4.805755126953125,0.03724193572998047,0.014060506597161293,0.0036618411540985107
1761132062899755000,4.815755126953125,0.04442310333251953,0.009207088500261307,-0.015366479754447937
1761132062909755100,4.825755126953125,0.03963470458984375,0.0020850151777267456,-0.02014138549566269
1761132062919755800,4.835755859375,0.049210548400878906,-0.009899076074361801,-0.010503903031349182
1761132062929756000,4.845755859375,0.030057907104492188,0.0116424560546875,0.0014084875583648682
1761132062939755800,4.855755859375,0.027662277221679688,0.009196590632200241,0.00865580141544342
1761132062949756000,4.865755859375,0.008507728576660156,-0.00045410916209220886,0.011097103357315063
1761132062959755800,4.875755859375,0.037238121032714844,0.009183630347251892,0.006322324275970459
1761132062969756000,4.885755859375,0.04202747344970703,-0.007581401616334915,-0.005707055330276489
1761132062979756000,4.895756103515625,0.04202747344970703,-0.007461756467819214,-0.005699515342712402
1761132062989756000,4.905755859375,0.034844398498535156,0.011736448854207993,-0.003250807523727417
1761132062999756000,4.915756103515625,0.03484535217285156,0.004490140825510025,-0.010485783219337463
1761132063009756000,4.925755859375,0.008505821228027344,-0.002694174647331238,-0.005519866943359375
1761132063019755000,4.935755126953125,-0.0010709762573242188,0.009337365627288818,-0.022265799343585968
1761132063029755100,4.945755126953125,0.00611114501953125,-0.0002525337040424347,-0.019810907542705536
1761132063039755000,4.955755126953125,0.02287006378173828,-0.0003117211163043976,-0.005439922213554382
1761132063049755100,4.965755126953125,0.044419288635253906,-0.0051634348928928375,0.008873090147972107
1761132063059755000,4.975755126953125,0.03723621368408203,-0.0027890540659427643,-0.010278493165969849
1761132063069755100,4.985755126953125,0.05878448486328125,-0.0003371201455593109,-0.01267901062965393
1761132063079755000,4.995755126953125,0.020476341247558594,0.0020598843693733215,0.011282816529273987
1761132063089755100,5.005755126953125,0.030054092407226562,-0.02188841626048088,0.0016473829746246338
1761132063099755000,5.015755126953125,0.032446861267089844,0.009222708642482758,-0.0006862878799438477
1761132063109755100,5.025755126953125,0.037235260009765625,0.03322286158800125,-0.024634473025798798
1761132063119756000,5.035756103515625,0.020476341247558594,0.004492577165365219,0.006490200757980347
1761132063129756000,5.045755859375,0.0444183349609375,-0.007536567747592926,-0.017445653676986694
1761132063139756000,5.055756103515625,0.03723621368408203,0.009100746363401413,-0.01749192178249359
1761132063149756000,5.065755859375,0.030053138732910156,-0.005277559161186218,-0.024613849818706512
1761132063159756000,5.075756103515625,0.03244590759277344,-0.002898402512073517,-0.014996007084846497
1761132063169756000,5.085755859375,0.020475387573242188,0.004346881061792374,-0.02214556187391281
1761132063179756000,5.095756103515625,0.034839630126953125,-0.002732161432504654,-0.012520253658294678
1761132063189756000,5.105755859375,0.03723335266113281,0.009283889085054398,-0.007677346467971802
1761132063199756000,5.115756103515625,0.025262832641601562,-0.002767428755760193,0.00667630136013031
1761132063209756000,5.125755859375,0.039628028869628906,-0.0027089007198810577,-0.017271727323532104
1761132063219755000,5.135755126953125,0.037232398986816406,-0.0003111325204372406,-0.019626937806606293
1761132063229755100,5.145755126953125,0.02047252655029297,0.00686296634376049,-0.0027677416801452637
1761132063239755000,5.155755126953125,0.037230491638183594,0.01648842915892601,-0.005068570375442505
1761132063249755100,5.165755126953125,0.039626121520996094,-0.009914979338645935,0.0044170767068862915
1761132063259755000,5.175755126953125,0.03962516784667969,0.009284071624279022,0.023625344038009644
1761132063269755100,5.185755126953125,0.013288497924804688,0.009403526782989502,-0.0003090500831604004
1761132063279755000,5.195755126953125,0.03483772277832031,-0.0049025751650333405,0.002079203724861145
1761132063289755100,5.205755126953125,0.04201984405517578,0.0022804290056228638,0.014050379395484924
1761132063299755000,5.215755126953125,0.02526092529296875,-0.014437425881624222,0.014066055417060852
1761132063309755100,5.225755126953125,0.039628028869628906,0.004841938614845276,-0.0219588503241539
1761132063319756000,5.235756103515625,0.027657508850097656,0.00489400327205658,-0.0004755854606628418
1761132063329756000,5.245755859375,0.030051231384277344,0.0049459002912044525,0.011608615517616272
1761132063339755800,5.255755859375,0.022869110107421875,0.016971562057733536,-0.009984180331230164
1761132063349756000,5.265755859375,0.010897636413574219,-0.0021179020404815674,-0.009931817650794983
1761132063359755800,5.275755859375,0.018077850341796875,0.0002108253538608551,-0.021777547895908356
1761132063369756000,5.285755859375,0.025261878967285156,-0.002196207642555237,0.004441305994987488
1761132063379755800,5.295755859375,0.03244590759277344,0.012156970798969269,-0.02680036425590515
1761132063389756000,5.305755859375,0.03484058380126953,0.00970437005162239,-0.0004580765962600708
1761132063399755800,5.315755859375,0.025262832641601562,0.004844341427087784,-0.012362390756607056
1761132063409756000,5.325755859375,0.042021751403808594,0.01677076146006584,0.004342526197433472
1761132063419755000,5.335755126953125,0.018080711364746094,-0.007177591323852539,-0.002898573875427246
1761132063429755100,5.345755126953125,0.02765655517578125,0.026385875418782234,-0.002844199538230896
1761132063439755000,5.355755126953125,0.04680919647216797,-0.004692103713750839,-0.01713554561138153
1761132063449755000,5.3657548828125,0.07314682006835938,0.019308971241116524,-0.00995875895023346
1761132063459755000,5.375755126953125,0.018077850341796875,0.004977710545063019,0.0069353580474853516
1761132063469755000,5.3857548828125,-0.013045310974121094,0.0025791004300117493,-0.0026805996894836426
1761132063479755000,5.395755126953125,0.027654647827148438,0.009707767516374588,-0.00502970814704895
1761132063489755000,5.4057548828125,0.03962516784667969,0.0025052018463611603,0.0021548867225646973
1761132063499755000,5.415755126953125,0.04920196533203125,0.009635426104068756,-0.0073573291301727295
1761132063509755000,5.4257548828125,0.058777809143066406,0.007162788882851601,-0.00016683340072631836
1761132063519756000,5.435756103515625,0.037230491638183594,0.002309441566467285,-0.012190520763397217
1761132063529756000,5.445755859375,0.04920005798339844,0.011772491037845612,-0.0001685619354248047
1761132063539756000,5.455756103515625,0.020468711853027344,-0.009846895933151245,0.0022922158241271973
1761132063549756000,5.465755859375,0.025257110595703125,0.023555662482976913,-0.014454856514930725
1761132063559756000,5.475756103515625,0.0037088394165039062,-0.014811128377914429,0.014262259006500244
1761132063569756000,5.485755859375,0.027650833129882812,-0.010165315121412277,-0.021695248782634735
1761132063579756000,5.495756103515625,0.042016029357910156,-0.02944471687078476,0.0045748502016067505
1761132063589756000,5.505755859375,0.04201698303222656,-0.029509663581848145,0.004522189497947693
1761132063599756000,5.515756103515625,0.02525806427001953,0.006280733272433281,0.009264126420021057
1761132063609756000,5.525755859375,0.032439231872558594,0.013351215049624443,0.006921306252479553
1761132063619755000,5.535755126953125,0.04680347442626953,0.010701823979616165,-0.009831532835960388
1761132063629755100,5.545755126953125,0.053985595703125,0.0034006834030151367,-0.0002619922161102295
1761132063639755000,5.555755126953125,0.02525615692138672,-0.013305053114891052,-0.014672398567199707
1761132063649755100,5.565755126953125,0.02286052703857422,0.0010086148977279663,0.0021517574787139893
1761132063659755000,5.575755126953125,0.044409751892089844,0.010579012334346771,-0.007483735680580139
1761132063669755100,5.585755126953125,0.022858619689941406,0.01049991324543953,-0.024057380855083466
1761132063679755000,5.595755126953125,0.027647972106933594,0.01781359501183033,-0.01694713532924652
1761132063689755100,5.605755126953125,0.015676498413085938,-0.006081331521272659,-0.019267447292804718
1761132063699755000,5.615755126953125,0.03243541717529297,0.005936717614531517,-0.00003980100154876709
1761132063709755100,5.625755126953125,0.042011260986328125,0.0035409480333328247,-0.011999070644378662
1761132063719755800,5.635755859375,0.04680156707763672,-0.008317418396472931,0.011891737580299377
1761132063729756000,5.645755859375,0.04919719696044922,0.008549138903617859,-0.02173662930727005
1761132063739755800,5.655755859375,0.030045509338378906,0.008720312267541885,-0.024188078939914703
1761132063749756000,5.665755859375,0.039623260498046875,0.02086445316672325,-0.019437305629253387
1761132063759755800,5.675755859375,0.03962230682373047,0.011477295309305191,-0.03128981590270996
1761132063769756000,5.685755859375,0.020470619201660156,-0.00273929163813591,-0.0074418336153030396
1761132063779756000,5.695756103515625,0.027652740478515625,-0.0002650432288646698,-0.009824573993682861
1761132063789756000,5.705755859375,0.03483867645263672,0.004608403891324997,0.01638452708721161
1761132063799756000,5.715756103515625,0.042021751403808594,-0.014372292906045914,-0.021960534155368805
1761132063809756000,5.725755859375,0.022869110107421875,0.016901932656764984,0.018666282296180725
1761132063819755000,5.735755126953125,0.032446861267089844,0.007438166067004204,0.009038403630256653
1761132063829755100,5.745755126953125,0.046814918518066406,0.0075624119490385056,-0.007852241396903992
1761132063839755000,5.755755126953125,0.03963279724121094,0.010136619210243225,-0.015013739466667175
1761132063849755100,5.765755126953125,0.039633750915527344,0.02467987686395645,-0.010223910212516785
1761132063859755000,5.775755126953125,0.03963279724121094,0.024865631014108658,-0.01014438271522522
1761132063869755100,5.785755126953125,0.025269508361816406,0.01790204644203186,-0.010127320885658264
1761132063879755000,5.795755126953125,0.039633750915527344,0.01330089196562767,-0.014816895127296448
1761132063889755100,5.805755126953125,0.03005695343017578,0.008510081097483635,0.004317060112953186
1761132063899755000,5.815755126953125,0.02766132354736328,0.0038094446063041687,0.002012401819229126
1761132063909755100,5.825755126953125,0.034844398498535156,0.0038699842989444733,0.023573696613311768
1761132063919755800,5.835755859375,0.04442024230957031,-0.010429054498672485,0.011674553155899048
1761132063929756000,5.845755859375,0.0037202835083007812,-0.0008056461811065674,0.018734127283096313
1761132063939756000,5.855756103515625,0.0013256072998046875,0.011112470179796219,-0.014720290899276733
1761132063949756000,5.865755859375,0.020479202270507812,-0.0032587721943855286,-0.019567228853702545
1761132063959756000,5.875756103515625,0.030057907104492188,0.011036783456802368,-0.022072099149227142
1761132063969756000,5.885755859375,0.04442405700683594,0.018213361501693726,-0.026919052004814148
1761132063979756000,5.895756103515625,0.0013303756713867188,0.006148245185613632,-0.010307669639587402
1761132063989756000,5.905755859375,0.006119728088378906,0.018167469650506973,-0.0032287389039993286
1761132063999756000,5.915756103515625,-0.0010614395141601562,0.006088867783546448,0.011048972606658936
1761132064009756000,5.925755859375,0.020486831665039062,-0.013271763920783997,0.022923052310943604
1761132064019755000,5.935755126953125,0.039641380310058594,-0.0206444188952446,0.015621811151504517
1761132064029755100,5.945755126953125,0.037245750427246094,0.003061871975660324,0.027597576379776
1761132064039755000,5.955755126953125,0.034852027893066406,0.002997450530529022,-0.00836789608001709
1761132064049755100,5.965755126953125,0.03006267547607422,0.007655313238501549,-0.02505471557378769
1761132064059755000,5.975755126953125,0.04921722412109375,0.00046556442975997925,-0.020325101912021637
1761132064069755100,5.985755126953125,0.020485877990722656,-0.0019217617809772491,-0.017872214317321777
1761132064079755000,5.995755126953125,0.02048492431640625,0.005189232528209686,-0.03456491976976395
1761132064089755100,6.005755126953125,0.04921245574951172,-0.004576459527015686,-0.020121179521083832
1761132064099755000,6.015755126953125,0.04921150207519531,0.00739111565053463,0.0015847235918045044
1761132064109755100,6.025755126953125,0.020478248596191406,-0.009431742131710052,-0.005453065037727356
1761132064119755800,6.035755859375,0.018083572387695312,-0.0022682547569274902,0.0041258931159973145
1761132064129756000,6.045755859375,0.013294219970703125,0.00013322383165359497,-0.002997860312461853
1761132064139756000,6.055756103515625,0.05399608612060547,-0.009324785321950912,0.00658629834651947
1761132064149756000,6.065755859375,0.027658462524414062,0.02400340512394905,0.009039640426635742
1761132064159756000,6.075756103515625,0.010896682739257812,-0.00006220117211341858,-0.005194112658500671
1761132064169756000,6.085755859375,0.02286815643310547,0.00478518009185791,0.011559292674064636
1761132064179756000,6.095756103515625,0.0659637451171875,0.021605126559734344,0.006784364581108093
1761132064189756000,6.105755859375,0.03244495391845703,-0.0024147965013980865,-0.02193797379732132
1761132064199756000,6.115756103515625,0.0061092376708984375,0.01679689809679985,-0.012367203831672668
1761132064209756000,6.125755859375,0.02286529541015625,-0.0047515034675598145,-0.009795233607292175
1761132064219755500,6.135755615234375,0.037230491638183594,-0.004690438508987427,-0.014569953083992004
1761132064229755400,6.14575537109375,0.051596641540527344,0.01218603178858757,-0.009793609380722046
1761132064239755300,6.15575537109375,0.022867202758789062,0.004997003823518753,-0.005063876509666443
1761132064249755400,6.16575537109375,0.0132904052734375,-0.026192035526037216,0.0068546682596206665
1761132064259755300,6.17575537109375,0.03483867645263672,-0.01657375693321228,0.014052793383598328
1761132064269755400,6.18575537109375,0.015685081481933594,-0.01178482174873352,0.004476189613342285
1761132064279755300,6.19575537109375,0.02286529541015625,-0.0022158734500408173,0.009383514523506165
1761132064289755400,6.20575537109375,0.05159568786621094,0.007361331954598427,0.004595249891281128
1761132064299755300,6.21575537109375,0.03244304656982422,0.007355833426117897,-0.0026456862688064575
1761132064309755400,6.22575537109375,0.018077850341796875,0.012085314840078354,-0.014610812067985535
1761132064319756300,6.23575634765625,0.02765369415283203,0.014421513304114342,-0.026575610041618347
1761132064329756200,6.245756103515625,0.03004932403564453,0.016810137778520584,-0.01466311514377594
1761132064339756300,6.25575634765625,0.02765369415283203,0.011950559914112091,-0.01459638774394989
1761132064349756200,6.265756103515625,0.02286529541015625,-0.007220864295959473,-0.00499802827835083
1761132064359756300,6.27575634765625,0.02286529541015625,-0.004952549934387207,0.006906688213348389
1761132064369756200,6.285756103515625,0.04441356658935547,0.004546213895082474,0.004520520567893982
1761132064379756300,6.29575634765625,0.034836769104003906,-0.0027000121772289276,0.0020741522312164307
1761132064389756200,6.305756103515625,0.01807689666748047,0.014000872150063515,0.004474371671676636
1761132064399756300,6.31575634765625,0.020471572875976562,-0.005213148891925812,0.021220356225967407
1761132064409756200,6.325756103515625,0.020471572875976562,-0.005336228758096695,0.021173864603042603
1761132064419755300,6.33575537109375,0.027654647827148438,0.001840353012084961,-0.007615089416503906
1761132064429755400,6.34575537109375,0.030051231384277344,0.006558312103152275,-0.012514457106590271
1761132064439755300,6.35575537109375,0.015685081481933594,0.008892819285392761,-0.01013357937335968
1761132064449755400,6.36575537109375,0.05159759521484375,-0.017440810799598694,-0.014902397990226746
1761132064459755300,6.37575537109375,0.051598548889160156,0.006560532376170158,-0.017302334308624268
1761132064469755400,6.38575537109375,0.020473480224609375,0.011330004781484604,-0.017300263047218323
1761132064479755300,6.39575537109375,0.015685081481933594,0.00654199905693531,-0.007723316550254822
1761132064489755400,6.40575537109375,0.04202079772949219,0.0017535947263240814,-0.005329102277755737
1761132064499755300,6.41575537109375,0.013289451599121094,-0.007894694805145264,-0.005262359976768494
1761132064509755400,6.42575537109375,0.042018890380859375,0.006359076127409935,-0.005191922187805176
1761132064519755800,6.435755859375,0.0348358154296875,-0.00569157674908638,-0.0075974613428115845
1761132064529756000,6.445755859375,0.032441139221191406,0.003887820988893509,0.0043931156396865845
1761132064539755800,6.455755859375,0.032444000244140625,-0.010417021811008453,0.006603837013244629
1761132064549756000,6.465755859375,0.030051231384277344,0.0038228370249271393,-0.015010058879852295
1761132064559755800,6.475755859375,0.05638694763183594,0.013335490599274635,-0.024639226496219635
1761132064569756000,6.485755859375,0.042022705078125,-0.0034299418330192566,-0.010332554578781128
1761132064579756000,6.495756103515625,0.03484058380126953,0.025177529081702232,0.008774623274803162
1761132064589756000,6.505755859375,0.04681205749511719,0.018047431483864784,-0.010443538427352905
1761132064599755800,6.515755859375,0.032448768615722656,0.022865355014801025,-0.02012171596288681
1761132064609756000,6.525755859375,0.037235260009765625,0.008410222828388214,-0.005668580532073975
1761132064619755300,6.53575537109375,0.05399513244628906,0.018004531040787697,-0.015266910195350647
1761132064629755400,6.54575537109375,0.032446861267089844,0.010729372501373291,-0.003246620297431946
1761132064639755300,6.55575537109375,0.0180816650390625,0.01308138482272625,-0.000887259840965271
1761132064649755400,6.56575537109375,0.022869110107421875,0.005903327837586403,-0.015213266015052795
1761132064659755300,6.57575537109375,0.03244495391845703,0.0011448636651039124,-0.0031465739011764526
1761132064669755400,6.58575537109375,0.03723335266113281,0.006015321239829063,-0.010298192501068115
1761132064679755300,6.59575537109375,0.02765655517578125,-0.005934569984674454,-0.005492404103279114
1761132064689755400,6.60575537109375,0.037232398986816406,-0.005946766585111618,0.0041643232107162476
1761132064699755300,6.61575537109375,0.020471572875976562,-0.001169394701719284,-0.005332425236701965
1761132064709755400,6.62575537109375,0.032441139221191406,0.0013343952596187592,-0.014802202582359314
1761132064719756300,6.63575634765625,0.04441356658935547,0.0013890452682971954,-0.002876177430152893
1761132064729756200,6.645756103515625,0.008502006530761719,0.015825875103473663,0.004239708185195923
1761132064739756300,6.65575634765625,0.030050277709960938,0.003835756331682205,-0.019700147211551666
1761132064749756200,6.665756103515625,0.03004741668701172,-0.0032936446368694305,-0.007596537470817566
1761132064759756300,6.67575634765625,0.025259971618652344,-0.005570352077484131,-0.019579581916332245
1761132064769756200,6.685756103515625,0.01807689666748047,0.0064031947404146194,-0.005194664001464844
1761132064779756300,6.69575634765625,0.025259971618652344,0.006525879725813866,0.014005288481712341
1761132064789756400,6.70575634765625,0.032439231872558594,0.018536021932959557,-0.0049552321434021
1761132064799756300,6.71575634765625,0.030045509338378906,-0.007864169776439667,-0.0026134848594665527
1761132064809756400,6.72575634765625,0.037227630615234375,0.008834704756736755,-0.005021184682846069
1761132064819755500,6.735755615234375,0.032439231872558594,0.006381528452038765,0.009350031614303589
1761132064829755400,6.74575537109375,0.02286243438720703,-0.005654290318489075,0.0021148324012756348
1761132064839755500,6.755755615234375,0.037227630615234375,-0.0033312663435935974,-0.005001068115234375
1761132064849755400,6.76575537109375,0.022861480712890625,0.015702880918979645,0.018933340907096863
1761132064859755500,6.775755615234375,0.02046680450439453,0.030054736882448196,-0.012130707502365112
1761132064869755400,6.78575537109375,0.02286052703857422,0.006173653528094292,-0.02648228406906128
1761132064879755300,6.79575537109375,0.02046680450439453,-0.008131653070449829,-0.019305340945720673
1761132064889755400,6.80575537109375,0.04919719696044922,0.0110694020986557,-0.0048659443855285645
1761132064899755300,6.81575537109375,0.030043601989746094,0.015929825603961945,-0.00014410912990570068
1761132064909755400,6.82575537109375,0.030045509338378906,-0.0007936097681522369,-0.00018693506717681885
1761132064919755800,6.835755859375,0.022861480712890625,0.0016416162252426147,0.009405389428138733
1761132064929756000,6.845755859375,0.022861480712890625,0.0016412213444709778,0.004616826772689819
1761132064939755800,6.855755859375,0.022863388061523438,-0.012657847255468369,0.009280204772949219
1761132064949756000,6.865755859375,0.046805381774902344,0.01132960245013237,-0.00981876254081726
1761132064959755800,6.875755859375,0.01807689666748047,-0.005381181836128235,-0.009922266006469727
1761132064969756000,6.885755859375,0.01807689666748047,-0.005323491990566254,-0.009928449988365173
1761132064979756000,6.895756103515625,0.039626121520996094,0.028307978063821793,-0.012373864650726318
1761132064989756000,6.905755859375,0.030048370361328125,-0.0005413703620433807,-0.005198672413825989
1761132064999756000,6.915756103515625,0.0396270751953125,-0.012459106743335724,-0.0028498172760009766
1761132065009756000,6.925755859375,0.030050277709960938,0.023454368114471436,0.0019385963678359985
1761132065019755000,6.935755126953125,0.02286815643310547,0.013990605250000954,0.0018875449895858765
1761132065029755100,6.945755126953125,0.027657508850097656,0.004408311098814011,-0.005353406071662903
1761132065039755000,6.955755126953125,0.037232398986816406,0.0043402984738349915,0.004328981041908264
1761132065049755100,6.965755126953125,0.044414520263671875,-0.0005056560039520264,0.009123623371124268
1761132065059755000,6.975755126953125,0.025261878967285156,0.006737483665347099,-0.00043970346450805664
1761132065069755100,6.985755126953125,0.032444000244140625,0.009065527468919754,-0.0029057860374450684
1761132065079755000,6.995755126953125,0.042018890380859375,0.008999660611152649,0.006796151399612427
1761132065089755100,7.005755126953125,0.025259971618652344,-0.005385063588619232,-0.005172833800315857
1761132065099755000,7.015755126953125,0.03483772277832031,0.016178831458091736,-0.005213797092437744
1761132065109755100,7.025755126953125,0.04441547393798828,0.004201360046863556,0.006698668003082275
1761132065119755800,7.035755859375,0.027654647827148438,-0.0005420073866844177,0.009147390723228455
1761132065129756000,7.045755859375,0.034836769104003906,0.01380944810807705,0.006813600659370422
1761132065139756000,7.055756103515625,0.030048370361328125,-0.0005553662776947021,-0.00036884844303131104
1761132065149756000,7.065755859375,0.025259017944335938,0.00184529647231102,-0.00031028687953948975
1761132065159756000,7.075756103515625,0.022863388061523438,0.004168406128883362,0.01651601493358612
1761132065169756000,7.085755859375,0.037227630615234375,-0.005341004580259323,-0.004959613084793091
1761132065179756000,7.095756103515625,0.027650833129882812,0.006551699712872505,-0.01213429868221283
1761132065189756000,7.105755859375,0.02046680450439453,-0.000637982040643692,0.0023501217365264893
1761132065199756000,7.115756103515625,0.03243827819824219,-0.005412451922893524,0.019049018621444702
1761132065209756000,7.125755859375,0.015680313110351562,-0.00535980612039566,0.007013499736785889
1761132065219755000,7.135755126953125,0.030045509338378906,0.00419873371720314,0.011804237961769104
1761132065229755100,7.145755126953125,0.032439231872558594,-0.022143367677927017,-0.007407873868942261
1761132065239755000,7.155755126953125,0.0348358154296875,-0.0077646635472774506,-0.012256801128387451
1761132065249755100,7.165755126953125,0.02525806427001953,-0.0006000101566314697,0.016495123505592346
1761132065259755000,7.175755126953125,0.013286590576171875,-0.0006612055003643036,0.002116158604621887
1761132065269755100,7.185755126953125,0.02765178680419922,0.004187334328889847,0.006917908787727356
1761132065279755000,7.195755126953125,0.018074989318847656,-0.012533057481050491,0.00451970100402832
1761132065289755100,7.205755126953125,0.020471572875976562,0.004294894635677338,0.00441431999206543
1761132065299755000,7.215755126953125,0.037230491638183594,0.0114169642329216,0.0044008344411849976
1761132065309755100,7.225755126953125,0.04202079772949219,0.00895179808139801,0.006683841347694397
1761132065319756000,7.235756103515625,0.02765655517578125,-0.0030315592885017395,0.018537819385528564
1761132065329756000,7.245755859375,0.02047443389892578,0.004209578037261963,-0.012592807412147522
1761132065339755800,7.255755859375,0.042021751403808594,-0.0030315592885017395,-0.0006157904863357544
1761132065349756000,7.265755859375,0.03484058380126953,-0.014889787882566452,-0.010243743658065796
1761132065359755800,7.275755859375,0.03962898254394531,-0.0005245767533779144,0.001727268099784851
1761132065369756000,7.285755859375,0.042023658752441406,-0.014954730868339539,-0.005507990717887878
1761132065379755800,7.295755859375,0.018082618713378906,0.006587201729416847,-0.010354891419410706
1761132065389756000,7.305755859375,0.03484153747558594,0.004114560782909393,-0.015135407447814941
1761132065399755800,7.315755859375,0.0228729248046875,0.018545905128121376,-0.008077844977378845
1761132065409756000,7.325755859375,0.0228729248046875,-0.005402576178312302,-0.0033479779958724976
1761132065419755000,7.335755126953125,0.027662277221679688,-0.005466677248477936,-0.01297728717327118
1761132065429755100,7.345755126953125,0.010904312133789062,0.020922187715768814,0.0037176311016082764
1761132065439755000,7.355755126953125,0.04202842712402344,0.011331893503665924,0.018143385648727417
1761132065449755000,7.3657548828125,0.020481109619140625,0.008873943239450455,-0.013033464550971985
1761132065459755000,7.375755126953125,0.025269508361816406,-0.0031546130776405334,-0.005844622850418091
1761132065469755000,7.3857548828125,0.032451629638671875,-0.007949884980916977,-0.008297517895698547
1761132065479755000,7.395755126953125,0.0037202835083007812,-0.0009001046419143677,0.006120651960372925
1761132065489755000,7.4057548828125,0.003719329833984375,-0.0009586289525032043,0.006126657128334045
1761132065499755000,7.415755126953125,0.03484630584716797,0.006217958405613899,0.006068125367164612
1761132065509755000,7.4257548828125,0.03484535217285156,0.0037072747945785522,-0.008284986019134521
1761132065519755800,7.435755859375,0.015689849853515625,0.0012410469353199005,-0.0034300237894058228
1761132065529756000,7.445755859375,0.034842491149902344,0.017887094989418983,0.0014094710350036621
1761132065539755800,7.455755859375,0.04442024230957031,0.027518022805452347,0.006152689456939697
1761132065549756000,7.465755859375,0.037238121032714844,0.010811522603034973,-0.013065323233604431
1761132065559755800,7.475755859375,0.025266647338867188,-0.0035024993121623993,0.006201386451721191
1761132065569756000,7.485755859375,0.025266647338867188,-0.0034415125846862793,-0.00815032422542572
1761132065579756000,7.495756103515625,0.046814918518066406,0.015771031379699707,-0.0009735673666000366
1761132065589756000,7.505755859375,0.03723621368408203,0.01581905409693718,-0.008081957697868347
1761132065599755800,7.515755859375,0.025264739990234375,0.008642464876174927,-0.005629211664199829
1761132065609756000,7.525755859375,0.032446861267089844,0.008748434484004974,-0.012743666768074036
1761132065619755000,7.535755126953125,0.010901451110839844,0.020806699991226196,0.006302252411842346
1761132065629755100,7.545755126953125,0.037235260009765625,0.00401388481259346,-0.005606338381767273
1761132065639755000,7.555755126953125,0.02287006378173828,0.015967383980751038,-0.007979035377502441
1761132065649755100,7.565755126953125,0.027658462524414062,0.018383236601948738,-0.0031730681657791138
1761132065659755000,7.575755126953125,0.02047443389892578,-0.008116137236356735,-0.005432009696960449
1761132065669755100,7.585755126953125,0.04920387268066406,-0.008169680833816528,0.0017958283424377441
1761132065679755000,7.595755126953125,0.037232398986816406,0.001468062400817871,0.013780489563941956
1761132065689755100,7.605755126953125,0.027658462524414062,-0.0008856542408466339,0.008810490369796753
1761132065699755000,7.615755126953125,0.013294219970703125,0.011093806475400925,-0.008067801594734192
1761132065709755100,7.625755126953125,0.037238121032714844,-0.0056776367127895355,-0.0010022372007369995
1761132065719756000,7.635756103515625,0.037238121032714844,-0.003401339054107666,-0.02732659876346588
1761132065729756000,7.645755859375,0.003719329833984375,0.01580912247300148,-0.005773231387138367
1761132065739756000,7.655756103515625,0.020479202270507812,0.013473978266119957,0.0037977397441864014
1761132065749756000,7.665755859375,0.037238121032714844,0.006271859630942345,0.003799751400947571
1761132065759756000,7.675756103515625,0.04681396484375,-0.005693525075912476,0.0014639347791671753
1761132065769756000,7.685755859375,0.046813011169433594,-0.01534220203757286,-0.04874768853187561
1761132065779756000,7.695756103515625,0.042022705078125,0.013335714116692543,-0.06783675402402878
1761132065789756000,7.705755859375,-0.001071929931640625,0.056410275399684906,-0.022364415228366852
1761132065799756000,7.715756103515625,0.02286529541015625,0.022798623889684677,-0.002964586019515991
1761132065809756000,7.725755859375,0.03962516784667969,-0.03936013579368591,0.04024022817611694
1761132065819755000,7.735755126953125,0.04441261291503906,-0.005901448428630829,0.035438477993011475
1761132065829755100,7.745755126953125,0.03244209289550781,0.008459877222776413,0.05455310642719269
1761132065839755000,7.755755126953125,0.0372314453125,0.023002687841653824,0.006670519709587097
1761132065849755100,7.765755126953125,0.0372314453125,0.023039694875478745,0.006646990776062012
1761132065859755000,7.775755126953125,0.03722953796386719,-0.02724340930581093,0.023545041680336
1761132065869755100,7.785755126953125,0.032440185546875,0.01577293872833252,-0.02672545611858368
1761132065879755000,7.795755126953125,0.034834861755371094,0.03504561632871628,-0.03150638937950134
1761132065889755000,7.8057548828125,0.022863388061523438,0.008650999516248703,-0.021923519670963287
1761132065899755000,7.815755126953125,0.044411659240722656,-0.010533202439546585,-0.026629731059074402
1761132065909755000,7.8257548828125,0.032440185546875,0.00380861759185791,-0.026666700839996338
1761132065919755800,7.835755859375,0.022861480712890625,-0.008248656988143921,0.006960019469261169
1761132065929756000,7.845755859375,0.02286243438720703,0.02059725672006607,0.006928473711013794
1761132065939755800,7.855755859375,0.032440185546875,0.008737415075302124,0.03798256814479828
1761132065949756000,7.865755859375,0.030048370361328125,-0.0174722783267498,0.018717363476753235
1761132065959755800,7.875755859375,0.034836769104003906,0.004056826233863831,0.006748661398887634
1761132065969756000,7.885755859375,0.04202079772949219,-0.01029994711279869,0.009024009108543396
1761132065979756000,7.895756103515625,0.03244304656982422,0.006387451663613319,-0.01963985711336136
1761132065989756000,7.905755859375,0.04680824279785156,0.02799593284726143,-0.02680891752243042
1761132065999756000,7.915756103515625,0.037230491638183594,0.004098564386367798,-0.017177745699882507
1761132066009756000,7.925755859375,0.01807689666748047,-0.0006313100457191467,-0.01957797259092331
1761132066019755000,7.935755126953125,0.0396270751953125,0.009116802364587784,-0.029211968183517456
1761132066029755100,7.945755126953125,0.0396270751953125,-0.00029710307717323303,-0.017198190093040466
1761132066039755000,7.955755126953125,0.030051231384277344,0.0020715631544589996,-0.012466326355934143
1761132066049755100,7.965755126953125,0.030051231384277344,-0.007464852184057236,0.006683632731437683
1761132066059755000,7.975755126953125,0.03483772277832031,-0.000344984233379364,0.03555896878242493
1761132066069755100,7.985755126953125,0.037230491638183594,-0.017059221863746643,0.033219337463378906
1761132066079755000,7.995755126953125,0.01807880401611328,-0.00024646148085594177,0.02357812225818634
1761132066089755100,8.005755126953124,0.039628028869628906,-0.007361464202404022,0.009107217192649841
1761132066099755000,8.015755126953126,0.008504867553710938,-0.004920642822980881,-0.007775247097015381
1761132066109755100,8.025755126953126,0.018082618713378906,0.014301368966698647,0.020849749445915222
1761132066119755800,8.035755859375,0.01568889617919922,-0.00007732585072517395,-0.007820144295692444
1761132066129756000,8.045755859375,0.05399513244628906,-0.02169942855834961,-0.02692680060863495
1761132066139756000,8.055756103515625,0.053994178771972656,-0.021691851317882538,-0.026848778128623962
1761132066149756000,8.065755859375,0.018080711364746094,0.023798562586307526,-0.03163711726665497
1761132066159756000,8.075756103515625,0.02287006378173828,0.014311274513602257,-0.014965787529945374
1761132066169756000,8.085755859375,0.0444183349609375,0.014238046482205391,-0.012524232268333435
1761132066179756000,8.095756103515624,0.04441547393798828,-0.005002107471227646,-0.0004454106092453003
1761132066189756000,8.105755859375,0.03244304656982422,0.009273190051317215,0.0235845148563385
1761132066199756000,8.115756103515626,0.027655601501464844,0.0045424699783325195,0.016395732760429382
1761132066209756000,8.125755859375,0.030050277709960938,-0.012162290513515472,0.035504356026649475
1761132066219755000,8.135755126953125,0.02765655517578125,-0.019350919872522354,0.013898015022277832
1761132066229755100,8.145755126953125,0.02047443389892578,0.01656254753470421,0.00671541690826416
1761132066239755000,8.155755126953125,0.04920482635498047,-0.0026546865701675415,-0.012490347027778625
1761132066249755100,8.165755126953124,0.03483867645263672,0.01649106666445732,-0.014765635132789612
1761132066259755000,8.175755126953124,0.022867202758789062,0.002126384526491165,-0.03152485191822052
1761132066269755100,8.185755126953126,0.022867202758789062,0.021398264914751053,-0.02194087952375412
1761132066279755000,8.195755126953125,0.032444000244140625,0.016651730984449387,-0.036290429532527924
1761132066289755100,8.205755126953125,0.027654647827148438,0.007081078365445137,-0.017078235745429993
1761132066299755000,8.215755126953125,0.04201984405517578,0.026312286034226418,-0.012297868728637695
1761132066309755100,8.225755126953125,0.03244209289550781,-0.002588097006082535,0.006932184100151062
1761132066319755800,8.235755859375,0.02286529541015625,0.016463689506053925,0.014085710048675537
1761132066329756000,8.245755859375,0.034836769104003906,-0.007501848042011261,0.026019707322120667
1761132066339755800,8.255755859375,0.03962516784667969,-0.0027914904057979584,0.03081613779067993
1761132066349756000,8.265755859375,0.037232398986816406,0.01170123741030693,0.023522138595581055
1761132066359755800,8.275755859375,0.025261878967285156,-0.007512517273426056,-0.00522160530090332
1761132066369756000,8.285755859375,0.022866249084472656,-0.007590822875499725,0.009151533246040344
1761132066379755800,8.295755859375,0.025259971618652344,0.004263922572135925,-0.00041294097900390625
1761132066389756000,8.305755859375,0.02765369415283203,0.018497420474886894,-0.02909015119075775
1761132066399755800,8.315755859375,0.013287544250488281,0.0018042996525764465,-0.02422981709241867
1761132066409756000,8.325755859375,0.01807689666748047,0.01370914839208126,-0.03387851268053055
1761132066419755000,8.335755126953124,0.02286529541015625,-0.005407322198152542,-0.009959951043128967
1761132066429755100,8.345755126953126,0.0348358154296875,0.01612500101327896,-0.009918928146362305
1761132066439755000,8.355755126953126,0.04441261291503906,-0.022200126200914383,-0.005109146237373352
1761132066449755000,8.3657548828125,0.04441356658935547,-0.01741800829768181,-0.012350380420684814
1761132066459755000,8.375755126953125,0.032440185546875,-0.0007306188344955444,0.0020813792943954468
1761132066469755000,8.3857548828125,0.020468711853027344,-0.0031318925321102142,0.009383216500282288
1761132066479755000,8.395755126953125,0.027650833129882812,-0.0031313635408878326,-0.01216442883014679
1761132066489755100,8.405755126953125,0.042016029357910156,-0.002952922135591507,-0.007374405860900879
1761132066499755000,8.415755126953124,0.015680313110351562,0.016201090067625046,-0.01934526115655899
1761132066509755100,8.425755126953124,0.01568126678466797,0.020925071090459824,-0.01700352132320404
1761132066519755800,8.435755859375,0.03483390808105469,-0.000639401376247406,-0.00022242963314056396
1761132066529756000,8.445755859375,0.03962230682373047,0.006531452760100365,-0.004930898547172546
1761132066539756000,8.455756103515625,0.02286052703857422,-0.00551358237862587,0.004692956805229187
1761132066549756000,8.465755859375,0.01807403564453125,0.008978165686130524,-0.00020705163478851318
1761132066559756000,8.475756103515625,0.030045509338378906,0.013885768130421638,0.004588887095451355
1761132066569756000,8.485755859375,0.039623260498046875,0.009033653885126114,0.014113351702690125
1761132066579756000,8.495756103515625,0.018075942993164062,0.009086169302463531,0.016442999243736267
1761132066589756000,8.505755859375,0.022866249084472656,-0.010138321667909622,0.01154358685016632
1761132066599756000,8.515756103515624,0.030048370361328125,-0.007798638194799423,0.006800219416618347
1761132066609756000,8.525755859375,0.022863388061523438,-0.0006273835897445679,-0.00987909734249115
1761132066619755000,8.535755126953125,0.032440185546875,0.006556062027812004,0.011668890714645386
1761132066629755100,8.545755126953125,0.032441139221191406,0.006614195182919502,0.011662721633911133
1761132066639755000,8.555755126953125,0.025259017944335938,0.013837112113833427,-0.01705232262611389
1761132066649755100,8.565755126953125,0.025259017944335938,0.013837957754731178,-0.017052143812179565
1761132066659755000,8.575755126953124,0.0348358154296875,0.021019715815782547,-0.0002929121255874634
1761132066669755100,8.585755126953124,0.027652740478515625,-0.0053163692355155945,-0.005081251263618469
1761132066679755000,8.595755126953126,0.032440185546875,0.006699679419398308,0.014126867055892944
1761132066689755100,8.605755126953126,0.034834861755371094,-0.00035739317536354065,0.007010295987129211
1761132066699755000,8.615755126953125,0.037227630615234375,0.001964915543794632,0.0022884905338287354
1761132066709755100,8.625755126953125,0.01807403564453125,0.006635045632719994,-0.019266508519649506
1761132066719756000,8.635756103515625,0.04441070556640625,0.018600167706608772,-0.01453658938407898
1761132066729756000,8.645755859375,0.042016029357910156,0.011400513350963593,-0.004938229918479919
1761132066739756000,8.655756103515625,0.0037088394165039062,0.01618931069970131,-0.026485919952392578
1761132066749756000,8.665755859375,0.030045509338378906,0.009027954190969467,-0.012103289365768433
1761132066759756000,8.675756103515624,0.01807403564453125,0.011459175497293472,0.00463259220123291
1761132066769756000,8.685755859375,0.03962230682373047,0.004194512963294983,-0.00736941397190094
1761132066779756000,8.695756103515626,0.03483390808105469,0.00888589397072792,0.007006019353866577
1761132066789756000,8.705755859375,0.030045509338378906,-0.0030855126678943634,-0.0001767277717590332
1761132066799756000,8.715756103515625,0.030043601989746094,0.006479809060692787,0.023845329880714417
1761132066809756000,8.725755859375,0.020467758178710938,0.0017492249608039856,-0.00010280311107635498
1761132066819755000,8.735755126953125,0.030043601989746094,-0.019692569971084595,-0.012005805969238281
1761132066829755100,8.745755126953124,0.03483390808105469,-0.002926081418991089,0.004634395241737366
1761132066839755000,8.755755126953124,0.042016029357910156,-0.002984479069709778,0.007034674286842346
1761132066849755100,8.765755126953126,0.04680442810058594,0.013695286586880684,-0.012130290269851685
1761132066859755000,8.775755126953126,0.044409751892089844,-0.010240580886602402,-0.00488908588886261
1761132066869755100,8.785755126953125,0.006099700927734375,-0.01742224395275116,0.004884958267211914
1761132066879755000,8.795755126953125,0.025254249572753906,-0.012640252709388733,0.0024320781230926514
1761132066889755100,8.805755126953125,0.03722572326660156,-0.007799204438924789,-0.009603425860404968
1761132066899755000,8.815755126953125,0.039620399475097656,-0.012651707977056503,0.011891886591911316
1761132066909755100,8.825755126953124,0.018072128295898438,0.0016350112855434418,0.007111489772796631
1761132066919755800,8.835755859375,0.03243541717529297,0.008809883147478104,0.0024420619010925293
1761132066929756000,8.845755859375,0.027647018432617188,0.011203687638044357,0.0048361122608184814
1761132066939755800,8.855755859375,0.030040740966796875,0.001691427081823349,-0.011870786547660828
1761132066949756000,8.865755859375,0.034829139709472656,0.004069045186042786,-0.0022721141576766968
1761132066959755800,8.875755859375,0.0252532958984375,0.020887035876512527,0.00011593103408813477
1761132066969756000,8.885755859375,0.03961753845214844,0.008922182023525238,0.0025687217712402344
1761132066979756000,8.895756103515625,0.022856712341308594,0.013691077008843422,-0.021371282637119293
1761132066989756000,8.905755859375,0.032433509826660156,0.011296875774860382,-0.0070060789585113525
1761132066999755800,8.915755859375,0.03722190856933594,0.004114795476198196,0.00257091224193573
1761132067009756000,8.925755859375,0.042011260986328125,0.011357098817825317,-0.009386762976646423
1761132067019755000,8.935755126953126,0.039618492126464844,0.018653588369488716,0.00013914704322814941
1761132067029755100,8.945755126953125,0.03483104705810547,0.013898322358727455,-0.004711732268333435
1761132067039755000,8.955755126953125,0.03483104705810547,0.013797154650092125,0.004836216568946838
1761132067049755100,8.965755126953125,0.027647018432617188,-0.005389463156461716,0.004898756742477417
1761132067059755000,8.975755126953125,0.04201221466064453,-0.005447860807180405,0.009693235158920288
1761132067069755000,8.9857548828125,0.037222862243652344,-0.005508344620466232,0.004891201853752136
1761132067079755000,8.995755126953124,0.04440593719482422,0.004110019654035568,-0.009458333253860474
1761132067089755000,9.0057548828125,0.03961753845214844,0.013628294691443443,0.002518698573112488
1761132067099755000,9.015755126953126,0.018068313598632812,-0.007933016866445541,0.002579241991043091
1761132067109755000,9.0257548828125,0.022857666015625,-0.005603622645139694,-0.0022617727518081665
1761132067119755800,9.035755859375,0.025252342224121094,-0.0008139833807945251,0.00013275444507598877
1761132067129756000,9.045755859375,0.037222862243652344,0.003913573920726776,-0.011851727962493896
1761132067139755800,9.055755859375,0.030040740966796875,0.006310621276497841,-0.0022552311420440674
1761132067149756000,9.065755859375,0.030042648315429688,-0.015132568776607513,0.019163325428962708
1761132067159755800,9.075755859375,0.022859573364257812,0.008864104747772217,0.004753127694129944
1761132067169756000,9.085755859375,0.02046680450439453,0.01843489147722721,0.009483009576797485
1761132067179755800,9.095755859375,0.025255203247070312,0.0016144998371601105,0.007075279951095581
1761132067189756000,9.105755859375,0.03243732452392578,0.0015561506152153015,-0.012072384357452393
1761132067199755800,9.115755859375,0.03961944580078125,-0.003184814006090164,-0.009604007005691528
1761132067209756000,9.125755859375,0.04201316833496094,0.0016035884618759155,-0.000027194619178771973
1761132067219755000,9.135755126953125,0.02286052703857422,0.0016570761799812317,-0.007274150848388672
1761132067229755000,9.1457548828125,0.030045509338378906,0.0136920977383852,-0.007387727499008179
1761132067239755000,9.155755126953125,0.04680442810058594,0.006554534658789635,-0.0049390047788619995
1761132067249755000,9.1657548828125,0.03962230682373047,0.01840285398066044,-0.012167945504188538
1761132067259755000,9.175755126953124,0.04441070556640625,0.004102334380149841,0.01661503314971924
1761132067269755000,9.1857548828125,0.03962230682373047,-0.007814954966306686,0.004598677158355713
1761132067279755000,9.195755126953125,0.030046463012695312,-0.012433025985956192,0.009329691529273987
1761132067289755000,9.2057548828125,0.025259017944335938,-0.005132570862770081,0.016500532627105713
1761132067299755000,9.215755126953125,0.01807689666748047,0.00437941774725914,-0.009888291358947754
1761132067309755000,9.2257548828125,0.022866249084472656,0.021193336695432663,-0.019510142505168915
1761132067319755800,9.235755859375,0.020471572875976562,-0.00276242196559906,-0.0122670978307724
1761132067329756000,9.245755859375,0.022863388061523438,0.009142197668552399,-0.004959553480148315
1761132067339755800,9.255755859375,0.02525806427001953,0.001959148794412613,-0.014536380767822266
1761132067349756000,9.265755859375,0.022863388061523438,0.02828991785645485,-0.009806439280509949
1761132067359755800,9.275755859375,0.027652740478515625,-0.007645837962627411,-0.01223735511302948
1761132067369756000,9.285755859375,0.02525806427001953,0.0018569454550743103,-0.012190312147140503
1761132067379755800,9.295755859375,0.037227630615234375,0.004317447543144226,-0.009724199771881104
1761132067389756000,9.305755859375,0.0300445556640625,0.009092364460229874,0.007095754146575928
1761132067399755800,9.315755859375,0.034832000732421875,-0.012389283627271652,0.0023792386054992676
1761132067409756000,9.325755859375,0.03243732452392578,-0.012408260256052017,0.019140854477882385
1761132067419755000,9.335755126953124,0.039620399475097656,0.030746743083000183,0.011952385306358337
1761132067429755100,9.345755126953126,0.02765178680419922,0.030812859535217285,-0.024085693061351776
1761132067439755000,9.355755126953126,0.030046463012695312,0.0044336095452308655,-0.01933228224515915
1761132067449755100,9.365755126953125,0.022863388061523438,0.01159670203924179,-0.019330285489559174
1761132067459755000,9.375755126953125,0.030043601989746094,0.004378236830234528,-0.011926993727684021
1761132067469755100,9.385755126953125,0.030043601989746094,-0.019529223442077637,-0.019152633845806122
1761132067479755000,9.395755126953125,0.042014122009277344,0.013972548767924309,-0.011948496103286743
1761132067489755100,9.405755126953125,0.03243827819824219,0.011569999158382416,-0.000055477023124694824
1761132067499755000,9.415755126953124,0.03962135314941406,-0.012412600219249725,0.004717424511909485
1761132067509755100,9.425755126953124,0.025257110595703125,-0.0004946738481521606,-0.002597719430923462
1761132067519755800,9.435755859375,0.044411659240722656,0.011517051607370377,-0.007370606064796448
1761132067529756000,9.445755859375,0.03962230682373047,0.02109988033771515,0.004658937454223633
1761132067539756000,9.455756103515625,0.025257110595703125,0.009187404066324234,-0.004923895001411438
1761132067549756000,9.465755859375,0.022863388061523438,-0.000396091490983963,0.004594132304191589
1761132067559756000,9.475756103515625,0.025259971618652344,0.021323688328266144,0.004537180066108704
1761132067569756000,9.485755859375,0.04920005798339844,-0.004901718348264694,-0.0025191903114318848
1761132067579756000,9.495756103515625,0.032439231872558594,0.00939161330461502,-0.007240995764732361
1761132067589756000,9.505755859375,0.027649879455566406,0.018851762637495995,-0.014411389827728271
1761132067599755800,9.515755859375,0.0300445556640625,0.0021784156560897827,0.009600639343261719
1761132067609756000,9.525755859375,0.039620399475097656,-0.0025644078850746155,0.007261142134666443
1761132067619755000,9.535755126953125,0.039620399475097656,-0.002504270523786545,-0.009484931826591492
1761132067629755100,9.545755126953125,0.025255203247070312,-0.0025106891989707947,0.002427414059638977
1761132067639755000,9.555755126953125,0.02286052703857422,-0.004956871271133423,-0.004690438508987427
1761132067649755100,9.565755126953125,0.03722381591796875,-0.007423076778650284,-0.028565913438796997
1761132067659755000,9.575755126953124,0.027647018432617188,-0.0050287432968616486,-0.026171669363975525
1761132067669755100,9.585755126953124,0.06116485595703125,0.006928382441401482,-0.023717068135738373
1761132067679755000,9.595755126953126,0.034829139709472656,0.009306695312261581,0.007448434829711914
1761132067689755100,9.605755126953126,0.020465850830078125,0.016497284173965454,0.007329568266868591
1761132067699755000,9.615755126953125,0.025254249572753906,-0.005050133913755417,-0.004641279578208923
1761132067709755100,9.625755126953125,0.03483104705810547,0.02127966284751892,0.009665250778198242
1761132067719755800,9.635755859375,0.037224769592285156,-0.009864728897809982,0.002484545111656189
1761132067729756000,9.645755859375,0.03722381591796875,0.011748410761356354,-0.007020577788352966
1761132067739755800,9.655755859375,0.013281822204589844,0.014188496395945549,-0.002177491784095764
1761132067749756000,9.665755859375,0.025255203247070312,-0.000049658119678497314,0.00010532140731811523
1761132067759755800,9.675755859375,0.032436370849609375,-0.0025162696838378906,-0.007010892033576965
1761132067769756000,9.685755859375,0.01567840576171875,-0.00006916746497154236,-0.023834697902202606
1761132067779756000,9.695756103515626,0.03722572326660156,0.016689535230398178,0.01926080882549286
1761132067789756000,9.705755859375,0.027645111083984375,0.016393501311540604,-0.006887331604957581
1761132067799756000,9.715756103515625,0.04917335510253906,0.011044524610042572,0.003949776291847229
1761132067809756000,9.725755859375,0.03481769561767578,0.008766043931245804,0.008134961128234863
1761132067819755000,9.735755126953125,0.01328277587890625,-0.012295544147491455,-0.011856988072395325
