time,seconds_elapsed,z,y,x
1761132058196128000,0.1121279296875,0.0006872233934700489,0.0006108652451075613,-0.0005345070967450738
1761132058226103000,0.14210302734375,0.0006872233934700489,0.0006108652451075613,-0.0005345070967450738
1761132058236103000,0.15210302734375,0.00007635815563844517,0,-0.0017562375869601965
1761132058246103000,0.16210302734375,0.00007635815563844517,0,0.0019089538836851716
1761132058256103400,0.172103515625,0.00007635815563844517,0,-0.0005345070967450738
1761132058266103600,0.182103515625,0.0012980886967852712,-0.0006108652451075613,0.0006872233934700489
1761132058276103700,0.192103759765625,0.00007635815563844517,-0.0012217304902151227,0.00007635815563844517
1761132058286103600,0.202103515625,0.00007635815563844517,0.0006108652451075613,0.0012980886967852712
1761132058296103700,0.212103759765625,-0.0005345070967450738,0,0.0006872233934700489
1761132058306103600,0.222103515625,-0.0005345070967450738,-0.0012217304902151227,-0.0011453722836449742
1761132058316103700,0.232103759765625,-0.0011453722836449742,-0.0006108652451075613,-0.0005345070967450738
1761132058326103800,0.242103759765625,0.00007635815563844517,-0.0012217304902151227,-0.0005345070967450738
1761132058336104000,0.25210400390625,0.00007635815563844517,0,0.002519819187000394
1761132058346104000,0.26210400390625,-0.0011453722836449742,-0.0006108652451075613,0.002519819187000394
1761132058356104000,0.27210400390625,0.00007635815563844517,-0.0006108652451075613,0.0012980886967852712
1761132058366104000,0.28210400390625,0.00007635815563844517,-0.0006108652451075613,-0.0005345070967450738
1761132058376104200,0.292104248046875,0.0006872233934700489,-0.0012217304902151227,0.00007635815563844517
1761132058386104000,0.30210400390625,-0.0005345070967450738,-0.0006108652451075613,0.00007635815563844517
1761132058396104200,0.312104248046875,0.0006872233934700489,-0.0006108652451075613,0.0012980886967852712
1761132058406104300,0.322104248046875,0.00007635815563844517,-0.0006108652451075613,0.0006872233934700489
1761132058416103200,0.332103271484375,-0.0005345070967450738,0.0006108652451075613,0.0006872233934700489
1761132058426103000,0.34210302734375,-0.0005345070967450738,0.001832595793530345,0.0019089538836851716
1761132058436103200,0.352103271484375,0.0006872233934700489,0,-0.0005345070967450738
1761132058446103300,0.362103271484375,0.00007635815563844517,0,-0.0005345070967450738
1761132058456103200,0.372103271484375,0.0006872233934700489,0.001832595793530345,-0.0005345070967450738
1761132058466103300,0.382103271484375,0.00007635815563844517,0,-0.002367102773860097
1761132058476103200,0.392103271484375,0.0006872233934700489,0,-0.002367102773860097
1761132058486103300,0.402103271484375,0.0012980886967852712,0,-0.0011453722836449742
1761132058496103200,0.412103271484375,0.00007635815563844517,0,0.00007635815563844517
1761132058506103300,0.422103271484375,0.00007635815563844517,0.0012217304902151227,-0.0011453722836449742
1761132058516104200,0.432104248046875,0.00007635815563844517,0.0006108652451075613,-0.0011453722836449742
1761132058526104000,0.44210400390625,0.0012980886967852712,-0.0006108652451075613,0.00007635815563844517
1761132058536104200,0.452104248046875,0.0006872233934700489,0,-0.0005345070967450738
1761132058546104300,0.462104248046875,0.00007635815563844517,0.0012217304902151227,0.0006872233934700489
1761132058556104200,0.472104248046875,0.00007635815563844517,0.0006108652451075613,-0.0011453722836449742
1761132058566104000,0.48210400390625,0.00007635815563844517,0.0006108652451075613,0.0006872233934700489
1761132058576104200,0.492104248046875,0.00007635815563844517,-0.0012217304902151227,0.0012980886967852712
1761132058586104300,0.502104248046875,0.00007635815563844517,-0.0006108652451075613,0.0006872233934700489
1761132058596104200,0.512104248046875,0.00007635815563844517,-0.0012217304902151227,0.0019089538836851716
1761132058606104300,0.522104248046875,-0.0005345070967450738,0,0.0012980886967852712
1761132058616103400,0.532103515625,-0.0005345070967450738,-0.0012217304902151227,0.0012980886967852712
1761132058626103600,0.542103515625,-0.0005345070967450738,0.0006108652451075613,0.0012980886967852712
1761132058636103400,0.552103515625,-0.002367102773860097,0,0.0012980886967852712
1761132058646103300,0.562103271484375,0.0006872233934700489,-0.0012217304902151227,0.0006872233934700489
1761132058656103400,0.572103515625,-0.0005345070967450738,-0.0006108652451075613,0.0006872233934700489
1761132058666103300,0.582103271484375,0.00007635815563844517,0,0.0019089538836851716
1761132058676103400,0.592103515625,-0.0005345070967450738,-0.0006108652451075613,0.0012980886967852712
1761132058686103300,0.602103271484375,0.0012980886967852712,0,0.0012980886967852712
1761132058696103400,0.612103515625,0.0006872233934700489,-0.0006108652451075613,0.0019089538836851716
1761132058706103300,0.622103271484375,0.00007635815563844517,-0.0006108652451075613,0.0012980886967852712
1761132058716104200,0.632104248046875,-0.0005345070967450738,-0.0012217304902151227,0.0019089538836851716
1761132058726104000,0.64210400390625,-0.0005345070967450738,-0.0006108652451075613,0.0012980886967852712
1761132058736104200,0.652104248046875,0.00007635815563844517,-0.0006108652451075613,0.0031306843739002943
1761132058746104000,0.66210400390625,-0.0011453722836449742,-0.0006108652451075613,0.0006872233934700489
1761132058756104200,0.672104248046875,-0.0005345070967450738,-0.0012217304902151227,0.0006872233934700489
1761132058766104000,0.68210400390625,-0.0005345070967450738,-0.0012217304902151227,0.0006872233934700489
1761132058776104200,0.692104248046875,0.00007635815563844517,-0.0006108652451075613,0.002519819187000394
1761132058786104300,0.702104248046875,0.0006872233934700489,0,0.002519819187000394
1761132058796104200,0.712104248046875,0.00007635815563844517,-0.0006108652451075613,0.0019089538836851716
1761132058806104000,0.72210400390625,-0.0011453722836449742,0.0006108652451075613,0.0012980886967852712
1761132058816103400,0.732103515625,0.00007635815563844517,-0.0006108652451075613,0.0012980886967852712
1761132058826103300,0.742103271484375,-0.0005345070967450738,-0.0006108652451075613,0.0006872233934700489
1761132058836103200,0.752103271484375,0.00007635815563844517,-0.001832595793530345,0.0019089538836851716
1761132058846103300,0.762103271484375,-0.0011453722836449742,-0.0012217304902151227,0.002519819187000394
1761132058856103200,0.772103271484375,0.0006872233934700489,-0.001832595793530345,0.0019089538836851716
1761132058866103300,0.782103271484375,-0.0005345070967450738,-0.0012217304902151227,0.002519819187000394
1761132058876102700,0.7921025390625,0.0006872233934700489,-0.0006108652451075613,0.0012980886967852712
1761132058886102000,0.80210205078125,-0.0011453722836449742,0.0006108652451075613,0.0019089538836851716
1761132058896102000,0.812101806640625,0.00007635815563844517,0.0006108652451075613,0.0019089538836851716
1761132058906102000,0.82210205078125,-0.0017562375869601965,0,0.0019089538836851716
1761132058916102700,0.8321025390625,-0.0017562375869601965,0.0006108652451075613,0.0031306843739002943
1761132058926102800,0.842102783203125,0.0006872233934700489,0.0012217304902151227,0.002519819187000394
1761132058936102700,0.8521025390625,0.00007635815563844517,-0.0006108652451075613,0.0012980886967852712
1761132058946102800,0.862102783203125,-0.0005345070967450738,0,0.0019089538836851716
1761132058956102700,0.8721025390625,0.00007635815563844517,-0.0006108652451075613,0.0012980886967852712
1761132058966102800,0.882102783203125,0.0006872233934700489,0,0.0012980886967852712
1761132058976102700,0.8921025390625,0.0006872233934700489,0.0006108652451075613,0.00007635815563844517
1761132058986102800,0.902102783203125,0.00007635815563844517,0.0006108652451075613,0.00007635815563844517
1761132058996102700,0.9121025390625,0.0012980886967852712,0.0012217304902151227,0.0006872233934700489
1761132059006102800,0.922102783203125,-0.0005345070967450738,-0.0006108652451075613,0.0006872233934700489
1761132059016102000,0.932101806640625,0.00007635815563844517,0.0006108652451075613,-0.0005345070967450738
1761132059026102000,0.94210205078125,-0.0005345070967450738,0,-0.0011453722836449742
1761132059036102000,0.952101806640625,0.00007635815563844517,0.0006108652451075613,-0.0011453722836449742
1761132059046101800,0.962101806640625,-0.0005345070967450738,0.0006108652451075613,-0.0005345070967450738
1761132059056102000,0.972101806640625,0.0012980886967852712,0.0006108652451075613,-0.0011453722836449742
1761132059066101800,0.982101806640625,-0.0005345070967450738,0.0006108652451075613,0.0006872233934700489
1761132059076102000,0.992101806640625,-0.0005345070967450738,0,-0.0005345070967450738
1761132059086101800,1.002101806640625,-0.0011453722836449742,0.0012217304902151227,-0.0005345070967450738
1761132059096102000,1.012101806640625,0.0012980886967852712,0,-0.0005345070967450738
1761132059106102000,1.02210205078125,-0.0011453722836449742,0,0.00007635815563844517
1761132059116102700,1.0321025390625,-0.0005345070967450738,0,-0.0005345070967450738
1761132059126102800,1.042102783203125,0.00007635815563844517,-0.0012217304902151227,-0.0005345070967450738
1761132059136103000,1.05210302734375,-0.0005345070967450738,0,0.0006872233934700489
1761132059146102800,1.062102783203125,-0.0005345070967450738,-0.0006108652451075613,0.0006872233934700489
1761132059156103000,1.07210302734375,-0.0011453722836449742,-0.0006108652451075613,-0.0011453722836449742
1761132059166102800,1.082102783203125,0.0006872233934700489,0,0.00007635815563844517
1761132059176103400,1.092103515625,0.00007635815563844517,0.0006108652451075613,-0.0005345070967450738
1761132059186104000,1.10210400390625,0.00007635815563844517,0.0006108652451075613,0.0006872233934700489
1761132059196104200,1.112104248046875,0.00007635815563844517,-0.0006108652451075613,0.00007635815563844517
1761132059206104000,1.12210400390625,0.00007635815563844517,-0.0006108652451075613,0.00007635815563844517
1761132059216103200,1.132103271484375,0.00007635815563844517,-0.001832595793530345,0.00007635815563844517
1761132059226103300,1.142103271484375,-0.0005345070967450738,0,-0.0005345070967450738
1761132059236103200,1.152103271484375,0.00007635815563844517,0,0.00007635815563844517
1761132059246103300,1.162103271484375,-0.0005345070967450738,0,0.00007635815563844517
1761132059256103200,1.172103271484375,-0.0011453722836449742,-0.0012217304902151227,0.00007635815563844517
1761132059266103300,1.182103271484375,-0.0005345070967450738,0,-0.0005345070967450738
1761132059276103200,1.192103271484375,0.00007635815563844517,0,0.00007635815563844517
1761132059286103300,1.202103271484375,0.0006872233934700489,0,-0.0005345070967450738
1761132059296103200,1.212103271484375,0.0006872233934700489,-0.0006108652451075613,-0.0011453722836449742
1761132059306103300,1.222103271484375,0.00007635815563844517,-0.001832595793530345,0.00007635815563844517
1761132059316104000,1.23210400390625,0.00007635815563844517,-0.0006108652451075613,0.00007635815563844517
1761132059326104000,1.24210400390625,0.00007635815563844517,0,0.00007635815563844517
1761132059336104200,1.252104248046875,-0.0005345070967450738,0,0.00007635815563844517
1761132059346104000,1.26210400390625,-0.0011453722836449742,0,-0.0005345070967450738
1761132059356104200,1.272104248046875,-0.0005345070967450738,0,-0.0011453722836449742
1761132059366104000,1.28210400390625,0.0012980886967852712,-0.0006108652451075613,0.00007635815563844517
1761132059376104200,1.292104248046875,0.0006872233934700489,0.0006108652451075613,0.0006872233934700489
1761132059386104300,1.302104248046875,0.00007635815563844517,0.0006108652451075613,0.0006872233934700489
1761132059396104200,1.312104248046875,-0.0005345070967450738,-0.0006108652451075613,-0.0005345070967450738
1761132059406104300,1.322104248046875,-0.0005345070967450738,0.0006108652451075613,0.0006872233934700489
1761132059416103400,1.332103515625,0.0012980886967852712,0,-0.0011453722836449742
1761132059426103300,1.342103271484375,0.0006872233934700489,-0.0006108652451075613,-0.0017562375869601965
1761132059436103400,1.352103515625,0.00007635815563844517,0,0.00007635815563844517
1761132059446103300,1.362103271484375,-0.0005345070967450738,0,0.0006872233934700489
1761132059456103400,1.372103515625,0.0012980886967852712,0.0006108652451075613,0.0006872233934700489
1761132059466103300,1.382103271484375,0.0006872233934700489,0,-0.0005345070967450738
1761132059476103400,1.392103515625,-0.0011453722836449742,-0.0006108652451075613,0.00007635815563844517
1761132059486103300,1.402103271484375,0.0012980886967852712,0.0006108652451075613,-0.0011453722836449742
1761132059496103400,1.412103515625,0.0012980886967852712,-0.0012217304902151227,-0.0011453722836449742
1761132059506103300,1.422103271484375,-0.0005345070967450738,0.0012217304902151227,-0.0011453722836449742
1761132059516104200,1.432104248046875,0.0006872233934700489,0.0006108652451075613,0.00007635815563844517
1761132059526104300,1.442104248046875,0.00007635815563844517,-0.0012217304902151227,0.00007635815563844517
1761132059536104200,1.452104248046875,0.00007635815563844517,0,-0.0005345070967450738
1761132059546104300,1.462104248046875,-0.0005345070967450738,0,-0.0005345070967450738
1761132059556104200,1.472104248046875,0.00007635815563844517,0.0006108652451075613,-0.0005345070967450738
1761132059566104300,1.482104248046875,0.00007635815563844517,0.0012217304902151227,-0.0005345070967450738
1761132059576104200,1.492104248046875,-0.0005345070967450738,-0.0012217304902151227,-0.0005345070967450738
1761132059586104300,1.502104248046875,-0.0005345070967450738,0.0006108652451075613,-0.0005345070967450738
1761132059596104200,1.512104248046875,0.0006872233934700489,0,0.00007635815563844517
1761132059606104300,1.522104248046875,0.0006872233934700489,0,-0.0011453722836449742
1761132059616103400,1.532103515625,-0.0005345070967450738,0,0.0006872233934700489
1761132059629755000,1.5457548828125,0.0006872233934700489,0.0012217304902151227,0.0006872233934700489
1761132059639755000,1.555755126953125,0.0006872233934700489,0,-0.0005345070967450738
1761132059649755000,1.5657548828125,-0.0011453722836449742,0,0.00007635815563844517
1761132059659755000,1.575755126953125,0.00007635815563844517,0.0012217304902151227,0.00007635815563844517
1761132059669755000,1.5857548828125,0.0006872233934700489,0,-0.0005345070967450738
1761132059679754800,1.595754638671875,0.00007635815563844517,0,0.00007635815563844517
1761132059689755000,1.6057548828125,-0.0005345070967450738,-0.0012217304902151227,-0.0005345070967450738
1761132059699754800,1.615754638671875,-0.0011453722836449742,0.0006108652451075613,-0.0011453722836449742
1761132059709755000,1.6257548828125,0.00007635815563844517,-0.0006108652451075613,-0.0005345070967450738
1761132059719755500,1.635755615234375,-0.0005345070967450738,-0.0006108652451075613,0.0006872233934700489
1761132059729755600,1.645755615234375,0.00007635815563844517,0,0.00007635815563844517
1761132059739755300,1.65575537109375,0.00007635815563844517,0.0006108652451075613,0.00007635815563844517
1761132059749755100,1.665755126953125,-0.0005345070967450738,0,-0.0011453722836449742
1761132059759755300,1.67575537109375,-0.0005345070967450738,-0.0006108652451075613,0.00007635815563844517
1761132059769755100,1.685755126953125,0.0006872233934700489,0,0.0006872233934700489
1761132059779755300,1.69575537109375,0.0006872233934700489,0.0006108652451075613,0.00007635815563844517
1761132059789755400,1.70575537109375,-0.0005345070967450738,0,0.0006872233934700489
1761132059799755300,1.71575537109375,0.00007635815563844517,0,-0.0011453722836449742
1761132059809755100,1.725755126953125,0.00007635815563844517,0.0006108652451075613,0.00007635815563844517
1761132059819754500,1.73575439453125,0.00007635815563844517,0,-0.0005345070967450738
1761132059829754400,1.74575439453125,0.00007635815563844517,-0.0012217304902151227,-0.0005345070967450738
1761132059839754200,1.755754150390625,0.0006872233934700489,0,0.00007635815563844517
1761132059849754400,1.76575439453125,0.0012980886967852712,0.0006108652451075613,0.00007635815563844517
1761132059859754200,1.775754150390625,-0.0005345070967450738,0.0012217304902151227,0.0006872233934700489
1761132059869754400,1.78575439453125,0.00007635815563844517,-0.0006108652451075613,0.00007635815563844517
1761132059879753700,1.795753662109375,0.00007635815563844517,-0.0006108652451075613,0.00007635815563844517
1761132059889753600,1.805753662109375,0.00007635815563844517,0,-0.0005345070967450738
1761132059899753700,1.815753662109375,0.00007635815563844517,0,0.0006872233934700489
1761132059909753900,1.82575390625,0.00007635815563844517,-0.0012217304902151227,0.0006872233934700489
1761132059919754500,1.83575439453125,0.0006872233934700489,0.0006108652451075613,0.0006872233934700489
1761132059929754600,1.845754638671875,0.0006872233934700489,0,0.00007635815563844517
1761132059939754800,1.855754638671875,-0.0005345070967450738,0.0006108652451075613,0.0012980886967852712
1761132059949754600,1.865754638671875,0.0006872233934700489,0.0012217304902151227,0.00007635815563844517
1761132059959754500,1.87575439453125,0.00007635815563844517,0,-0.0005345070967450738
1761132059969754600,1.885754638671875,-0.0011453722836449742,0.0012217304902151227,0.00007635815563844517
1761132059979754800,1.895754638671875,0.00007635815563844517,0.0006108652451075613,-0.0011453722836449742
1761132059989754600,1.905754638671875,0.00007635815563844517,-0.0006108652451075613,-0.0011453722836449742
1761132059999754800,1.915754638671875,0.00007635815563844517,0.0006108652451075613,0.00007635815563844517
1761132060009754600,1.925754638671875,-0.0005345070967450738,-0.0006108652451075613,-0.0011453722836449742
1761132060019754000,1.93575390625,-0.0005345070967450738,0,-0.0011453722836449742
1761132060029753900,1.94575390625,-0.0005345070967450738,-0.0006108652451075613,-0.0005345070967450738
1761132060039754200,1.955754150390625,0.00007635815563844517,0.0012217304902151227,-0.0005345070967450738
1761132060049754400,1.96575439453125,0.0006872233934700489,0.0006108652451075613,-0.0005345070967450738
1761132060059754200,1.975754150390625,0.00007635815563844517,0.0006108652451075613,-0.0005345070967450738
1761132060069754400,1.98575439453125,0.00007635815563844517,0.0006108652451075613,0.0012980886967852712
1761132060079754200,1.995754150390625,-0.0011453722836449742,-0.0006108652451075613,-0.0005345070967450738
1761132060089754400,2.00575439453125,0.0006872233934700489,0.0012217304902151227,0.00007635815563844517
1761132060099754500,2.01575439453125,-0.0005345070967450738,-0.0006108652451075613,-0.0005345070967450738
1761132060109754400,2.02575439453125,-0.0011453722836449742,0.0006108652451075613,-0.0005345070967450738
1761132060119755300,2.03575537109375,-0.0011453722836449742,0,0.0006872233934700489
1761132060129755100,2.045755126953125,-0.0005345070967450738,0,-0.0011453722836449742
1761132060139755300,2.05575537109375,0.0006872233934700489,0,0.00007635815563844517
1761132060149755400,2.06575537109375,0.00007635815563844517,-0.0006108652451075613,0.00007635815563844517
1761132060159755300,2.07575537109375,0.0012980886967852712,0.0006108652451075613,-0.0005345070967450738
1761132060169755400,2.08575537109375,0.0006872233934700489,0.0006108652451075613,0.00007635815563844517
1761132060179756000,2.095756103515625,-0.0011453722836449742,-0.0006108652451075613,-0.0011453722836449742
1761132060189756200,2.105756103515625,0.00007635815563844517,0.0006108652451075613,0.0012980886967852712
1761132060199756000,2.115756103515625,0.0006872233934700489,-0.0006108652451075613,0.0006872233934700489
1761132060209756200,2.125756103515625,0.00007635815563844517,0,-0.0017562375869601965
1761132060219755300,2.13575537109375,0.00007635815563844517,0,0.00007635815563844517
1761132060229755100,2.145755126953125,0.00007635815563844517,-0.0006108652451075613,-0.0005345070967450738
1761132060239755300,2.15575537109375,0.0006872233934700489,0,-0.0011453722836449742
1761132060249755100,2.165755126953125,-0.0011453722836449742,0.0006108652451075613,-0.0005345070967450738
1761132060259755300,2.17575537109375,0.00007635815563844517,0,-0.0011453722836449742
1761132060269755100,2.185755126953125,0.0006872233934700489,0,-0.0011453722836449742
1761132060279755000,2.195755126953125,0.0006872233934700489,-0.0006108652451075613,-0.0011453722836449742
1761132060289755100,2.205755126953125,0.0006872233934700489,0,-0.0005345070967450738
1761132060299755300,2.21575537109375,0.00007635815563844517,0.0006108652451075613,0.0012980886967852712
1761132060309755100,2.225755126953125,-0.0005345070967450738,0.0006108652451075613,-0.0005345070967450738
1761132060319756000,2.235756103515625,0.00007635815563844517,0.0006108652451075613,0.0006872233934700489
1761132060329756000,2.245755859375,-0.0005345070967450738,0.0006108652451075613,0.0006872233934700489
1761132060339756000,2.255756103515625,0.0006872233934700489,-0.0006108652451075613,0.0012980886967852712
1761132060349756000,2.265755859375,0.0006872233934700489,0.0006108652451075613,-0.0005345070967450738
1761132060359756000,2.275756103515625,0.0006872233934700489,0,-0.0005345070967450738
1761132060369756000,2.285755859375,0.00007635815563844517,0,-0.0005345070967450738
1761132060379756000,2.295756103515625,0.0006872233934700489,0,0.00007635815563844517
1761132060389756000,2.305755859375,-0.0005345070967450738,0.0006108652451075613,0.0006872233934700489
1761132060399755300,2.31575537109375,0.00007635815563844517,-0.0012217304902151227,0.00007635815563844517
1761132060409755100,2.325755126953125,-0.0011453722836449742,0,-0.0005345070967450738
1761132060419754200,2.335754150390625,0.00007635815563844517,0,0.00007635815563844517
1761132060429753900,2.34575390625,-0.0005345070967450738,-0.0006108652451075613,-0.0017562375869601965
1761132060439753200,2.355753173828125,-0.0005345070967450738,0.0006108652451075613,0.00007635815563844517
1761132060449752800,2.3657529296875,0.00007635815563844517,-0.0006108652451075613,-0.0005345070967450738
1761132060459752200,2.375752197265625,0.00007635815563844517,0,-0.0011453722836449742
1761132060469752000,2.385751953125,0.0006872233934700489,0.0012217304902151227,-0.0005345070967450738
1761132060479752200,2.395752197265625,0.00007635815563844517,-0.0006108652451075613,-0.0005345070967450738
1761132060489752000,2.405751953125,-0.0011453722836449742,0,-0.0005345070967450738
1761132060499752000,2.415751953125,-0.0005345070967450738,-0.0006108652451075613,-0.0011453722836449742
1761132060509752000,2.425751953125,0.0012980886967852712,0.0012217304902151227,0.00007635815563844517
1761132060519753000,2.4357529296875,0.0006872233934700489,0.0006108652451075613,0.00007635815563844517
1761132060529752800,2.4457529296875,-0.0011453722836449742,0,0.0012980886967852712
1761132060539753000,2.4557529296875,0.00007635815563844517,-0.0006108652451075613,0.00007635815563844517
1761132060549752800,2.4657529296875,-0.0005345070967450738,0,0.00007635815563844517
1761132060559753000,2.4757529296875,0.0006872233934700489,0,0.0006872233934700489
1761132060569752800,2.4857529296875,0.00007635815563844517,-0.0006108652451075613,-0.0005345070967450738
1761132060579753200,2.495753173828125,0.0006872233934700489,0,0.0006872233934700489
1761132060589753300,2.50575341796875,0.0012980886967852712,-0.0006108652451075613,0.00007635815563844517
1761132060599753200,2.515753173828125,0.0006872233934700489,0.0012217304902151227,0.00007635815563844517
1761132060609753300,2.52575341796875,0.00007635815563844517,0.0006108652451075613,-0.0005345070967450738
1761132060619752400,2.53575244140625,-0.0005345070967450738,0,-0.0005345070967450738
1761132060629752300,2.54575244140625,-0.0005345070967450738,-0.0012217304902151227,-0.0011453722836449742
1761132060639752400,2.55575244140625,-0.0005345070967450738,-0.0006108652451075613,-0.0017562375869601965
1761132060649752300,2.56575244140625,-0.0011453722836449742,0,-0.0005345070967450738
1761132060659752200,2.575752197265625,0.0012980886967852712,0.0006108652451075613,-0.0005345070967450738
1761132060669752300,2.58575244140625,-0.0005345070967450738,0.0012217304902151227,0.00007635815563844517
1761132060679752200,2.595752197265625,0.00007635815563844517,-0.0012217304902151227,-0.0011453722836449742
1761132060689752300,2.60575244140625,0.00007635815563844517,0.0006108652451075613,0.0012980886967852712
1761132060699753000,2.6157529296875,-0.0005345070967450738,0.0006108652451075613,0.00007635815563844517
1761132060709753000,2.625753173828125,0.0006872233934700489,0,0.00007635815563844517
1761132060719753500,2.63575341796875,0.00007635815563844517,0.0006108652451075613,0.00007635815563844517
1761132060729753900,2.64575390625,-0.0005345070967450738,0,0.0006872233934700489
1761132060739753500,2.65575341796875,-0.0005345070967450738,0,0.0006872233934700489
1761132060749753300,2.66575341796875,0.0006872233934700489,0.0006108652451075613,0.00007635815563844517
1761132060759754000,2.67575390625,-0.0005345070967450738,0,0.00007635815563844517
1761132060769753300,2.68575341796875,0.0006872233934700489,0.0006108652451075613,0.00007635815563844517
1761132060779752400,2.69575244140625,0.00007635815563844517,0,0.0006872233934700489
1761132060789751600,2.70575146484375,0.0006872233934700489,0,-0.0005345070967450738
1761132060799751200,2.715751220703125,0.00007635815563844517,-0.0006108652451075613,-0.0005345070967450738
1761132060809750500,2.72575048828125,0.0006872233934700489,0,0.0006872233934700489
1761132060819749600,2.73574951171875,0.00007635815563844517,-0.0012217304902151227,-0.0005345070967450738
1761132060829749200,2.745749267578125,0.0006872233934700489,-0.0012217304902151227,-0.0011453722836449742
1761132060839748900,2.755748779296875,-0.0005345070967450738,-0.0006108652451075613,0.00007635815563844517
1761132060849748200,2.765748291015625,0.00007635815563844517,-0.0006108652451075613,0.0006872233934700489
1761132060859748000,2.775748046875,0.00007635815563844517,0,0.0006872233934700489
1761132060869748200,2.785748291015625,-0.0005345070967450738,0.0006108652451075613,0.00007635815563844517
1761132060879747800,2.795747802734375,0.00007635815563844517,0,0.0006872233934700489
1761132060889747000,2.805746826171875,0.00007635815563844517,0.0006108652451075613,-0.0005345070967450738
1761132060899747000,2.8157470703125,-0.0011453722836449742,0,-0.0005345070967450738
1761132060909746400,2.825746337890625,-0.0005345070967450738,0,0.00007635815563844517
1761132060919747300,2.835747314453125,0.00007635815563844517,0.0006108652451075613,0.00007635815563844517
1761132060929747200,2.845747314453125,0.0012980886967852712,0,0.00007635815563844517
1761132060939747300,2.855747314453125,0.0006872233934700489,0.0006108652451075613,0.00007635815563844517
1761132060949747200,2.865747314453125,-0.0005345070967450738,-0.0006108652451075613,0.0006872233934700489
1761132060959747300,2.875747314453125,0.0006872233934700489,0.0006108652451075613,0.0006872233934700489
1761132060969747200,2.885747314453125,0.00007635815563844517,0,0.0006872233934700489
1761132060979747300,2.895747314453125,0.0006872233934700489,-0.0006108652451075613,0.00007635815563844517
1761132060989747200,2.905747314453125,0.00007635815563844517,0.0006108652451075613,0.0006872233934700489
1761132060999747300,2.915747314453125,-0.0005345070967450738,-0.0012217304902151227,-0.0005345070967450738
1761132061009746400,2.925746337890625,0.0012980886967852712,-0.0006108652451075613,-0.0005345070967450738
1761132061019746300,2.935746337890625,0.0006872233934700489,0,-0.0017562375869601965
1761132061029745700,2.94574560546875,-0.0011453722836449742,-0.0012217304902151227,-0.0005345070967450738
1761132061039745500,2.95574560546875,0.00007635815563844517,0.0006108652451075613,0.00007635815563844517
1761132061049745200,2.9657451171875,0.00007635815563844517,0,0.0006872233934700489
1761132061059744300,2.975744140625,-0.0011453722836449742,-0.0006108652451075613,-0.0005345070967450738
1761132061069744000,2.985744140625,0.0006872233934700489,0,0.00007635815563844517
1761132061079744300,2.995744140625,0.00007635815563844517,0,0.00007635815563844517
1761132061089744100,3.005744140625,0.00007635815563844517,0,-0.0005345070967450738
1761132061099743700,3.01574365234375,0.00007635815563844517,-0.0012217304902151227,-0.0005345070967450738
1761132061109743400,3.025743408203125,0.0006872233934700489,0,-0.0005345070967450738
1761132061119743200,3.0357431640625,-0.0017562375869601965,-0.0006108652451075613,0.00007635815563844517
1761132061129742800,3.045742919921875,-0.0005345070967450738,-0.0006108652451075613,0.00007635815563844517
1761132061139742500,3.055742431640625,0.0006872233934700489,0,-0.0011453722836449742
1761132061149742300,3.065742431640625,0.0012980886967852712,0.0012217304902151227,-0.0011453722836449742
1761132061159741400,3.075741455078125,0.0006872233934700489,0.0006108652451075613,-0.0005345070967450738
1761132061169740500,3.085740478515625,0.0006872233934700489,0,-0.0011453722836449742
1761132061179739600,3.09573974609375,-0.0005345070967450738,-0.0006108652451075613,0.0006872233934700489
1761132061189739300,3.1057392578125,0.0006872233934700489,-0.0006108652451075613,0.0006872233934700489
1761132061199738600,3.115738525390625,0.00007635815563844517,-0.0012217304902151227,0.0006872233934700489
1761132061209738200,3.12573828125,-0.0011453722836449742,0.0006108652451075613,0.0006872233934700489
1761132061219737300,3.1357373046875,0.0006872233934700489,-0.0006108652451075613,0.0006872233934700489
1761132061229736700,3.14573681640625,0.0006872233934700489,0,0.0006872233934700489
1761132061239735800,3.15573583984375,0.0006872233934700489,-0.0006108652451075613,-0.0005345070967450738
1761132061249735000,3.16573486328125,0.0006872233934700489,0,0.0006872233934700489
1761132061259734000,3.175734130859375,0.0006872233934700489,0.0006108652451075613,0.0012980886967852712
1761132061269733000,3.185733154296875,-0.0005345070967450738,0,0.00007635815563844517
1761132061279732200,3.195732177734375,-0.0005345070967450738,0,-0.0011453722836449742
1761132061289731300,3.2057314453125,-0.0005345070967450738,0,-0.0005345070967450738
1761132061299730400,3.21573046875,-0.0005345070967450738,-0.0006108652451075613,-0.0005345070967450738
1761132061309730300,3.225730224609375,0.0006872233934700489,-0.0012217304902151227,-0.0017562375869601965
1761132061319730200,3.235730224609375,0.0006872233934700489,0,-0.0005345070967450738
1761132061329730000,3.24572998046875,-0.0011453722836449742,0.0006108652451075613,0.0006872233934700489
1761132061339730200,3.255730224609375,0.00007635815563844517,0.0012217304902151227,0.0006872233934700489
1761132061349730000,3.26572998046875,0.00007635815563844517,0.0006108652451075613,0.00007635815563844517
1761132061359730200,3.275730224609375,0.0006872233934700489,0.0006108652451075613,0.00007635815563844517
1761132061369730000,3.28572998046875,0.00007635815563844517,-0.0006108652451075613,0.00007635815563844517
1761132061379730200,3.295730224609375,0.0006872233934700489,-0.0006108652451075613,0.00007635815563844517
1761132061389730000,3.30572998046875,0.00007635815563844517,-0.0012217304902151227,0.00007635815563844517
1761132061399730200,3.315730224609375,-0.0005345070967450738,-0.0006108652451075613,-0.0005345070967450738
1761132061409730000,3.32572998046875,0.00007635815563844517,0,0.0006872233934700489
1761132061419730200,3.335730224609375,-0.0005345070967450738,-0.0006108652451075613,-0.0005345070967450738
1761132061429731000,3.34573095703125,-0.0005345070967450738,0,-0.0005345070967450738
1761132061439732000,3.35573193359375,0.0006872233934700489,0,-0.0005345070967450738
1761132061449732900,3.36573291015625,-0.0005345070967450738,0,-0.0005345070967450738
1761132061459733800,3.375733642578125,0.00007635815563844517,0,0.00007635815563844517
1761132061469734700,3.385734619140625,-0.0005345070967450738,-0.0006108652451075613,0.00007635815563844517
1761132061479735600,3.395735595703125,-0.0011453722836449742,0,0.00007635815563844517
1761132061489736200,3.405736083984375,-0.0005345070967450738,-0.0006108652451075613,0.00007635815563844517
1761132061499737000,3.415737060546875,0.00007635815563844517,-0.0006108652451075613,-0.0011453722836449742
1761132061509738000,3.425738037109375,0.00007635815563844517,-0.0006108652451075613,0.0006872233934700489
1761132061519739000,3.43573876953125,-0.0005345070967450738,0,-0.0005345070967450738
1761132061529739800,3.44573974609375,0.00007635815563844517,-0.0006108652451075613,0.00007635815563844517
1761132061539740700,3.45574072265625,0.00007635815563844517,0.0012217304902151227,0.00007635815563844517
1761132061549741600,3.465741455078125,0.0006872233934700489,-0.0006108652451075613,-0.0005345070967450738
1761132061559742500,3.475742431640625,0.00007635815563844517,0.0006108652451075613,-0.0017562375869601965
1761132061569743400,3.485743408203125,-0.0005345070967450738,0.0006108652451075613,-0.0017562375869601965
1761132061579744300,3.495744140625,-0.0005345070967450738,-0.0012217304902151227,0.00007635815563844517
1761132061589745200,3.5057451171875,0.00007635815563844517,0,-0.0005345070967450738
1761132061599746000,3.51574609375,-0.0005345070967450738,0.0006108652451075613,0.00007635815563844517
1761132061609747000,3.525746826171875,0.00007635815563844517,0,-0.0011453722836449742
1761132061619747000,3.5357470703125,-0.002367102773860097,-0.001832595793530345,-0.0005345070967450738
1761132061629748000,3.545748046875,-0.0011453722836449742,-0.0006108652451075613,0.0006872233934700489
1761132061639748900,3.555748779296875,0.00007635815563844517,0,0.00007635815563844517
1761132061649749800,3.565749755859375,-0.0005345070967450738,0,-0.0005345070967450738
1761132061659750700,3.575750732421875,0.00007635815563844517,0.0006108652451075613,-0.0005345070967450738
1761132061669751600,3.58575146484375,-0.0005345070967450738,0,-0.0005345070967450738
1761132061679752400,3.59575244140625,0.0006872233934700489,0,0.00007635815563844517
1761132061689753300,3.60575341796875,0.0006872233934700489,-0.0006108652451075613,0.00007635815563844517
1761132061699754200,3.615754150390625,0.0012980886967852712,0,0.00007635815563844517
1761132061709755100,3.625755126953125,-0.0011453722836449742,-0.0012217304902151227,-0.0011453722836449742
1761132061719756000,3.635756103515625,-0.0005345070967450738,-0.0012217304902151227,-0.0011453722836449742
1761132061729756000,3.645755859375,0.0012980886967852712,0.0006108652451075613,0.0006872233934700489
1761132061739756000,3.655756103515625,-0.0011453722836449742,-0.0006108652451075613,-0.0005345070967450738
1761132061749756000,3.665755859375,0.0006872233934700489,0,0.0006872233934700489
1761132061759756000,3.675756103515625,0.00007635815563844517,0.0012217304902151227,0.00007635815563844517
1761132061769756000,3.685755859375,0.0006872233934700489,0.0006108652451075613,0.0006872233934700489
1761132061779756000,3.695756103515625,0.00007635815563844517,0,0.00007635815563844517
1761132061789756200,3.705756103515625,0.0012980886967852712,-0.0006108652451075613,0.0006872233934700489
1761132061799756000,3.715756103515625,-0.0005345070967450738,0,0.00007635815563844517
1761132061809756200,3.725756103515625,0.0006872233934700489,0.0006108652451075613,-0.0011453722836449742
1761132061819755300,3.73575537109375,0.0006872233934700489,-0.0006108652451075613,0.0006872233934700489
1761132061829755100,3.745755126953125,0.00007635815563844517,0.0006108652451075613,-0.0011453722836449742
1761132061839755000,3.755755126953125,-0.0011453722836449742,0.0006108652451075613,-0.0005345070967450738
1761132061849755100,3.765755126953125,0.00007635815563844517,-0.0006108652451075613,0.00007635815563844517
1761132061859755000,3.775755126953125,-0.0011453722836449742,-0.0006108652451075613,0.00007635815563844517
1761132061869755100,3.785755126953125,0.0006872233934700489,0.0006108652451075613,0.00007635815563844517
1761132061879755000,3.795755126953125,0.00007635815563844517,0,0.00007635815563844517
1761132061889755100,3.805755126953125,-0.0011453722836449742,-0.0006108652451075613,0.0006872233934700489
1761132061899755000,3.815755126953125,0.0012980886967852712,0.0006108652451075613,-0.0005345070967450738
1761132061909755100,3.825755126953125,0.00007635815563844517,0.0006108652451075613,0.00007635815563844517
1761132061919756000,3.835756103515625,0.0006872233934700489,-0.0006108652451075613,-0.0005345070967450738
1761132061929756000,3.845755859375,0.00007635815563844517,-0.0006108652451075613,-0.0005345070967450738
1761132061939756000,3.855756103515625,0.00007635815563844517,-0.0006108652451075613,-0.0011453722836449742
1761132061949756000,3.865755859375,0.00007635815563844517,0,0.0006872233934700489
1761132061959756000,3.875756103515625,-0.0005345070967450738,0.0006108652451075613,-0.0005345070967450738
1761132061969756000,3.885755859375,-0.0011453722836449742,-0.0006108652451075613,-0.0011453722836449742
1761132061979756000,3.895756103515625,0.0019089538836851716,0.0006108652451075613,-0.0011453722836449742
1761132061989756000,3.905755859375,-0.0005345070967450738,-0.0012217304902151227,0.00007635815563844517
1761132061999756000,3.915756103515625,0.00007635815563844517,0,0.00007635815563844517
1761132062009756000,3.925755859375,-0.0005345070967450738,0.0006108652451075613,0.00007635815563844517
1761132062019755000,3.935755126953125,0.00007635815563844517,0,0.0012980886967852712
1761132062029755100,3.945755126953125,0.002519819187000394,0.0006108652451075613,-0.0005345070967450738
1761132062039755300,3.95575537109375,0.0006872233934700489,-0.0006108652451075613,0.00007635815563844517
1761132062049755100,3.965755126953125,0.00007635815563844517,0,0.00007635815563844517
1761132062059755300,3.97575537109375,-0.0005345070967450738,0,0.0006872233934700489
1761132062069755100,3.985755126953125,0.0006872233934700489,0.0012217304902151227,0.00007635815563844517
1761132062079755300,3.99575537109375,0.00007635815563844517,0,0.0006872233934700489
1761132062089755100,4.005755126953125,-0.0005345070967450738,-0.0006108652451075613,-0.0011453722836449742
1761132062099755000,4.015755126953125,0.00007635815563844517,0.0006108652451075613,0.0006872233934700489
1761132062109755100,4.025755126953125,0.0006872233934700489,0,0.00007635815563844517
1761132062119756000,4.035756103515625,0.00007635815563844517,0,0.00007635815563844517
1761132062129756000,4.045755859375,-0.0011453722836449742,-0.0006108652451075613,0.00007635815563844517
1761132062139756000,4.055756103515625,-0.0005345070967450738,0,0.0006872233934700489
1761132062149756000,4.065755859375,0.0006872233934700489,-0.0006108652451075613,-0.0005345070967450738
1761132062159756000,4.075756103515625,0.0006872233934700489,-0.0006108652451075613,-0.0011453722836449742
1761132062169756000,4.085755859375,0.00007635815563844517,0.0012217304902151227,0.00007635815563844517
1761132062179756000,4.095756103515625,-0.0005345070967450738,-0.0012217304902151227,0.0006872233934700489
1761132062189756000,4.105755859375,0.00007635815563844517,-0.0006108652451075613,0.0006872233934700489
1761132062199756000,4.115756103515625,0.00007635815563844517,0,-0.0005345070967450738
1761132062209756000,4.125755859375,0.00007635815563844517,0,0.0012980886967852712
1761132062219755300,4.13575537109375,0.00007635815563844517,-0.0006108652451075613,-0.0005345070967450738
1761132062229755100,4.145755126953125,0.00007635815563844517,0.0006108652451075613,0.0006872233934700489
1761132062239755000,4.155755126953125,-0.0005345070967450738,-0.0006108652451075613,0.00007635815563844517
1761132062249755100,4.165755126953125,0.00007635815563844517,0.0006108652451075613,0.0019089538836851716
1761132062259755000,4.175755126953125,0.0006872233934700489,-0.0006108652451075613,-0.0005345070967450738
1761132062269755100,4.185755126953125,0.00007635815563844517,0,0.00007635815563844517
1761132062279755000,4.195755126953125,0.00007635815563844517,0.0006108652451075613,0.00007635815563844517
1761132062289755100,4.205755126953125,0.00007635815563844517,0,0.0006872233934700489
1761132062299755000,4.215755126953125,0.00007635815563844517,0,-0.0005345070967450738
1761132062309755100,4.225755126953125,0.0006872233934700489,-0.0012217304902151227,0.00007635815563844517
1761132062319756000,4.235756103515625,0.0006872233934700489,0,0.00007635815563844517
1761132062329756000,4.245755859375,0.00007635815563844517,0,-0.0005345070967450738
1761132062339756000,4.255756103515625,-0.0011453722836449742,0,0.00007635815563844517
1761132062349756000,4.265755859375,0.00007635815563844517,0,0.00007635815563844517
1761132062359756000,4.275756103515625,0.00007635815563844517,0,0.0006872233934700489
1761132062369756000,4.285755859375,0.0012980886967852712,0,0.00007635815563844517
1761132062379756000,4.295756103515625,-0.0011453722836449742,-0.0006108652451075613,0.00007635815563844517
1761132062389756000,4.305755859375,-0.0005345070967450738,-0.0006108652451075613,0.00007635815563844517
1761132062399756000,4.315756103515625,-0.0005345070967450738,0,0.00007635815563844517
1761132062409756000,4.325755859375,-0.0005345070967450738,0.0006108652451075613,0.0006872233934700489
1761132062419755000,4.335755126953125,-0.0005345070967450738,0,0.00007635815563844517
1761132062429755100,4.345755126953125,0.00007635815563844517,0,0.00007635815563844517
1761132062439755000,4.355755126953125,0.00007635815563844517,0,0.0006872233934700489
1761132062449755100,4.365755126953125,0.00007635815563844517,-0.0006108652451075613,0.0012980886967852712
1761132062459755000,4.375755126953125,-0.0005345070967450738,0.0012217304902151227,0.00007635815563844517
1761132062469755100,4.385755126953125,-0.0005345070967450738,-0.0006108652451075613,-0.0011453722836449742
1761132062479755000,4.395755126953125,-0.0005345070967450738,0,0.0006872233934700489
1761132062489755100,4.405755126953125,0.0006872233934700489,0.0006108652451075613,0.00007635815563844517
1761132062499755000,4.415755126953125,-0.0005345070967450738,0,0.0012980886967852712
1761132062509755100,4.425755126953125,-0.0011453722836449742,-0.0006108652451075613,0.0006872233934700489
1761132062519756000,4.435756103515625,0.00007635815563844517,-0.0006108652451075613,-0.0005345070967450738
1761132062529756000,4.445755859375,-0.0005345070967450738,0,0.0012980886967852712
1761132062539756000,4.455756103515625,-0.0005345070967450738,0,0.0006872233934700489
1761132062549756000,4.465755859375,0.0006872233934700489,-0.0012217304902151227,-0.0005345070967450738
1761132062559756000,4.475756103515625,-0.0005345070967450738,-0.0006108652451075613,0.00007635815563844517
1761132062569756000,4.485755859375,0.0006872233934700489,0.0006108652451075613,0.0006872233934700489
1761132062579756000,4.495756103515625,0.0006872233934700489,-0.0006108652451075613,-0.0005345070967450738
1761132062589756000,4.505755859375,0.0012980886967852712,-0.0006108652451075613,0.00007635815563844517
1761132062599756000,4.515756103515625,0.00007635815563844517,0.0006108652451075613,0.00007635815563844517
1761132062609756000,4.525755859375,0.0012980886967852712,0,0.0012980886967852712
1761132062619755000,4.535755126953125,-0.0005345070967450738,-0.0006108652451075613,-0.0005345070967450738
1761132062629755100,4.545755126953125,0.00007635815563844517,0.0006108652451075613,0.00007635815563844517
1761132062639755000,4.555755126953125,0.00007635815563844517,-0.001832595793530345,-0.0011453722836449742
1761132062649755100,4.565755126953125,0.0006872233934700489,0,0.0006872233934700489
1761132062659755000,4.575755126953125,0.00007635815563844517,0,0.0006872233934700489
1761132062669755100,4.585755126953125,0.00007635815563844517,-0.0006108652451075613,-0.0011453722836449742
1761132062679755000,4.595755126953125,0.0006872233934700489,0,0.0006872233934700489
1761132062689755100,4.605755126953125,0.00007635815563844517,0,-0.0005345070967450738
1761132062699755000,4.615755126953125,0.0012980886967852712,0,0.0006872233934700489
1761132062709755100,4.625755126953125,0.00007635815563844517,0,-0.0005345070967450738
1761132062719756000,4.635756103515625,0.0006872233934700489,-0.0006108652451075613,0.00007635815563844517
1761132062729756000,4.645755859375,-0.0005345070967450738,0.0012217304902151227,0.0006872233934700489
1761132062739756000,4.655756103515625,0.0006872233934700489,0.0012217304902151227,0.0006872233934700489
1761132062749756000,4.665755859375,0.0006872233934700489,0,0.00007635815563844517
1761132062759756000,4.675756103515625,-0.0005345070967450738,-0.0006108652451075613,-0.0005345070967450738
1761132062769756000,4.685755859375,0.0012980886967852712,0.0006108652451075613,-0.0005345070967450738
1761132062779756000,4.695756103515625,0.00007635815563844517,0.0006108652451075613,0.00007635815563844517
1761132062789756000,4.705755859375,0.0006872233934700489,-0.0006108652451075613,0.00007635815563844517
1761132062799756000,4.715756103515625,-0.0005345070967450738,0,0.0006872233934700489
1761132062809756000,4.725755859375,0.00007635815563844517,-0.0006108652451075613,-0.0005345070967450738
1761132062819755300,4.73575537109375,-0.0005345070967450738,0,-0.0005345070967450738
1761132062829755100,4.745755126953125,0.00007635815563844517,-0.0012217304902151227,-0.0005345070967450738
1761132062839755000,4.755755126953125,0.0006872233934700489,0,0.00007635815563844517
1761132062849755100,4.765755126953125,-0.0005345070967450738,-0.0012217304902151227,-0.0011453722836449742
1761132062859755000,4.775755126953125,0.0006872233934700489,0.0006108652451075613,0.0012980886967852712
1761132062869755100,4.785755126953125,-0.0005345070967450738,0,0.00007635815563844517
1761132062879755000,4.795755126953125,0.00007635815563844517,0,0.0019089538836851716
1761132062889755100,4.805755126953125,0.0012980886967852712,0.0012217304902151227,0.0006872233934700489
1761132062899755000,4.815755126953125,0.00007635815563844517,0,-0.0005345070967450738
1761132062909755100,4.825755126953125,0.0006872233934700489,0.0006108652451075613,0.00007635815563844517
1761132062919755800,4.835755859375,-0.0005345070967450738,-0.0006108652451075613,0.00007635815563844517
1761132062929756000,4.845755859375,0.0012980886967852712,0.0006108652451075613,0.0006872233934700489
1761132062939755800,4.855755859375,0.00007635815563844517,0.0006108652451075613,0.0006872233934700489
1761132062949756000,4.865755859375,0.0006872233934700489,0,-0.0005345070967450738
1761132062959755800,4.875755859375,0.0006872233934700489,-0.0006108652451075613,0.00007635815563844517
1761132062969756000,4.885755859375,0.0006872233934700489,0,-0.0011453722836449742
1761132062979756000,4.895756103515625,-0.0005345070967450738,0.0006108652451075613,-0.0005345070967450738
1761132062989756000,4.905755859375,0.0012980886967852712,-0.0006108652451075613,0.0006872233934700489
1761132062999756000,4.915756103515625,-0.0005345070967450738,0.001832595793530345,0.00007635815563844517
1761132063009756000,4.925755859375,0.00007635815563844517,0,-0.0005345070967450738
1761132063019755000,4.935755126953125,0.0006872233934700489,0.0006108652451075613,0.00007635815563844517
1761132063029755100,4.945755126953125,-0.0011453722836449742,0,0.0006872233934700489
1761132063039755000,4.955755126953125,0.0019089538836851716,-0.0006108652451075613,0.0006872233934700489
1761132063049755100,4.965755126953125,-0.0005345070967450738,0,0.00007635815563844517
1761132063059755000,4.975755126953125,-0.0011453722836449742,0,-0.0005345070967450738
1761132063069755100,4.985755126953125,0.0012980886967852712,0,0.00007635815563844517
1761132063079755000,4.995755126953125,-0.0005345070967450738,-0.0006108652451075613,0.00007635815563844517
1761132063089755100,5.005755126953125,0.00007635815563844517,0.0006108652451075613,0.00007635815563844517
1761132063099755000,5.015755126953125,-0.0005345070967450738,0,-0.0005345070967450738
1761132063109755100,5.025755126953125,0.00007635815563844517,0,0.00007635815563844517
1761132063119756000,5.035756103515625,0.0006872233934700489,0,0.0006872233934700489
1761132063129756000,5.045755859375,0.0012980886967852712,-0.0006108652451075613,0.0012980886967852712
1761132063139756000,5.055756103515625,0.0006872233934700489,0.0006108652451075613,0.00007635815563844517
1761132063149756000,5.065755859375,0.0006872233934700489,0,0.00007635815563844517
1761132063159756000,5.075756103515625,0.00007635815563844517,0,-0.0005345070967450738
1761132063169756000,5.085755859375,0.00007635815563844517,0,-0.0011453722836449742
1761132063179756000,5.095756103515625,0.00007635815563844517,0,-0.0005345070967450738
1761132063189756000,5.105755859375,-0.0005345070967450738,-0.0006108652451075613,0.0006872233934700489
1761132063199756000,5.115756103515625,0.00007635815563844517,0,-0.0005345070967450738
1761132063209756000,5.125755859375,-0.0005345070967450738,0,0.00007635815563844517
1761132063219755000,5.135755126953125,0.0012980886967852712,0.0006108652451075613,0.00007635815563844517
1761132063229755100,5.145755126953125,-0.0005345070967450738,0.0006108652451075613,-0.0005345070967450738
1761132063239755000,5.155755126953125,0.0019089538836851716,-0.0012217304902151227,0.0006872233934700489
1761132063249755100,5.165755126953125,0.0006872233934700489,0.0006108652451075613,-0.0005345070967450738
1761132063259755000,5.175755126953125,0.0006872233934700489,0,-0.0011453722836449742
1761132063269755100,5.185755126953125,0.0006872233934700489,0,-0.0005345070967450738
1761132063279755000,5.195755126953125,0.0006872233934700489,0,0.00007635815563844517
1761132063289755100,5.205755126953125,0.0006872233934700489,0,-0.0005345070967450738
1761132063299755000,5.215755126953125,-0.0011453722836449742,-0.0012217304902151227,-0.0011453722836449742
1761132063309755100,5.225755126953125,-0.0005345070967450738,-0.0006108652451075613,-0.0005345070967450738
1761132063319756000,5.235756103515625,0.0012980886967852712,0.0012217304902151227,-0.0005345070967450738
1761132063329756000,5.245755859375,0.00007635815563844517,-0.0006108652451075613,-0.0005345070967450738
1761132063339755800,5.255755859375,-0.0005345070967450738,0.0006108652451075613,-0.0005345070967450738
1761132063349756000,5.265755859375,0.0006872233934700489,0.0012217304902151227,0.0006872233934700489
1761132063359755800,5.275755859375,-0.0011453722836449742,-0.0012217304902151227,0.00007635815563844517
1761132063369756000,5.285755859375,0.00007635815563844517,-0.0012217304902151227,0.00007635815563844517
1761132063379755800,5.295755859375,0.00007635815563844517,0,0.0006872233934700489
1761132063389756000,5.305755859375,0.0006872233934700489,0.0006108652451075613,0.0006872233934700489
1761132063399755800,5.315755859375,0.0006872233934700489,-0.0006108652451075613,0.0006872233934700489
1761132063409756000,5.325755859375,-0.0005345070967450738,-0.0006108652451075613,0.00007635815563844517
1761132063419755000,5.335755126953125,-0.0005345070967450738,0.0006108652451075613,-0.0005345070967450738
1761132063429755100,5.345755126953125,-0.0005345070967450738,0.0006108652451075613,-0.0005345070967450738
1761132063439755000,5.355755126953125,0.0006872233934700489,0,-0.0005345070967450738
1761132063449755000,5.3657548828125,0.0006872233934700489,0.0012217304902151227,-0.0005345070967450738
1761132063459755000,5.375755126953125,-0.0005345070967450738,-0.0006108652451075613,0.00007635815563844517
1761132063469755000,5.3857548828125,0.0006872233934700489,0.0006108652451075613,0.0006872233934700489
1761132063479755000,5.395755126953125,-0.0005345070967450738,0,0.00007635815563844517
1761132063489755000,5.4057548828125,0.00007635815563844517,0.0006108652451075613,0.0006872233934700489
1761132063499755000,5.415755126953125,-0.0005345070967450738,0,0.0006872233934700489
1761132063509755000,5.4257548828125,-0.0005345070967450738,-0.0006108652451075613,0.0006872233934700489
1761132063519756000,5.435756103515625,-0.0011453722836449742,0.0006108652451075613,0.0012980886967852712
1761132063529756000,5.445755859375,0.0006872233934700489,0.0006108652451075613,0.0006872233934700489
1761132063539756000,5.455756103515625,0.0012980886967852712,0,0.0012980886967852712
1761132063549756000,5.465755859375,0.0012980886967852712,0,0.0006872233934700489
1761132063559756000,5.475756103515625,0.00007635815563844517,-0.0006108652451075613,0.0012980886967852712
1761132063569756000,5.485755859375,-0.0011453722836449742,-0.0006108652451075613,0.0012980886967852712
1761132063579756000,5.495756103515625,-0.0005345070967450738,-0.0006108652451075613,0.0006872233934700489
1761132063589756000,5.505755859375,0.0006872233934700489,-0.0006108652451075613,0.0012980886967852712
1761132063599756000,5.515756103515625,0.0012980886967852712,0.0006108652451075613,0.0012980886967852712
1761132063609756000,5.525755859375,0.0006872233934700489,0,0.002519819187000394
1761132063619755000,5.535755126953125,0.0006872233934700489,0,0.0012980886967852712
1761132063629755100,5.545755126953125,-0.0011453722836449742,-0.0006108652451075613,-0.0005345070967450738
1761132063639755000,5.555755126953125,0.0012980886967852712,0.0006108652451075613,0.0006872233934700489
1761132063649755100,5.565755126953125,-0.0005345070967450738,-0.0006108652451075613,0.00007635815563844517
1761132063659755000,5.575755126953125,0.0006872233934700489,0.001832595793530345,0.0006872233934700489
1761132063669755100,5.585755126953125,0.0006872233934700489,-0.0006108652451075613,-0.0011453722836449742
1761132063679755000,5.595755126953125,0.00007635815563844517,0.0006108652451075613,-0.0005345070967450738
1761132063689755100,5.605755126953125,0.00007635815563844517,0.0006108652451075613,-0.0005345070967450738
1761132063699755000,5.615755126953125,0.0006872233934700489,0,0.00007635815563844517
1761132063709755100,5.625755126953125,-0.0005345070967450738,-0.0006108652451075613,-0.0011453722836449742
1761132063719755800,5.635755859375,0.00007635815563844517,-0.0012217304902151227,-0.0011453722836449742
1761132063729756000,5.645755859375,-0.0005345070967450738,-0.0006108652451075613,-0.0017562375869601965
1761132063739755800,5.655755859375,-0.0005345070967450738,-0.0006108652451075613,-0.0017562375869601965
1761132063749756000,5.665755859375,0.00007635815563844517,0.0006108652451075613,-0.002367102773860097
1761132063759755800,5.675755859375,0.0006872233934700489,-0.001832595793530345,-0.0017562375869601965
1761132063769756000,5.685755859375,0.00007635815563844517,-0.0006108652451075613,-0.0011453722836449742
1761132063779756000,5.695756103515625,-0.0005345070967450738,-0.001832595793530345,-0.0011453722836449742
1761132063789756000,5.705755859375,-0.0011453722836449742,-0.0006108652451075613,-0.0017562375869601965
1761132063799756000,5.715756103515625,-0.0005345070967450738,-0.0012217304902151227,-0.0017562375869601965
1761132063809756000,5.725755859375,0.00007635815563844517,-0.0006108652451075613,-0.0011453722836449742
1761132063819755000,5.735755126953125,-0.0005345070967450738,-0.0012217304902151227,-0.0011453722836449742
1761132063829755100,5.745755126953125,0.0006872233934700489,0,-0.0017562375869601965
1761132063839755000,5.755755126953125,0.0006872233934700489,0,-0.0017562375869601965
1761132063849755100,5.765755126953125,0.00007635815563844517,0.0006108652451075613,-0.002367102773860097
1761132063859755000,5.775755126953125,0.0006872233934700489,0,-0.002367102773860097
1761132063869755100,5.785755126953125,-0.0005345070967450738,0.0006108652451075613,-0.002367102773860097
1761132063879755000,5.795755126953125,-0.0005345070967450738,-0.0006108652451075613,-0.0005345070967450738
1761132063889755100,5.805755126953125,-0.0005345070967450738,0.0006108652451075613,-0.0011453722836449742
1761132063899755000,5.815755126953125,0.00007635815563844517,0,-0.0011453722836449742
1761132063909755100,5.825755126953125,-0.0005345070967450738,0.0006108652451075613,-0.0005345070967450738
1761132063919755800,5.835755859375,0.00007635815563844517,-0.0012217304902151227,-0.0005345070967450738
1761132063929756000,5.845755859375,-0.0005345070967450738,0.0006108652451075613,0.0006872233934700489
1761132063939756000,5.855756103515625,0.00007635815563844517,-0.0006108652451075613,0.00007635815563844517
1761132063949756000,5.865755859375,0.0012980886967852712,-0.0012217304902151227,0.0006872233934700489
1761132063959756000,5.875756103515625,0.00007635815563844517,-0.0006108652451075613,0.00007635815563844517
1761132063969756000,5.885755859375,0.00007635815563844517,-0.001832595793530345,0.0006872233934700489
1761132063979756000,5.895756103515625,-0.0005345070967450738,-0.0012217304902151227,-0.0005345070967450738
1761132063989756000,5.905755859375,0.00007635815563844517,-0.0012217304902151227,0.0006872233934700489
1761132063999756000,5.915756103515625,0.00007635815563844517,-0.0012217304902151227,0.0019089538836851716
1761132064009756000,5.925755859375,-0.0005345070967450738,-0.0012217304902151227,0.0019089538836851716
1761132064019755000,5.935755126953125,0.0006872233934700489,0,0.002519819187000394
1761132064029755100,5.945755126953125,0.00007635815563844517,-0.0006108652451075613,0.0006872233934700489
1761132064039755000,5.955755126953125,0.00007635815563844517,0.0006108652451075613,0.0012980886967852712
1761132064049755100,5.965755126953125,-0.0017562375869601965,-0.0006108652451075613,0.00007635815563844517
1761132064059755000,5.975755126953125,0.0012980886967852712,0.0006108652451075613,0.00007635815563844517
1761132064069755100,5.985755126953125,0.0006872233934700489,0.0006108652451075613,0.0006872233934700489
1761132064079755000,5.995755126953125,0.00007635815563844517,0.0006108652451075613,0.0019089538836851716
1761132064089755100,6.005755126953125,0.00007635815563844517,0.0012217304902151227,0.00007635815563844517
1761132064099755000,6.015755126953125,0.0006872233934700489,0.0012217304902151227,0.0006872233934700489
1761132064109755100,6.025755126953125,0.0006872233934700489,0,0.00007635815563844517
1761132064119755800,6.035755859375,0.0019089538836851716,0.0006108652451075613,0.00007635815563844517
1761132064129756000,6.045755859375,-0.0005345070967450738,0,-0.0011453722836449742
1761132064139756000,6.055756103515625,0.0006872233934700489,0.0006108652451075613,0.0019089538836851716
1761132064149756000,6.065755859375,0.0012980886967852712,0.0012217304902151227,0.0012980886967852712
1761132064159756000,6.075756103515625,0.0006872233934700489,0,-0.0005345070967450738
1761132064169756000,6.085755859375,0.00007635815563844517,0,-0.0005345070967450738
1761132064179756000,6.095756103515625,0.00007635815563844517,0,0.0006872233934700489
1761132064189756000,6.105755859375,-0.0005345070967450738,0,-0.0005345070967450738
1761132064199756000,6.115756103515625,0.0012980886967852712,0.001832595793530345,0.00007635815563844517
1761132064209756000,6.125755859375,0.0006872233934700489,0,-0.0005345070967450738
1761132064219755500,6.135755615234375,0.00007635815563844517,0,-0.0011453722836449742
1761132064229755400,6.14575537109375,-0.0005345070967450738,-0.0006108652451075613,0.00007635815563844517
1761132064239755300,6.15575537109375,0.00007635815563844517,-0.0006108652451075613,0.0006872233934700489
1761132064249755400,6.16575537109375,0.0006872233934700489,0,-0.0005345070967450738
1761132064259755300,6.17575537109375,0.0006872233934700489,0,0.00007635815563844517
1761132064269755400,6.18575537109375,-0.0005345070967450738,0.0012217304902151227,0.00007635815563844517
1761132064279755300,6.19575537109375,0.0006872233934700489,0,0.00007635815563844517
1761132064289755400,6.20575537109375,0.0006872233934700489,-0.0006108652451075613,0.00007635815563844517
1761132064299755300,6.21575537109375,-0.0005345070967450738,0,0.0006872233934700489
1761132064309755400,6.22575537109375,0.0006872233934700489,0,0.0006872233934700489
1761132064319756300,6.23575634765625,0.0006872233934700489,-0.0006108652451075613,0.00007635815563844517
1761132064329756200,6.245756103515625,0.0012980886967852712,0.0006108652451075613,0.0006872233934700489
1761132064339756300,6.25575634765625,-0.0005345070967450738,0,0.00007635815563844517
1761132064349756200,6.265756103515625,-0.0011453722836449742,-0.0006108652451075613,0.0012980886967852712
1761132064359756300,6.27575634765625,0.00007635815563844517,0,0.0006872233934700489
1761132064369756200,6.285756103515625,0.0012980886967852712,-0.0006108652451075613,0.0006872233934700489
1761132064379756300,6.29575634765625,0.00007635815563844517,0,0.0006872233934700489
1761132064389756200,6.305756103515625,0.00007635815563844517,0,0.0006872233934700489
1761132064399756300,6.31575634765625,0.00007635815563844517,-0.0006108652451075613,0.0012980886967852712
1761132064409756200,6.325756103515625,0.00007635815563844517,-0.0006108652451075613,0.00007635815563844517
1761132064419755300,6.33575537109375,0.00007635815563844517,-0.0012217304902151227,0.0006872233934700489
1761132064429755400,6.34575537109375,0.0012980886967852712,0,0.0006872233934700489
1761132064439755300,6.35575537109375,0.0006872233934700489,0,0.00007635815563844517
1761132064449755400,6.36575537109375,0.0012980886967852712,0,-0.0005345070967450738
1761132064459755300,6.37575537109375,0.0006872233934700489,0,0.00007635815563844517
1761132064469755400,6.38575537109375,0.0006872233934700489,0,0.00007635815563844517
1761132064479755300,6.39575537109375,0.00007635815563844517,0,0.00007635815563844517
1761132064489755400,6.40575537109375,0.0006872233934700489,0.0006108652451075613,0.0006872233934700489
1761132064499755300,6.41575537109375,-0.0005345070967450738,0.0006108652451075613,0.0012980886967852712
1761132064509755400,6.42575537109375,0.0006872233934700489,0,0.0006872233934700489
1761132064519755800,6.435755859375,0.0006872233934700489,0,0.00007635815563844517
1761132064529756000,6.445755859375,0.0006872233934700489,-0.001832595793530345,-0.0005345070967450738
1761132064539755800,6.455755859375,-0.0005345070967450738,-0.0006108652451075613,0.0012980886967852712
1761132064549756000,6.465755859375,0.0006872233934700489,-0.0006108652451075613,0.0006872233934700489
1761132064559755800,6.475755859375,0.00007635815563844517,-0.0006108652451075613,0.00007635815563844517
1761132064569756000,6.485755859375,0.00007635815563844517,-0.0006108652451075613,0.0012980886967852712
1761132064579756000,6.495756103515625,0.00007635815563844517,-0.0006108652451075613,-0.0005345070967450738
1761132064589756000,6.505755859375,0.0006872233934700489,-0.0012217304902151227,-0.0005345070967450738
1761132064599755800,6.515755859375,-0.0005345070967450738,0.0006108652451075613,0.0006872233934700489
1761132064609756000,6.525755859375,0.00007635815563844517,-0.0006108652451075613,-0.0005345070967450738
1761132064619755300,6.53575537109375,0.0012980886967852712,0,0.0006872233934700489
1761132064629755400,6.54575537109375,0.0012980886967852712,-0.0006108652451075613,0.00007635815563844517
1761132064639755300,6.55575537109375,0.0006872233934700489,0,-0.0005345070967450738
1761132064649755400,6.56575537109375,0.0006872233934700489,0.0006108652451075613,-0.0005345070967450738
1761132064659755300,6.57575537109375,0.00007635815563844517,0,-0.0011453722836449742
1761132064669755400,6.58575537109375,-0.0005345070967450738,0,-0.0005345070967450738
1761132064679755300,6.59575537109375,-0.0011453722836449742,0.0006108652451075613,0.00007635815563844517
1761132064689755400,6.60575537109375,0.0006872233934700489,0.0006108652451075613,0.00007635815563844517
1761132064699755300,6.61575537109375,0.00007635815563844517,0.0012217304902151227,-0.0011453722836449742
1761132064709755400,6.62575537109375,0.00007635815563844517,-0.0006108652451075613,-0.0005345070967450738
1761132064719756300,6.63575634765625,-0.0005345070967450738,-0.0006108652451075613,-0.0005345070967450738
1761132064729756200,6.645756103515625,0.0006872233934700489,0,0.00007635815563844517
1761132064739756300,6.65575634765625,0.00007635815563844517,0.0012217304902151227,-0.0005345070967450738
1761132064749756200,6.665756103515625,0.0006872233934700489,0,-0.0011453722836449742
1761132064759756300,6.67575634765625,0.0006872233934700489,0,0.00007635815563844517
1761132064769756200,6.685756103515625,-0.0005345070967450738,0.0006108652451075613,-0.0011453722836449742
1761132064779756300,6.69575634765625,-0.0005345070967450738,0.001832595793530345,-0.0005345070967450738
1761132064789756400,6.70575634765625,0.0006872233934700489,-0.0006108652451075613,0.0006872233934700489
1761132064799756300,6.71575634765625,0.00007635815563844517,0,0.0006872233934700489
1761132064809756400,6.72575634765625,-0.0005345070967450738,0,0.0006872233934700489
1761132064819755500,6.735755615234375,-0.0005345070967450738,-0.0006108652451075613,0.0006872233934700489
1761132064829755400,6.74575537109375,0.0012980886967852712,0.0006108652451075613,0.0006872233934700489
1761132064839755500,6.755755615234375,-0.0005345070967450738,0,0.0012980886967852712
1761132064849755400,6.76575537109375,0.00007635815563844517,0.0006108652451075613,0.00007635815563844517
1761132064859755500,6.775755615234375,0.0006872233934700489,0,-0.0005345070967450738
1761132064869755400,6.78575537109375,0.0019089538836851716,0,-0.0005345070967450738
1761132064879755300,6.79575537109375,0.0006872233934700489,0.0006108652451075613,-0.0005345070967450738
1761132064889755400,6.80575537109375,0.00007635815563844517,-0.0006108652451075613,-0.0005345070967450738
1761132064899755300,6.81575537109375,0.0012980886967852712,-0.0006108652451075613,-0.0005345070967450738
1761132064909755400,6.82575537109375,0.00007635815563844517,0,-0.0005345070967450738
1761132064919755800,6.835755859375,-0.0005345070967450738,0,0.00007635815563844517
1761132064929756000,6.845755859375,0.00007635815563844517,-0.0012217304902151227,-0.0005345070967450738
1761132064939755800,6.855755859375,0.0006872233934700489,0.0006108652451075613,-0.0005345070967450738
1761132064949756000,6.865755859375,0.00007635815563844517,-0.0012217304902151227,-0.0005345070967450738
1761132064959755800,6.875755859375,-0.0011453722836449742,0,-0.0005345070967450738
1761132064969756000,6.885755859375,-0.0005345070967450738,-0.0006108652451075613,-0.0011453722836449742
1761132064979756000,6.895756103515625,0.00007635815563844517,0,0.0012980886967852712
1761132064989756000,6.905755859375,-0.0017562375869601965,-0.0006108652451075613,-0.0005345070967450738
1761132064999756000,6.915756103515625,0.0006872233934700489,0,0.00007635815563844517
1761132065009756000,6.925755859375,0.00007635815563844517,-0.0006108652451075613,-0.0011453722836449742
1761132065019755000,6.935755126953125,0.0006872233934700489,-0.0006108652451075613,0.00007635815563844517
1761132065029755100,6.945755126953125,0.00007635815563844517,0.0012217304902151227,0.0006872233934700489
1761132065039755000,6.955755126953125,0.0012980886967852712,0,0.0006872233934700489
1761132065049755100,6.965755126953125,0.00007635815563844517,0,-0.0005345070967450738
1761132065059755000,6.975755126953125,0.0006872233934700489,-0.0006108652451075613,0.0006872233934700489
1761132065069755100,6.985755126953125,0.00007635815563844517,0.0012217304902151227,0.0006872233934700489
1761132065079755000,6.995755126953125,0.00007635815563844517,0,0.00007635815563844517
1761132065089755100,7.005755126953125,0.0006872233934700489,-0.0006108652451075613,0.00007635815563844517
1761132065099755000,7.015755126953125,-0.0005345070967450738,-0.0006108652451075613,0.00007635815563844517
1761132065109755100,7.025755126953125,0.00007635815563844517,0.0006108652451075613,-0.0005345070967450738
1761132065119755800,7.035755859375,-0.0005345070967450738,0.0006108652451075613,0.00007635815563844517
1761132065129756000,7.045755859375,0.0006872233934700489,0,0.00007635815563844517
1761132065139756000,7.055756103515625,0.0006872233934700489,0.0006108652451075613,0.00007635815563844517
1761132065149756000,7.065755859375,0.0012980886967852712,0.0006108652451075613,0.0006872233934700489
1761132065159756000,7.075756103515625,0.0012980886967852712,0.0006108652451075613,-0.0005345070967450738
1761132065169756000,7.085755859375,-0.0005345070967450738,0,0.0006872233934700489
1761132065179756000,7.095756103515625,0.0006872233934700489,0.0012217304902151227,0.00007635815563844517
1761132065189756000,7.105755859375,0.0006872233934700489,-0.0006108652451075613,0.00007635815563844517
1761132065199756000,7.115756103515625,0.00007635815563844517,-0.0006108652451075613,-0.0005345070967450738
1761132065209756000,7.125755859375,0.0019089538836851716,0,0.00007635815563844517
1761132065219755000,7.135755126953125,0.00007635815563844517,-0.0006108652451075613,0.00007635815563844517
1761132065229755100,7.145755126953125,0.00007635815563844517,-0.0006108652451075613,0.00007635815563844517
1761132065239755000,7.155755126953125,-0.0005345070967450738,0,0.00007635815563844517
1761132065249755100,7.165755126953125,-0.0011453722836449742,0,0.0006872233934700489
1761132065259755000,7.175755126953125,-0.0005345070967450738,0,-0.0005345070967450738
1761132065269755100,7.185755126953125,0.00007635815563844517,0,-0.0005345070967450738
1761132065279755000,7.195755126953125,0.0006872233934700489,-0.0012217304902151227,-0.0005345070967450738
1761132065289755100,7.205755126953125,0.00007635815563844517,0,0.0006872233934700489
1761132065299755000,7.215755126953125,-0.0005345070967450738,-0.0012217304902151227,0.0006872233934700489
1761132065309755100,7.225755126953125,-0.0005345070967450738,-0.0012217304902151227,0.00007635815563844517
1761132065319756000,7.235756103515625,0.00007635815563844517,0,-0.0005345070967450738
1761132065329756000,7.245755859375,0.00007635815563844517,0,0.0006872233934700489
1761132065339755800,7.255755859375,-0.0005345070967450738,-0.0006108652451075613,-0.0011453722836449742
1761132065349756000,7.265755859375,0.00007635815563844517,0,0.00007635815563844517
1761132065359755800,7.275755859375,-0.0005345070967450738,-0.0006108652451075613,0.0006872233934700489
1761132065369756000,7.285755859375,0.00007635815563844517,-0.0006108652451075613,0.00007635815563844517
1761132065379755800,7.295755859375,-0.0005345070967450738,0,0.0006872233934700489
1761132065389756000,7.305755859375,0.00007635815563844517,-0.0012217304902151227,-0.0005345070967450738
1761132065399755800,7.315755859375,-0.0005345070967450738,-0.0006108652451075613,0.00007635815563844517
1761132065409756000,7.325755859375,0.0006872233934700489,-0.0006108652451075613,0.0006872233934700489
1761132065419755000,7.335755126953125,0.00007635815563844517,-0.0006108652451075613,-0.0005345070967450738
1761132065429755100,7.345755126953125,0.00007635815563844517,0.0006108652451075613,0.00007635815563844517
1761132065439755000,7.355755126953125,0.0012980886967852712,-0.0006108652451075613,0.0006872233934700489
1761132065449755000,7.3657548828125,0.0012980886967852712,0,0.0006872233934700489
1761132065459755000,7.375755126953125,-0.0011453722836449742,-0.0006108652451075613,0.00007635815563844517
1761132065469755000,7.3857548828125,-0.0005345070967450738,0.0006108652451075613,0.0012980886967852712
1761132065479755000,7.395755126953125,0.00007635815563844517,0,0.0006872233934700489
1761132065489755000,7.4057548828125,0.00007635815563844517,-0.0006108652451075613,0.00007635815563844517
1761132065499755000,7.415755126953125,0.0006872233934700489,0,0.0012980886967852712
1761132065509755000,7.4257548828125,0.00007635815563844517,0.0006108652451075613,0.0006872233934700489
1761132065519755800,7.435755859375,-0.0005345070967450738,0.0006108652451075613,0.0012980886967852712
1761132065529756000,7.445755859375,-0.0005345070967450738,-0.0006108652451075613,-0.0005345070967450738
1761132065539755800,7.455755859375,0.0006872233934700489,-0.0006108652451075613,-0.0005345070967450738
1761132065549756000,7.465755859375,0.00007635815563844517,0.0012217304902151227,-0.0005345070967450738
1761132065559755800,7.475755859375,0.0006872233934700489,0,-0.0005345070967450738
1761132065569756000,7.485755859375,0.0006872233934700489,0,-0.0005345070967450738
1761132065579756000,7.495756103515625,0.0012980886967852712,0.0006108652451075613,-0.0005345070967450738
1761132065589756000,7.505755859375,0.00007635815563844517,0.0006108652451075613,0.00007635815563844517
1761132065599755800,7.515755859375,0.0006872233934700489,0.0006108652451075613,-0.0011453722836449742
1761132065609756000,7.525755859375,-0.0005345070967450738,-0.0012217304902151227,-0.0011453722836449742
1761132065619755000,7.535755126953125,-0.0005345070967450738,0.0006108652451075613,0.00007635815563844517
1761132065629755100,7.545755126953125,0.00007635815563844517,0,0.00007635815563844517
1761132065639755000,7.555755126953125,0.00007635815563844517,0,-0.0005345070967450738
1761132065649755100,7.565755126953125,0.0006872233934700489,0.0012217304902151227,0.0012980886967852712
1761132065659755000,7.575755126953125,0.0012980886967852712,0.0006108652451075613,0.0006872233934700489
1761132065669755100,7.585755126953125,0.0006872233934700489,0,-0.0005345070967450738
1761132065679755000,7.595755126953125,0.00007635815563844517,-0.001832595793530345,-0.0005345070967450738
1761132065689755100,7.605755126953125,0.0012980886967852712,-0.0012217304902151227,0.00007635815563844517
1761132065699755000,7.615755126953125,0.00007635815563844517,-0.0012217304902151227,0.00007635815563844517
1761132065709755100,7.625755126953125,-0.0011453722836449742,0,0.0012980886967852712
1761132065719756000,7.635756103515625,0.0006872233934700489,0,-0.0005345070967450738
1761132065729756000,7.645755859375,0.0006872233934700489,0,-0.0005345070967450738
1761132065739756000,7.655756103515625,0.00007635815563844517,0,0.00007635815563844517
1761132065749756000,7.665755859375,-0.0005345070967450738,0.0006108652451075613,0.00007635815563844517
1761132065759756000,7.675756103515625,0.00007635815563844517,0.0006108652451075613,0.0006872233934700489
1761132065769756000,7.685755859375,0.00007635815563844517,0.0006108652451075613,0.0006872233934700489
1761132065779756000,7.695756103515625,0.0006872233934700489,-0.0012217304902151227,0.00007635815563844517
1761132065789756000,7.705755859375,0.00007635815563844517,0.0012217304902151227,0.00007635815563844517
1761132065799756000,7.715756103515625,0.0006872233934700489,0,-0.0017562375869601965
1761132065809756000,7.725755859375,0.0006872233934700489,0,0.0006872233934700489
1761132065819755000,7.735755126953125,0.00007635815563844517,-0.0006108652451075613,0.00007635815563844517
1761132065829755100,7.745755126953125,0.00007635815563844517,0,-0.0017562375869601965
1761132065839755000,7.755755126953125,0.00007635815563844517,0,-0.0005345070967450738
1761132065849755100,7.765755126953125,0.0006872233934700489,0.001832595793530345,0.00007635815563844517
1761132065859755000,7.775755126953125,-0.0017562375869601965,0,0.0006872233934700489
1761132065869755100,7.785755126953125,0.00007635815563844517,0,-0.0011453722836449742
1761132065879755000,7.795755126953125,0.00007635815563844517,0,0.0006872233934700489
1761132065889755000,7.8057548828125,0.0006872233934700489,0.0006108652451075613,0.00007635815563844517
1761132065899755000,7.815755126953125,0.00007635815563844517,-0.0006108652451075613,0.00007635815563844517
1761132065909755000,7.8257548828125,0.0019089538836851716,0.0006108652451075613,0.0006872233934700489
1761132065919755800,7.835755859375,0.0006872233934700489,-0.0006108652451075613,-0.0011453722836449742
1761132065929756000,7.845755859375,0.00007635815563844517,-0.0006108652451075613,-0.0011453722836449742
1761132065939755800,7.855755859375,0.00007635815563844517,-0.0012217304902151227,-0.0011453722836449742
1761132065949756000,7.865755859375,0.0012980886967852712,0,0.00007635815563844517
1761132065959755800,7.875755859375,0.0012980886967852712,-0.0012217304902151227,0.00007635815563844517
1761132065969756000,7.885755859375,0.00007635815563844517,0.0006108652451075613,0.0006872233934700489
1761132065979756000,7.895756103515625,0.00007635815563844517,0,-0.0005345070967450738
1761132065989756000,7.905755859375,-0.0005345070967450738,0.0006108652451075613,-0.0005345070967450738
1761132065999756000,7.915756103515625,0.00007635815563844517,0,-0.0005345070967450738
1761132066009756000,7.925755859375,-0.0005345070967450738,-0.0006108652451075613,-0.0017562375869601965
1761132066019755000,7.935755126953125,0.0012980886967852712,0,-0.0017562375869601965
1761132066029755100,7.945755126953125,0.00007635815563844517,-0.0012217304902151227,0.00007635815563844517
1761132066039755000,7.955755126953125,0.0019089538836851716,-0.0006108652451075613,-0.0005345070967450738
1761132066049755100,7.965755126953125,0.0019089538836851716,0.0012217304902151227,0.0006872233934700489
1761132066059755000,7.975755126953125,0.00007635815563844517,0.0006108652451075613,-0.0005345070967450738
1761132066069755100,7.985755126953125,0.0012980886967852712,-0.0006108652451075613,-0.0005345070967450738
1761132066079755000,7.995755126953125,-0.0005345070967450738,-0.0012217304902151227,-0.0005345070967450738
1761132066089755100,8.005755126953124,0.00007635815563844517,-0.0012217304902151227,-0.0005345070967450738
1761132066099755000,8.015755126953126,0.0006872233934700489,-0.0012217304902151227,-0.0005345070967450738
1761132066109755100,8.025755126953126,0.00007635815563844517,0.0006108652451075613,0.00007635815563844517
1761132066119755800,8.035755859375,-0.0005345070967450738,0.0006108652451075613,0.0006872233934700489
1761132066129756000,8.045755859375,-0.0005345070967450738,0.0006108652451075613,0.00007635815563844517
1761132066139756000,8.055756103515625,0.0006872233934700489,0,0.00007635815563844517
1761132066149756000,8.065755859375,0.00007635815563844517,-0.0012217304902151227,-0.0011453722836449742
1761132066159756000,8.075756103515625,0.0012980886967852712,0,0.0006872233934700489
1761132066169756000,8.085755859375,0.0012980886967852712,0.0006108652451075613,0.0006872233934700489
1761132066179756000,8.095756103515624,-0.0005345070967450738,0.0006108652451075613,0.0006872233934700489
1761132066189756000,8.105755859375,-0.0011453722836449742,0,-0.0005345070967450738
1761132066199756000,8.115756103515626,0.00007635815563844517,-0.0006108652451075613,-0.0005345070967450738
1761132066209756000,8.125755859375,0.00007635815563844517,-0.0006108652451075613,0.00007635815563844517
1761132066219755000,8.135755126953125,0.0006872233934700489,0,0.00007635815563844517
1761132066229755100,8.145755126953125,0.0012980886967852712,-0.0006108652451075613,0.0006872233934700489
1761132066239755000,8.155755126953125,-0.0005345070967450738,0.0012217304902151227,0.00007635815563844517
1761132066249755100,8.165755126953124,0.0006872233934700489,0,0.00007635815563844517
1761132066259755000,8.175755126953124,-0.0011453722836449742,0,-0.0011453722836449742
1761132066269755100,8.185755126953126,0.0012980886967852712,0,-0.0005345070967450738
1761132066279755000,8.195755126953125,0.00007635815563844517,0,-0.0005345070967450738
1761132066289755100,8.205755126953125,-0.0005345070967450738,-0.0006108652451075613,-0.0011453722836449742
1761132066299755000,8.215755126953125,-0.0005345070967450738,0,0.0012980886967852712
1761132066309755100,8.225755126953125,-0.0005345070967450738,-0.0006108652451075613,0.0006872233934700489
1761132066319755800,8.235755859375,0.00007635815563844517,-0.0006108652451075613,0.00007635815563844517
1761132066329756000,8.245755859375,0.00007635815563844517,0,0.0006872233934700489
1761132066339755800,8.255755859375,0.0012980886967852712,-0.0012217304902151227,-0.0011453722836449742
1761132066349756000,8.265755859375,0.0006872233934700489,0,0.0006872233934700489
1761132066359755800,8.275755859375,-0.0005345070967450738,0,0.0006872233934700489
1761132066369756000,8.285755859375,0.0012980886967852712,0,0.0012980886967852712
1761132066379755800,8.295755859375,0.0012980886967852712,0.0006108652451075613,0.0012980886967852712
1761132066389756000,8.305755859375,-0.0005345070967450738,0.0006108652451075613,-0.0005345070967450738
1761132066399755800,8.315755859375,0.0006872233934700489,-0.0006108652451075613,0.0006872233934700489
1761132066409756000,8.325755859375,0.00007635815563844517,-0.0006108652451075613,-0.0005345070967450738
1761132066419755000,8.335755126953124,0.00007635815563844517,0,0.00007635815563844517
1761132066429755100,8.345755126953126,-0.0005345070967450738,0,0.00007635815563844517
1761132066439755000,8.355755126953126,-0.0005345070967450738,-0.0006108652451075613,0.00007635815563844517
1761132066449755000,8.3657548828125,0.00007635815563844517,0.0006108652451075613,0.0006872233934700489
1761132066459755000,8.375755126953125,0.0006872233934700489,0.0012217304902151227,0.00007635815563844517
1761132066469755000,8.3857548828125,0.0006872233934700489,0,0.00007635815563844517
1761132066479755000,8.395755126953125,0.0012980886967852712,0,-0.0017562375869601965
1761132066489755100,8.405755126953125,0.0006872233934700489,0,0.00007635815563844517
1761132066499755000,8.415755126953124,0.00007635815563844517,-0.0006108652451075613,0.0006872233934700489
1761132066509755100,8.425755126953124,0.0012980886967852712,0,0.00007635815563844517
1761132066519755800,8.435755859375,-0.0005345070967450738,0.0006108652451075613,0.00007635815563844517
1761132066529756000,8.445755859375,0.00007635815563844517,0.0006108652451075613,0.0006872233934700489
1761132066539756000,8.455756103515625,0.00007635815563844517,-0.0012217304902151227,-0.0011453722836449742
1761132066549756000,8.465755859375,0.00007635815563844517,0,-0.0011453722836449742
1761132066559756000,8.475756103515625,0.0012980886967852712,-0.0006108652451075613,0.0006872233934700489
1761132066569756000,8.485755859375,0.00007635815563844517,-0.0006108652451075613,-0.0005345070967450738
1761132066579756000,8.495756103515625,-0.0005345070967450738,-0.0012217304902151227,0.0006872233934700489
1761132066589756000,8.505755859375,0.00007635815563844517,0.0006108652451075613,0.0006872233934700489
1761132066599756000,8.515756103515624,0.00007635815563844517,0.0006108652451075613,0.00007635815563844517
1761132066609756000,8.525755859375,0.0012980886967852712,0,0.00007635815563844517
1761132066619755000,8.535755126953125,-0.0005345070967450738,0,-0.0005345070967450738
1761132066629755100,8.545755126953125,-0.0011453722836449742,0,-0.0005345070967450738
1761132066639755000,8.555755126953125,0.0012980886967852712,0,0.00007635815563844517
1761132066649755100,8.565755126953125,-0.0011453722836449742,0,0.00007635815563844517
1761132066659755000,8.575755126953124,0.00007635815563844517,0,0.00007635815563844517
1761132066669755100,8.585755126953124,0.00007635815563844517,0.0006108652451075613,-0.0005345070967450738
1761132066679755000,8.595755126953126,0.0006872233934700489,0.0006108652451075613,-0.0011453722836449742
1761132066689755100,8.605755126953126,0.00007635815563844517,0.0006108652451075613,0.0006872233934700489
1761132066699755000,8.615755126953125,0.0012980886967852712,0,0.0012980886967852712
1761132066709755100,8.625755126953125,0.00007635815563844517,-0.0006108652451075613,0.00007635815563844517
1761132066719756000,8.635756103515625,0.0006872233934700489,0,0.00007635815563844517
1761132066729756000,8.645755859375,0.0006872233934700489,0,0.00007635815563844517
1761132066739756000,8.655756103515625,-0.0005345070967450738,0,-0.0005345070967450738
1761132066749756000,8.665755859375,0.00007635815563844517,-0.0006108652451075613,-0.0005345070967450738
1761132066759756000,8.675756103515624,0.00007635815563844517,-0.0006108652451075613,0.0006872233934700489
1761132066769756000,8.685755859375,0.0006872233934700489,0,0.0006872233934700489
1761132066779756000,8.695756103515626,-0.0005345070967450738,0,0.00007635815563844517
1761132066789756000,8.705755859375,0.00007635815563844517,0.0006108652451075613,0.00007635815563844517
1761132066799756000,8.715756103515625,-0.0011453722836449742,0,-0.0005345070967450738
1761132066809756000,8.725755859375,0.0006872233934700489,0.0006108652451075613,-0.0011453722836449742
1761132066819755000,8.735755126953125,-0.0005345070967450738,-0.0012217304902151227,0.00007635815563844517
1761132066829755100,8.745755126953124,0.00007635815563844517,0,0.0006872233934700489
1761132066839755000,8.755755126953124,0.0006872233934700489,0,0.0006872233934700489
1761132066849755100,8.765755126953126,0.00007635815563844517,0.0006108652451075613,0.00007635815563844517
1761132066859755000,8.775755126953126,0.0006872233934700489,0.001832595793530345,0.00007635815563844517
1761132066869755100,8.785755126953125,-0.0005345070967450738,-0.0006108652451075613,0.00007635815563844517
1761132066879755000,8.795755126953125,0.00007635815563844517,-0.0006108652451075613,-0.0005345070967450738
1761132066889755100,8.805755126953125,0.0006872233934700489,-0.0006108652451075613,0.0006872233934700489
1761132066899755000,8.815755126953125,-0.0005345070967450738,0,0.0006872233934700489
1761132066909755100,8.825755126953124,-0.0005345070967450738,0.0012217304902151227,0.00007635815563844517
1761132066919755800,8.835755859375,-0.0005345070967450738,0,0.00007635815563844517
1761132066929756000,8.845755859375,0.00007635815563844517,0.0006108652451075613,-0.0005345070967450738
1761132066939755800,8.855755859375,0.0012980886967852712,0,0.00007635815563844517
1761132066949756000,8.865755859375,0.00007635815563844517,0,-0.0005345070967450738
1761132066959755800,8.875755859375,0.00007635815563844517,0.0006108652451075613,0.00007635815563844517
1761132066969756000,8.885755859375,0.00007635815563844517,0,0.00007635815563844517
1761132066979756000,8.895756103515625,0.00007635815563844517,0,0.00007635815563844517
1761132066989756000,8.905755859375,0.0006872233934700489,0,0.00007635815563844517
1761132066999755800,8.915755859375,-0.0011453722836449742,0,-0.0005345070967450738
1761132067009756000,8.925755859375,0.0012980886967852712,-0.0006108652451075613,-0.0011453722836449742
1761132067019755000,8.935755126953126,0.00007635815563844517,-0.0006108652451075613,-0.0005345070967450738
1761132067029755100,8.945755126953125,0.0006872233934700489,-0.0006108652451075613,0.0006872233934700489
1761132067039755000,8.955755126953125,0.00007635815563844517,0.0006108652451075613,0.00007635815563844517
1761132067049755100,8.965755126953125,0.00007635815563844517,0,0.0006872233934700489
1761132067059755000,8.975755126953125,0.00007635815563844517,0,0.0006872233934700489
1761132067069755000,8.9857548828125,0.0006872233934700489,0,-0.0005345070967450738
1761132067079755000,8.995755126953124,0.00007635815563844517,0,0.0006872233934700489
1761132067089755000,9.0057548828125,0.00007635815563844517,0.0006108652451075613,0.00007635815563844517
1761132067099755000,9.015755126953126,-0.0005345070967450738,-0.0006108652451075613,0.0006872233934700489
1761132067109755000,9.0257548828125,0.0019089538836851716,0,0.00007635815563844517
1761132067119755800,9.035755859375,-0.0005345070967450738,0,0.0006872233934700489
1761132067129756000,9.045755859375,0.0012980886967852712,0,0.00007635815563844517
1761132067139755800,9.055755859375,-0.0005345070967450738,-0.0012217304902151227,-0.0011453722836449742
1761132067149756000,9.065755859375,0.00007635815563844517,-0.0006108652451075613,-0.0005345070967450738
1761132067159755800,9.075755859375,0.00007635815563844517,-0.0006108652451075613,0.00007635815563844517
1761132067169756000,9.085755859375,-0.0005345070967450738,0,0.0006872233934700489
1761132067179755800,9.095755859375,0.00007635815563844517,0,0.0006872233934700489
1761132067189756000,9.105755859375,0.0006872233934700489,0.0006108652451075613,-0.0005345070967450738
1761132067199755800,9.115755859375,0.00007635815563844517,0,0.00007635815563844517
1761132067209756000,9.125755859375,0.0012980886967852712,-0.0006108652451075613,-0.0005345070967450738
1761132067219755000,9.135755126953125,0.00007635815563844517,-0.0012217304902151227,-0.0005345070967450738
1761132067229755000,9.1457548828125,0.00007635815563844517,0.0006108652451075613,-0.0005345070967450738
1761132067239755000,9.155755126953125,0.0006872233934700489,-0.0006108652451075613,0.0012980886967852712
1761132067249755000,9.1657548828125,0.00007635815563844517,0.0006108652451075613,-0.0005345070967450738
1761132067259755000,9.175755126953124,-0.0011453722836449742,-0.0006108652451075613,-0.0005345070967450738
1761132067269755000,9.1857548828125,-0.0017562375869601965,-0.0006108652451075613,-0.0017562375869601965
1761132067279755000,9.195755126953125,0.0012980886967852712,0,-0.0011453722836449742
1761132067289755000,9.2057548828125,-0.0005345070967450738,-0.0006108652451075613,0.0006872233934700489
1761132067299755000,9.215755126953125,0.00007635815563844517,-0.0006108652451075613,-0.0005345070967450738
1761132067309755000,9.2257548828125,-0.0005345070967450738,0.0006108652451075613,0.00007635815563844517
1761132067319755800,9.235755859375,-0.0005345070967450738,0.0012217304902151227,0.0006872233934700489
1761132067329756000,9.245755859375,-0.0005345070967450738,0,0.00007635815563844517
1761132067339755800,9.255755859375,0.0006872233934700489,-0.0006108652451075613,0.00007635815563844517
1761132067349756000,9.265755859375,0.0012980886967852712,-0.0006108652451075613,0.00007635815563844517
1761132067359755800,9.275755859375,0.00007635815563844517,0.0006108652451075613,0.0006872233934700489
1761132067369756000,9.285755859375,-0.0005345070967450738,0.0006108652451075613,-0.0005345070967450738
1761132067379755800,9.295755859375,0.00007635815563844517,0.0006108652451075613,0.00007635815563844517
1761132067389756000,9.305755859375,-0.0005345070967450738,0.0006108652451075613,-0.0005345070967450738
1761132067399755800,9.315755859375,0.0006872233934700489,0,0.00007635815563844517
1761132067409756000,9.325755859375,0.0012980886967852712,0,-0.0005345070967450738
1761132067419755000,9.335755126953124,0.00007635815563844517,-0.0012217304902151227,-0.0005345070967450738
1761132067429755100,9.345755126953126,0.00007635815563844517,-0.0006108652451075613,0.00007635815563844517
1761132067439755000,9.355755126953126,0.00007635815563844517,0,0.00007635815563844517
1761132067449755100,9.365755126953125,0.0006872233934700489,0.001832595793530345,0.00007635815563844517
1761132067459755000,9.375755126953125,-0.0005345070967450738,-0.0006108652451075613,-0.0005345070967450738
1761132067469755100,9.385755126953125,0.0006872233934700489,0,0.00007635815563844517
1761132067479755000,9.395755126953125,-0.0005345070967450738,-0.0012217304902151227,0.00007635815563844517
1761132067489755100,9.405755126953125,0.0006872233934700489,-0.0006108652451075613,0.00007635815563844517
1761132067499755000,9.415755126953124,0.00007635815563844517,-0.0012217304902151227,0.0006872233934700489
1761132067509755100,9.425755126953124,-0.0005345070967450738,0,-0.0005345070967450738
1761132067519755800,9.435755859375,0.00007635815563844517,0.0006108652451075613,0.00007635815563844517
1761132067529756000,9.445755859375,0.00007635815563844517,0,-0.0005345070967450738
1761132067539756000,9.455756103515625,-0.0011453722836449742,-0.0006108652451075613,0.00007635815563844517
1761132067549756000,9.465755859375,0.0006872233934700489,-0.0006108652451075613,-0.0017562375869601965
1761132067559756000,9.475756103515625,-0.0011453722836449742,0.0012217304902151227,-0.0011453722836449742
1761132067569756000,9.485755859375,0.00007635815563844517,0.0006108652451075613,0.0006872233934700489
1761132067579756000,9.495756103515625,0.0006872233934700489,0,0.0012980886967852712
1761132067589756000,9.505755859375,0.00007635815563844517,0.0006108652451075613,-0.0011453722836449742
1761132067599755800,9.515755859375,0.0006872233934700489,0.0006108652451075613,-0.0005345070967450738
1761132067609756000,9.525755859375,-0.0005345070967450738,0,-0.0005345070967450738
1761132067619755000,9.535755126953125,-0.0005345070967450738,-0.0006108652451075613,0.00007635815563844517
1761132067629755100,9.545755126953125,0.0006872233934700489,0.0006108652451075613,0.0006872233934700489
1761132067639755000,9.555755126953125,0.00007635815563844517,0.0006108652451075613,0.0006872233934700489
1761132067649755100,9.565755126953125,0.00007635815563844517,0,0.00007635815563844517
1761132067659755000,9.575755126953124,-0.0005345070967450738,0.0006108652451075613,0.00007635815563844517
1761132067669755100,9.585755126953124,-0.0005345070967450738,0,0.00007635815563844517
1761132067679755000,9.595755126953126,0.0006872233934700489,-0.0012217304902151227,0.00007635815563844517
1761132067689755100,9.605755126953126,0.0006872233934700489,0,0.00007635815563844517
1761132067699755000,9.615755126953125,-0.0005345070967450738,-0.0006108652451075613,0.00007635815563844517
1761132067709755100,9.625755126953125,-0.0005345070967450738,0,0.00007635815563844517
1761132067719755800,9.635755859375,-0.0017562375869601965,0.0006108652451075613,-0.0005345070967450738
1761132067729756000,9.645755859375,0.0012980886967852712,0.0006108652451075613,-0.0005345070967450738
1761132067739755800,9.655755859375,0.0006872233934700489,-0.0012217304902151227,-0.0011453722836449742
1761132067749756000,9.665755859375,-0.0005345070967450738,0.0006108652451075613,0.0006872233934700489
1761132067759755800,9.675755859375,0.0006872233934700489,-0.0006108652451075613,-0.0005345070967450738
1761132067769756000,9.685755859375,-0.0011453722836449742,0,0.00007635815563844517
1761132067779756000,9.695756103515626,0.00007635815563844517,0.001832595793530345,0.0031306843739002943
1761132067789756000,9.705755859375,-0.0005345070967450738,0.012828170321881771,0.00557414535433054
1761132067799756000,9.715756103515625,0.0006872233934700489,-0.006108652334660292,-0.0011453722836449742
1761132067809756000,9.725755859375,0.0012980886967852712,-0.00855211354792118,-0.004810563754290342
1761132067819755000,9.735755126953125,-0.0005345070967450738,-0.006108652334660292,-0.004199698567390442
