time,seconds_elapsed,z,y,x
1761131469817803500,0.135803466796875,-1.043739676475525,-0.7057784199714661,0.382172554731369
1761131469847810000,0.16581005859375,-1.043739676475525,-0.7057784199714661,0.382172554731369
1761131469877802800,0.195802734375,-1.487838625907898,-0.6318637132644653,-0.102243572473526
1761131469887802600,0.205802734375,-1.5513685941696167,-0.5493969321250916,-0.11568260937929153
1761131469897802500,0.215802490234375,-1.6057356595993042,-0.48403435945510864,-0.11995866149663925
1761131469907802400,0.22580224609375,-1.6656004190444946,-0.4406629204750061,-0.1382846236228943
1761131469917802200,0.23580224609375,-1.691867709159851,-0.405843585729599,-0.1480584591627121
1761131469927802000,0.245802001953125,-1.6955327987670898,-0.3893502354621887,-0.15905404090881348
1761131469937802000,0.255802001953125,-1.6912567615509033,-0.4015675485134125,-0.16516269743442535
1761131469947801900,0.2658017578125,-1.6851481199264526,-0.425391286611557,-0.15661057829856873
1761131469957801700,0.2758017578125,-1.6827046871185303,-0.4608214795589447,-0.1431715488433838
1761131469967801900,0.2858017578125,-1.6967545747756958,-0.5078580975532532,-0.1370628923177719
1761131469977801700,0.2958017578125,-1.7272977828979492,-0.5665011405944824,-0.14072808623313904
1761131469987801600,0.305801513671875,-1.7749453783035278,-0.6233116388320923,-0.142560675740242
1761131469997801500,0.315801513671875,-1.849470853805542,-0.6666830778121948,-0.13584116101264954
1761131470007801600,0.325801513671875,-1.9313268661499023,-0.6862307190895081,-0.12851077318191528
1761131470017801500,0.335801513671875,-2.022956609725952,-0.6984480619430542,-0.13584116101264954
1761131470027801300,0.34580126953125,-2.0791561603546143,-0.7070001363754272,-0.1737148016691208
1761131470037801500,0.355801513671875,-2.123138427734375,-0.7198283076286316,-0.23663392663002014
1761131470047801300,0.36580126953125,-2.143296957015991,-0.7241044044494629,-0.3099377453327179
1761131470057801200,0.37580126953125,-2.1304688453674316,-0.7039458155632019,-0.3753003478050232
1761131470067800000,0.385800048828125,-2.1023690700531006,-0.6923394203186035,-0.4308890700340271
1761131470077800200,0.39580029296875,-2.075490951538086,-0.6782894730567932,-0.45837801694869995
1761131470087800000,0.405800048828125,-2.0461695194244385,-0.6330854892730713,-0.43211081624031067
1761131470097800000,0.415800048828125,-2.0467803478240967,-0.5933791995048523,-0.3862959146499634
1761131470107800000,0.425800048828125,-2.0467803478240967,-0.5524512529373169,-0.33315062522888184
1761131470117800000,0.435800048828125,-2.0492238998413086,-0.5316818356513977,-0.28672486543655396
1761131470127799800,0.4457998046875,-2.080988883972168,-0.5793293118476868,-0.2751184403896332
1761131470137800000,0.455800048828125,-2.0822105407714844,-0.5799401998519897,-0.2629011273384094
1761131470147799800,0.4657998046875,-2.050445556640625,-0.5970444083213806,-0.2696206569671631
1761131470157800000,0.475800048828125,-2.0101284980773926,-0.5738315582275391,-0.2696206569671631
1761131470167800800,0.48580078125,-1.986304759979248,-0.5512295365333557,-0.27084237337112427
1761131470177800700,0.49580078125,-1.9429333209991455,-0.47364965081214905,-0.25129470229148865
1761131470187800800,0.50580078125,-1.889788031578064,-0.42294782400131226,-0.2286926805973053
1761131470197800700,0.51580078125,-1.842751383781433,-0.4302782118320465,-0.20975585281848907
1761131470207800800,0.52580078125,-1.785330057144165,-0.46448665857315063,-0.18593211472034454
1761131470217800700,0.53580078125,-1.7242435216903687,-0.5182427763938904,-0.1584431678056717
1761131470227800800,0.54580078125,-1.659491777420044,-0.5658903121948242,-0.1321759670972824
1761131470237800700,0.55580078125,-1.5971835851669312,-0.5939900875091553,-0.10590875893831253
1761131470247800800,0.56580078125,-1.546481728553772,-0.6227007508277893,-0.09063713252544403
1761131470257800700,0.57580078125,-1.4939472675323486,-0.6514114141464233,-0.08636107295751572
1761131470267799800,0.5857998046875,-1.4634040594100952,-0.7070001363754272,-0.0973566472530365
1761131470277800000,0.595800048828125,-1.4414129257202148,-0.7088327407836914,-0.10590875893831253
1761131470287799800,0.6057998046875,-1.4481323957443237,-0.6947828531265259,-0.11385001242160797
1761131470297800000,0.615800048828125,-1.4664583206176758,-0.69661545753479,-0.13339769840240479
1761131470307799800,0.6257998046875,-1.4426345825195312,-0.6764569282531738,-0.15722143650054932
1761131470317800000,0.635800048828125,-1.3497830629348755,-0.6642395853996277,-0.19448421895503998
1761131470327799800,0.6457998046875,-1.298470377922058,-0.6990588903427124,-0.20425806939601898
1761131470337800000,0.655800048828125,-1.2734249830245972,-0.7143305540084839,-0.20120373368263245
1761131470347799800,0.6657998046875,-1.2599859237670898,-0.6898959279060364,-0.18898643553256989
1761131470357800000,0.675800048828125,-1.2496012449264526,-0.6508005857467651,-0.16516269743442535
1761131470367800800,0.68580078125,-1.2404382228851318,-0.6049856543540955,-0.12851077318191528
1761131470377800700,0.69580078125,-1.2221122980117798,-0.5652794241905212,-0.0771980956196785
1761131470387800800,0.70580078125,-1.20317542552948,-0.5426774024963379,-0.015500705689191818
1761131470397800700,0.71580078125,-1.1726322174072266,-0.5225188732147217,0.0492510087788105
1761131470407800800,0.72580078125,-1.1249847412109375,-0.48342347145080566,0.13660474121570587
1761131470417800700,0.73580078125,-1.0681742429733276,-0.43211081624031067,0.23923009634017944
1761131470427800800,0.74580078125,-1.0596221685409546,-0.3716351389884949,0.37545305490493774
1761131470437800700,0.75580078125,-1.0840567350387573,-0.2335795909166336,0.5690973401069641
1761131470457800700,0.77580078125,-1.2367730140686035,-0.09063713252544403,0.8635343909263611
1761131470467800000,0.785800048828125,-1.2935835123062134,-0.09857837855815887,0.8555931448936462
1761131470477800000,0.795800048828125,-1.3620004653930664,-0.21525363624095917,0.7175375819206238
1761131470487800000,0.805800048828125,-1.366276502609253,-0.41195225715637207,0.511676013469696
1761131470497800000,0.815800048828125,-1.2740358114242554,-0.6367506384849548,0.28932106494903564
1761131470507800000,0.825800048828125,-1.1579713821411133,-0.7241044044494629,0.10117455571889877
1761131470517800000,0.835800048828125,-1.0504591464996338,-0.630031168460846,-0.011224648915231228
1761131470527800000,0.845800048828125,-0.96799236536026,-0.3899610936641693,-0.06498079001903534
1761131470537800000,0.855800048828125,-0.93805992603302,-0.1688278764486313,-0.12056952714920044
1761131470547800000,0.865800048828125,-0.9563859105110168,0.018707748502492905,-0.17921258509159088
1761131470557800000,0.875800048828125,-1.0168615579605103,0.3168099820613861,-0.2439643144607544
1761131470567800800,0.88580078125,-1.0657308101654053,0.46525025367736816,-0.2677880525588989
1761131470577800700,0.89580078125,-1.1023826599121094,0.5855907201766968,-0.29588785767555237
1761131470587800800,0.90580078125,-1.1237629652023315,0.6314055919647217,-0.31299206614494324
1761131470597800700,0.91580078125,-1.1036044359207153,0.605749249458313,-0.30566170811653137
1761131470607800800,0.92580078125,-1.0675634145736694,0.5006804466247559,-0.2800053656101227
1761131470617800700,0.93580078125,-1.0028116703033447,0.39133554697036743,-0.21036672592163086
1761131470627800800,0.94580078125,-0.9148470759391785,0.25999951362609863,-0.1077413558959961
1761131470637800700,0.95580078125,-0.8763625621795654,0.03764457255601883,-0.002672535367310047
1761131470647800800,0.96580078125,-0.8543714284896851,-0.17982345819473267,0.0999528244137764
1761131470657800700,0.97580078125,-0.7987826466560364,-0.3203224539756775,0.19402606785297394
1761131470667799800,0.9857998046875,-0.7163158655166626,-0.37774381041526794,0.28015807271003723
1761131470677800000,0.995800048828125,-0.605749249458313,-0.3789655268192291,0.3516293168067932
1761131470687799800,1.0057998046875,-0.48113274574279785,-0.34170275926589966,0.3980550765991211
1761131470697800000,1.015800048828125,-0.37606391310691833,-0.36674821376800537,0.41515928506851196
1761131470707799800,1.0257998046875,-0.33513593673706055,-0.41745004057884216,0.4121049642562866
1761131470717800000,1.035800048828125,-0.2978731691837311,-0.38812851905822754,0.3992767930030823
1761131470727799800,1.0457998046875,-0.2459496259689331,-0.33803755044937134,0.37484219670295715
1761131470737800000,1.055800048828125,-0.22884538769721985,-0.31604641675949097,0.33391422033309937
1761131470747799800,1.0657998046875,-0.22945626080036163,-0.2793944776058197,0.2813797891139984
1761131470757800000,1.075800048828125,-0.20868684351444244,-0.22197316586971283,0.23861923813819885
1761131470767800600,1.085800537109375,-0.15737415850162506,-0.25557073950767517,0.21174116432666779
1761131470777800700,1.09580078125,-0.10911580175161362,-0.36308303475379944,0.19952386617660522
1761131470787800600,1.105800537109375,-0.05230533704161644,-0.5048037767410278,0.21479548513889313
1761131470797800700,1.11580078125,-0.02603813074529171,-0.667293906211853,0.22273674607276917
1761131470807800600,1.125800537109375,-0.035811975598335266,-0.7491498589515686,0.230677992105484
1761131470817800700,1.13580078125,-0.039477165788412094,-0.7302130460739136,0.22456933557987213
1761131470827800600,1.145800537109375,-0.029703322798013687,-0.6428593397140503,0.20379991829395294
1761131470837800700,1.15580078125,-0.008933904580771923,-0.44921502470970154,0.16470454633235931
1761131470847800600,1.165800537109375,-0.010766499675810337,-0.2690097689628601,0.10545061528682709
1761131470857800700,1.17580078125,-0.021762074902653694,-0.07658722996711731,0.0645226389169693
1761131470867799800,1.1857998046875,-0.029703322798013687,0.02848159149289131,0.06207918003201485
1761131470877800000,1.195800048828125,-0.0339793786406517,0.014431691728532314,0.08834638446569443
1761131470887799800,1.2057998046875,-0.03703370690345764,-0.06131559982895851,0.13660474121570587
1761131470897799700,1.215799560546875,-0.0290924571454525,-0.1419498175382614,0.20257818698883057
1761131470907799800,1.2257998046875,-0.011377365328371525,-0.20547980070114136,0.2777146100997925
1761131470917799700,1.235799560546875,0.005115996580570936,-0.2842814028263092,0.34490978717803955
1761131470927799800,1.2457998046875,0.028939740732312202,-0.36735907196998596,0.38033998012542725
1761131470937799700,1.255799560546875,0.04787656292319298,-0.4101196527481079,0.382172554731369
1761131470947799800,1.2657998046875,0.08452847599983215,-0.42355868220329285,0.3565162420272827
1761131470957800000,1.275800048828125,0.13339769840240479,-0.39362630248069763,0.3076470196247101
1761131470967800800,1.28580078125,0.1883755773305893,-0.3453679382801056,0.23373231291770935
1761131470977800700,1.29580078125,0.2384665161371231,-0.3245985209941864,0.13721559941768646
1761131470987800800,1.30580078125,0.2677880525588989,-0.283059686422348,0.0443640872836113
1761131470997801200,1.31580126953125,0.2683989107608795,-0.1932624876499176,-0.04604396969079971
1761131471007801300,1.32580126953125,0.24090997874736786,-0.07475463300943375,-0.14439326524734497
1761131471017801200,1.33580126953125,0.22258402407169342,0.05535966157913208,-0.31665727496147156
1761131471027801300,1.34580126953125,0.22563834488391876,0.10422888398170471,-0.425391286611557
1761131471037801200,1.35580126953125,0.23968824744224548,0.04558581858873367,-0.5176319479942322
1761131471047801300,1.36580126953125,0.26106852293014526,-0.012446379289031029,-0.5665011405944824
1761131471057801200,1.37580126953125,0.24579690396785736,0.14882203936576843,-0.5982661247253418
1761131471067800300,1.38580029296875,0.2537381649017334,0.29542970657348633,-0.5994879007339478
1761131471077800400,1.395800537109375,0.34842225909233093,0.34979671239852905,-0.6110942959785461
1761131471087800300,1.40580029296875,0.4101196527481079,0.34063372015953064,-0.580551028251648
1761131471097800400,1.415800537109375,0.3459787964820862,0.20196732878684998,-0.5115233063697815
1761131471107800000,1.425800048828125,0.3105486333370209,0.06330090761184692,-0.3911828398704529
1761131471117800000,1.435800048828125,0.18715384602546692,0.05291620269417763,-0.30138564109802246
1761131471127800000,1.445800048828125,0.09796751290559769,0.07735081017017365,-0.142560675740242
1761131471137800000,1.455800048828125,0.016111571341753006,0.1396590620279312,0.06574437022209167
1761131471147800000,1.465800048828125,-0.09201157838106155,0.15248723328113556,0.2618321180343628
1761131471157800000,1.475800048828125,-0.20502164959907532,0.1048397496342659,0.4328743815422058
1761131471167800800,1.48580078125,-0.29970577359199524,0.04986187443137169,0.5752059817314148
1761131471177801000,1.495801025390625,-0.3772856593132019,-0.024663684889674187,0.6723335385322571
1761131471197801000,1.515801025390625,-0.45181119441986084,-0.008781188167631626,0.7108180522918701
1761131471207800800,1.52580078125,-0.4597524404525757,0.10178542137145996,0.6613379716873169
1761131471221229000,1.53922900390625,-0.46036332845687866,0.22762365639209747,0.5758168697357178
1761131471231229000,1.54922900390625,-0.4426482319831848,0.34368807077407837,0.49151745438575745
1761131471241229000,1.55922900390625,-0.39622247219085693,0.47013717889785767,0.42065706849098206
1761131471251229000,1.56922900390625,-0.282601535320282,0.7370852828025818,0.3571271002292633
1761131471261229000,1.57922900390625,-0.20685423910617828,0.9624945521354675,0.33024901151657104
1761131471271228200,1.589228271484375,-0.1451568603515625,1.081613302230835,0.29481884837150574
1761131471281228300,1.599228271484375,-0.08345946669578552,0.9899834990501404,0.2355649173259735
1761131471291228200,1.609228271484375,-0.0009926559869199991,0.7645742297172546,0.14393512904644012
1761131471301227800,1.619227783203125,0.06925684958696365,0.5275585055351257,0.033368512988090515
1761131471311227600,1.6292275390625,0.1382846236228943,0.3223077654838562,-0.06436992436647415
1761131471321227800,1.639227783203125,0.14989106357097626,0.1152244582772255,-0.16638441383838654
1761131471331227600,1.6492275390625,0.09430231899023056,-0.17615826427936554,-0.273285835981369
1761131471341227800,1.659227783203125,-0.011988230049610138,-0.5005277395248413,-0.37285688519477844
1761131471351227600,1.6692275390625,-0.11950051039457321,-0.668515682220459,-0.42722389101982117
1761131471361227800,1.679227783203125,-0.18913915753364563,-0.544510006904602,-0.3893502354621887
1761131471371228400,1.689228515625,-0.2215150147676468,-0.16394096612930298,-0.2580142021179199
1761131471381228500,1.699228515625,-0.22762365639209747,0.3522401750087738,-0.0668133869767189
1761131471391228400,1.709228515625,-0.220904141664505,0.7786241173744202,0.1457677185535431
1761131471401228500,1.719228515625,-0.20257818698883057,1.03579843044281,0.35040757060050964
1761131471411229000,1.72922900390625,-0.17631098628044128,1.1078804731369019,0.5135086178779602
1761131471421229000,1.73922900390625,-0.12744176387786865,0.9722684025764465,0.6332381963729858
1761131471431229000,1.74922900390625,-0.07246389240026474,0.6924921274185181,0.7004333734512329
1761131471441229000,1.75922900390625,-0.03825543448328972,0.3473532497882843,0.7120398283004761
1761131471451229000,1.76922900390625,-0.021762074902653694,0.005879578180611134,0.6784422397613525
1761131471461229000,1.77922900390625,-0.015042556449770927,-0.23724478483200073,0.6185774207115173
1761131471471228200,1.789228271484375,0.005115996580570936,-0.3258202373981476,0.5684864521026611
1761131471481228000,1.79922802734375,0.03627012297511101,-0.2537381649017334,0.531223714351654
1761131471491228200,1.809228271484375,0.030161472037434578,-0.15905404090881348,0.5226715803146362
1761131471501228000,1.81922802734375,-0.005879578180611134,-0.09369145333766937,0.5238932967185974
1761131471511228200,1.829228271484375,-0.07063129544258118,-0.09491318464279175,0.5306128263473511
1761131471521228000,1.83922802734375,-0.14454598724842072,-0.15355625748634338,0.5446627140045166
1761131471531228200,1.849228271484375,-0.2013564556837082,-0.21464277803897858,0.5715407729148865
1761131471541228000,1.85922802734375,-0.23923009634017944,-0.23480132222175598,0.6136904954910278
1761131471551228200,1.869228271484375,-0.2612212598323822,-0.1987602859735489,0.6759987473487854
1761131471561228000,1.87922802734375,-0.2862667143344879,-0.10651962459087372,0.7596873044967651
1761131471571229000,1.88922900390625,-0.3333033621311188,0.011377365328371525,0.8366563320159912
1761131471581229000,1.89922900390625,-0.40110939741134644,0.10850493609905243,0.8751408457756042
1761131471591229000,1.90922900390625,-0.46219590306282043,0.17081318795681,0.8659778237342834
1761131471601229000,1.91922900390625,-0.5043455958366394,0.17936530709266663,0.8036695718765259
1761131471611229000,1.92922900390625,-0.5141194462776184,0.12316570430994034,0.6998224854469299
1761131471621229000,1.93922900390625,-0.4945717751979828,0.015042556449770927,0.5794820189476013
1761131471631229000,1.94922900390625,-0.45608726143836975,-0.10896308720111847,0.4530329406261444
1761131471641229000,1.95922900390625,-0.41577014327049255,-0.21464277803897858,0.3284164369106293
1761131471651229000,1.96922900390625,-0.382783442735672,-0.2946661114692688,0.20502164959907532
1761131471661229000,1.97922900390625,-0.3626248836517334,-0.3343723714351654,0.08284860104322433
1761131471671228200,1.989228271484375,-0.35407277941703796,-0.33681583404541016,-0.030772335827350616
1761131471681228000,1.99922802734375,-0.3418554663658142,-0.32093334197998047,-0.12912164628505707
1761131471691228200,2.009228271484375,-0.330859899520874,-0.2885574698448181,-0.2036471962928772
1761131471701228000,2.01922802734375,-0.32047519087791443,-0.24579690396785736,-0.2531272768974304
1761131471711228200,2.029228271484375,-0.3174208402633667,-0.21647536754608154,-0.28122708201408386
1761131471721228000,2.03922802734375,-0.3125339448451996,-0.20975585281848907,-0.2855031490325928
1761131471731228200,2.049228271484375,-0.30031663179397583,-0.21158844232559204,-0.25557073950767517
1761131471741228000,2.05922802734375,-0.2807689309120178,-0.2537381649017334,-0.21097758412361145
1761131471751228200,2.069228271484375,-0.2508365511894226,-0.3258202373981476,-0.15905404090881348
1761131471761228000,2.07922802734375,-0.22456933557987213,-0.3948480188846588,-0.12118039280176163
1761131471771229000,2.08922900390625,-0.20441077649593353,-0.4296673536300659,-0.0973566472530365
1761131471781228800,2.099228759765625,-0.18730655312538147,-0.4247804284095764,-0.08636107295751572
1761131471791229000,2.10922900390625,-0.180587038397789,-0.3948480188846588,-0.07903069257736206
1761131471801228800,2.119228759765625,-0.18791742622852325,-0.36674821376800537,-0.07597636431455612
1761131471811229000,2.12922900390625,-0.22029328346252441,-0.3643047511577606,-0.08575020730495453
1761131471821228800,2.139228759765625,-0.2661081850528717,-0.38690677285194397,-0.1175151988863945
1761131471831229000,2.14922900390625,-0.3064252734184265,-0.43821945786476135,-0.1682170182466507
1761131471841228800,2.159228759765625,-0.3278055489063263,-0.505414605140686,-0.2293035387992859
1761131471851229000,2.16922900390625,-0.3229186534881592,-0.5658903121948242,-0.2897791862487793
1761131471861228800,2.179228759765625,-0.2880993187427521,-0.5878814458847046,-0.33742669224739075
1761131471871228000,2.189227783203125,-0.2215150147676468,-0.5292384028434753,-0.35208746790885925
1761131471881228000,2.19922802734375,-0.130496084690094,-0.3759112060070038,-0.31787899136543274
1761131471891228000,2.209227783203125,-0.05169447138905525,-0.18532124161720276,-0.2494620978832245
1761131471901228000,2.21922802734375,-0.021151209250092506,-0.08758280426263809,-0.1779908537864685
1761131471911228000,2.229227783203125,-0.03153591975569725,-0.1376737505197525,-0.122402124106884
1761131471921228000,2.23922802734375,-0.0541379339993,-0.24029912054538727,-0.07292203605175018
1761131471931228000,2.249227783203125,-0.07124216109514236,-0.34781140089035034,-0.03443752974271774
1761131471941228000,2.25922802734375,-0.08590292185544968,-0.444938987493515,-0.021609358489513397
1761131471951228200,2.269228271484375,-0.10606148093938828,-0.5200753808021545,-0.05826127156615257
1761131471961228000,2.27922802734375,-0.12316570430994034,-0.5707772374153137,-0.12179125845432281
1761131471971229000,2.28922900390625,-0.14210252463817596,-0.6306419968605042,-0.21097758412361145
1761131471981229000,2.29922900390625,-0.1506546437740326,-0.6746243238449097,-0.3001639246940613
1761131471991229000,2.30922900390625,-0.14393512904644012,-0.668515682220459,-0.3612504303455353
1761131472001229000,2.31922900390625,-0.1298852264881134,-0.5842162370681763,-0.3789655268192291
1761131472011229000,2.32922900390625,-0.11155926436185837,-0.45410194993019104,-0.35208746790885925
1761131472021229000,2.33922900390625,-0.09567677229642868,-0.2580142021179199,-0.2702315151691437
1761131472031229000,2.34922900390625,-0.09140071272850037,-0.04237877577543259,-0.1431715488433838
1761131472041228800,2.359228759765625,-0.11155926436185837,0.10422888398170471,0.008323038928210735
1761131472051229000,2.36922900390625,-0.15676330029964447,0.15431983768939972,0.1604284793138504
1761131472061228800,2.379228759765625,-0.2166280895471573,0.12133310735225677,0.28993192315101624
1761131472071228000,2.389227783203125,-0.28015807271003723,0.02054034359753132,0.39072468876838684
1761131472081228000,2.39922802734375,-0.35040757060050964,-0.11934779584407806,0.4524220824241638
1761131472091228000,2.409227783203125,-0.42982006072998047,-0.2531272768974304,0.46708282828330994
1761131472101228000,2.41922802734375,-0.5147303342819214,-0.35697436332702637,0.4334852397441864
1761131472111228200,2.429228271484375,-0.5947536826133728,-0.4003458023071289,0.35468363761901855
1761131472121228000,2.43922802734375,-0.6558402180671692,-0.3704134225845337,0.2514474093914032
1761131472131228200,2.449228271484375,-0.6784422397613525,-0.2836705446243286,0.14760030806064606
1761131472141228000,2.45922802734375,-0.6656140685081482,-0.17004960775375366,0.05169447138905525
1761131472151228200,2.469228271484375,-0.6295729875564575,-0.0466548316180706,-0.024052819237113
1761131472161228000,2.47922802734375,-0.5794820189476013,0.08223773539066315,-0.07658722996711731
1761131472171229000,2.48922900390625,-0.5287802219390869,0.18364135921001434,-0.10957395285367966
1761131472181228800,2.499228759765625,-0.44570255279541016,0.25877779722213745,-0.11812606453895569
1761131472191229000,2.50922900390625,-0.3870594799518585,0.26427558064460754,-0.102243572473526
1761131472201228800,2.519228759765625,-0.33880114555358887,0.2459496259689331,-0.07414376735687256
1761131472211229000,2.52922900390625,-0.3058144152164459,0.21418462693691254,-0.05520694702863693
1761131472221228800,2.539228759765625,-0.2874884605407715,0.1702023297548294,-0.05032002553343773
1761131472231229000,2.54922900390625,-0.2764928936958313,0.10606148093938828,-0.051541756838560104
1761131472241228800,2.559228759765625,-0.27954721450805664,0.05169447138905525,-0.05581781268119812
1761131472251229000,2.56922900390625,-0.2874884605407715,0.010766499675810337,-0.0619264654815197
1761131472261228800,2.579228759765625,-0.30459266901016235,-0.012446379289031029,-0.06864598393440247
1761131472281228000,2.59922802734375,-0.3485749661922455,0.023594669997692108,-0.09552405029535294
1761131472291228000,2.609227783203125,-0.3681226670742035,0.03520110994577408,-0.11934779584407806
1761131472301228000,2.61922802734375,-0.3833943009376526,0.01687515154480934,-0.14928019046783447
1761131472311228000,2.629227783203125,-0.38033998012542725,-0.016722436994314194,-0.18104518949985504
1761131472321228000,2.63922802734375,-0.36140313744544983,-0.04237877577543259,-0.20547980070114136
1761131472331228200,2.649228271484375,-0.3369685411453247,-0.05093089118599892,-0.23235787451267242
1761131472341228000,2.65922802734375,-0.3278055489063263,-0.04726569727063179,-0.2592359483242035
1761131472351228200,2.669228271484375,-0.3357468247413635,-0.021609358489513397,-0.2891683280467987
1761131472361228000,2.67922802734375,-0.3516293168067932,0.03459024429321289,-0.31238120794296265
1761131472371229000,2.68922900390625,-0.36506834626197815,0.11400272697210312,-0.32093334197998047
1761131472381228800,2.699228759765625,-0.3589596748352051,0.2062433809041977,-0.3184898793697357
1761131472391229000,2.70922900390625,-0.32963815331459045,0.2966514229774475,-0.3087160289287567
1761131472401228800,2.719228759765625,-0.27404943108558655,0.3418554663658142,-0.2934443950653076
1761131472411229000,2.72922900390625,-0.1500437706708908,0.3076470196247101,-0.2482403665781021
1761131472421228800,2.739228759765625,-0.053527068346738815,0.23923009634017944,-0.1987602859735489
1761131472431229400,2.7492294921875,0.031383201479911804,0.17692184448242188,-0.1382846236228943
1761131472441229600,2.7592294921875,0.09124799817800522,0.13721559941768646,-0.07903069257736206
1761131472451229400,2.7692294921875,0.12851077318191528,0.11583532392978668,-0.022831087931990623
1761131472461229600,2.7792294921875,0.15416711568832397,0.12622003257274628,0.027870727702975273
1761131472471228700,2.789228759765625,0.18898643553256989,0.16714800894260406,0.07002042979001999
1761131472481228800,2.799228759765625,0.24762949347496033,0.25511258840560913,0.11705705523490906
1761131472491228700,2.809228759765625,0.33131805062294006,0.43592870235443115,0.1811978965997696
1761131472501228800,2.819228759765625,0.4192826449871063,0.6430120468139648,0.25022566318511963
1761131472511228700,2.829228759765625,0.47792568802833557,0.7523568868637085,0.29359710216522217
1761131472521228800,2.839228759765625,0.49502992630004883,0.6961572766304016,0.27954721450805664
1761131472531228700,2.849228759765625,0.4705953001976013,0.5141194462776184,0.20257818698883057
1761131472541228800,2.859228759765625,0.40828704833984375,0.30337095260620117,0.0694095641374588
1761131472551228700,2.869228759765625,0.32826370000839233,0.12438743561506271,-0.08575020730495453
1761131472561228800,2.879228759765625,0.25251641869544983,-0.06803511828184128,-0.22991441190242767
1761131472571229700,2.889229736328125,0.17615826427936554,-0.2433534413576126,-0.3453679382801056
1761131472581229600,2.8992294921875,0.11446087807416916,-0.3258202373981476,-0.42355868220329285
1761131472591229700,2.909229736328125,0.07353290170431137,-0.2903900742530823,-0.4553236961364746
1761131472601229600,2.9192294921875,0.07108944654464722,-0.09124799817800522,-0.41806089878082275
1761131472611229700,2.929229736328125,0.11323914676904678,0.26855164766311646,-0.2983313202857971
1761131472621229600,2.9392294921875,0.1779908537864685,0.6570619344711304,-0.11873693019151688
1761131472631228700,2.949228759765625,0.23296873271465302,0.9014080166816711,0.08345946669578552
1761131472641228800,2.959228759765625,0.26656633615493774,0.9301186800003052,0.2862667143344879
1761131472651228700,2.969228759765625,0.2885574698448181,0.6136904954910278,0.5556582808494568
1761131472661228800,2.979228759765625,0.28122708201408386,0.28871017694473267,0.6924921274185181
1761131472671228000,2.989227783203125,0.2482403665781021,-0.02955060638487339,0.7786241173744202
1761131472681227800,2.999227783203125,0.19142989814281464,-0.2629011273384094,0.7993935346603394
1761131472691228000,3.009227783203125,0.11934779584407806,-0.36186128854751587,0.757854700088501
1761131472701227800,3.019227783203125,0.05032002553343773,-0.3551417887210846,0.6796639561653137
1761131472711228000,3.029227783203125,-0.006490443367511034,-0.26717719435691833,0.5819255113601685
1761131472721227800,3.039227783203125,-0.04253149405121803,-0.1278999149799347,0.473191499710083
1761131472731227100,3.04922705078125,-0.07063129544258118,0.029703322798013687,0.3736204504966736
1761131472741227300,3.059227294921875,-0.09567677229642868,0.17875444889068604,0.2917645275592804
1761131472751227100,3.06922705078125,-0.11583532392978668,0.28382325172424316,0.2312888503074646
1761131472761227300,3.079227294921875,-0.130496084690094,0.34368807077407837,0.20685423910617828
1761131472771228200,3.089228271484375,-0.13782647252082825,0.3925572633743286,0.21235203742980957
1761131472781228000,3.09922802734375,-0.14271339774131775,0.4267657399177551,0.23861923813819885
1761131472791228200,3.109228271484375,-0.14698944985866547,0.4176027476787567,0.263053834438324
1761131472801228000,3.11922802734375,-0.14332425594329834,0.3583488166332245,0.2819906771183014
1761131472811228200,3.129228271484375,-0.13171781599521637,0.25328001379966736,0.2813797891139984
1761131472821228000,3.13922802734375,-0.11155926436185837,0.11155926436185837,0.25511258840560913
1761131472831228200,3.149228271484375,-0.07918340712785721,-0.039935316890478134,0.20196732878684998
1761131472841228000,3.15922802734375,-0.035811975598335266,-0.15905404090881348,0.12866349518299103
1761131472851228200,3.169228271484375,0.010002918541431427,-0.2549598813056946,0.03520110994577408
1761131472861228000,3.17922802734375,0.05581781268119812,-0.32765284180641174,-0.06925684958696365
1761131472881227300,3.199227294921875,0.17676913738250732,-0.3441462218761444,-0.26106852293014526
1761131472891227100,3.20922705078125,0.22014056146144867,-0.2745075821876526,-0.2848922908306122
1761131472901227300,3.219227294921875,0.26229026913642883,-0.2085341215133667,-0.28183794021606445
1761131472911227100,3.22922705078125,0.30627256631851196,-0.18104518949985504,-0.2537381649017334
1761131472921227300,3.239227294921875,0.3563635051250458,-0.16149750351905823,-0.20547980070114136
1761131472931228200,3.249228271484375,0.4003458023071289,-0.1278999149799347,-0.13523028790950775
1761131472941228000,3.25922802734375,0.43333253264427185,-0.11568260937929153,-0.06253732740879059
1761131472951228200,3.269228271484375,0.44921502470970154,-0.16394096612930298,0.005879578180611134
1761131472961228000,3.27922802734375,0.46326494216918945,-0.22014056146144867,0.0749073475599289
1761131472971229000,3.28922900390625,0.47853657603263855,-0.2677880525588989,0.14271339774131775
1761131472981228800,3.299228759765625,0.496862530708313,-0.2940552532672882,0.20868684351444244
1761131472991229000,3.30922900390625,0.5103015303611755,-0.30260735750198364,0.2612212598323822
1761131473001228800,3.319228759765625,0.5145776271820068,-0.30260735750198364,0.2978731691837311
1761131473011229000,3.32922900390625,0.506025493144989,-0.283059686422348,0.31497737765312195
1761131473021228800,3.339228759765625,0.4767039716243744,-0.23968824744224548,0.29970577359199524
1761131473031229000,3.34922900390625,0.4314999282360077,-0.19998200237751007,0.25450173020362854
1761131473041228800,3.359228759765625,0.3698025345802307,-0.1724930703639984,0.18913915753364563
1761131473051229000,3.36922900390625,0.2983313202857971,-0.1676061451435089,0.1146135926246643
1761131473061228800,3.379228759765625,0.22197316586971283,-0.18898643553256989,0.04069889709353447
1761131473071228200,3.389228271484375,0.15599970519542694,-0.2390773892402649,-0.028939740732312202
1761131473081228000,3.39922802734375,0.10346530377864838,-0.3184898793697357,-0.10529789328575134
1761131473091228200,3.409228271484375,0.06986771523952484,-0.4143957197666168,-0.18959729373455048
1761131473101228000,3.41922802734375,0.06375905871391296,-0.4822017550468445,-0.2848922908306122
1761131473111228200,3.429228271484375,0.10407616943120956,-0.4669301211833954,-0.415617436170578
1761131473121228000,3.43922802734375,0.15477798879146576,-0.3789655268192291,-0.4712061882019043
1761131473131228200,3.449228271484375,0.21464277803897858,-0.29100093245506287,-0.4919756054878235
1761131473141228000,3.45922802734375,0.26656633615493774,-0.27634015679359436,-0.49441906809806824
1761131473161228000,3.47922802734375,0.3142138123512268,-0.31665727496147156,-0.43211081624031067
1761131473171229000,3.48922900390625,0.3081051707267761,-0.2940552532672882,-0.3746894598007202
1761131473181228800,3.499228759765625,0.28611400723457336,-0.23724478483200073,-0.31787899136543274
1761131473191229000,3.50922900390625,0.25129470229148865,-0.19204075634479523,-0.2781727612018585
1761131473201228800,3.519228759765625,0.21586450934410095,-0.20059287548065186,-0.25679248571395874
1761131473211229000,3.52922900390625,0.1883755773305893,-0.2549598813056946,-0.25068381428718567
1761131473221228800,3.539228759765625,0.17615826427936554,-0.30138564109802246,-0.23113614320755005
1761131473231229000,3.54922900390625,0.17554740607738495,-0.28183794021606445,-0.19020816683769226
1761131473241228800,3.559228759765625,0.1724930703639984,-0.19142989814281464,-0.12667818367481232
1761131473251229000,3.56922900390625,0.1584431678056717,-0.0771980956196785,-0.045433104038238525
1761131473261228800,3.579228759765625,0.12484558671712875,0.021762074902653694,0.030925052240490913
1761131473271228000,3.589227783203125,0.07475463300943375,0.06635523587465286,0.09262244403362274
1761131473281228000,3.59922802734375,0.014278975315392017,0.06330090761184692,0.14149166643619537
1761131473291228000,3.609227783203125,-0.04619668424129486,0.04558581858873367,0.18303050100803375
1761131473301228000,3.61922802734375,-0.1097266674041748,0.03275764733552933,0.2166280895471573
1761131473311228000,3.629227783203125,-0.17692184448242188,0.014431691728532314,0.22762365639209747
1761131473321228000,3.63922802734375,-0.2416735589504242,-0.019165897741913795,0.20990857481956482
1761131473331228000,3.649227783203125,-0.29359710216522217,-0.060093868523836136,0.17264579236507416
1761131473341228000,3.65922802734375,-0.33513593673706055,-0.12545645236968994,0.10728321224451065
1761131473351228000,3.669227783203125,-0.36140313744544983,-0.15416711568832397,0.05474879592657089
1761131473361228000,3.67922802734375,-0.3943898677825928,-0.16577355563640594,-0.005115996580570936
1761131473371229000,3.68922900390625,-0.4292092025279999,-0.14866933226585388,-0.060093868523836136
1761131473381228800,3.699228759765625,-0.4591415822505951,-0.08758280426263809,-0.09430231899023056
1761131473391229000,3.70922900390625,-0.48235446214675903,0.009544769302010536,-0.11446087807416916
1761131473401228800,3.719228759765625,-0.5092325210571289,0.1201113760471344,-0.1321759670972824
1761131473411229000,3.72922900390625,-0.5232824683189392,0.230677992105484,-0.14622586965560913
1761131473421228800,3.739228759765625,-0.5238932967185974,0.3107013404369354,-0.15722143650054932
1761131473431229000,3.74922900390625,-0.5067890882492065,0.3418554663658142,-0.1633300930261612
1761131473441228800,3.759228759765625,-0.47013717889785767,0.3278055489063263,-0.16577355563640594
1761131473451229000,3.76922900390625,-0.42065706849098206,0.27832546830177307,-0.16210836172103882
1761131473461229000,3.77922900390625,-0.3669009506702423,0.1958586722612381,-0.16027577221393585
1761131473471228200,3.789228271484375,-0.31925344467163086,0.09506590664386749,-0.16455182433128357
1761131473481228000,3.79922802734375,-0.2709950804710388,0.005879578180611134,-0.17737999558448792
1761131473491228200,3.809228271484375,-0.22884538769721985,-0.06314819306135178,-0.19570595026016235
1761131473501228000,3.81922802734375,-0.19708040356636047,-0.08391761034727097,-0.21769709885120392
1761131473511228200,3.829228271484375,-0.18364135921001434,-0.06925684958696365,-0.2439643144607544
1761131473521228000,3.83922802734375,-0.19402606785297394,-0.0466548316180706,-0.2781727612018585
1761131473531228200,3.849228271484375,-0.2111303061246872,-0.016111571341753006,-0.31299206614494324
1761131473541228000,3.85922802734375,-0.22334760427474976,0.035811975598335266,-0.3392592966556549
1761131473551228200,3.869228271484375,-0.23189972341060638,0.07918340712785721,-0.34781140089035034
1761131473561228000,3.87922802734375,-0.23984096944332123,0.09567677229642868,-0.33864840865135193
1761131473571229000,3.88922900390625,-0.25450173020362854,0.08162686973810196,-0.29588785767555237
1761131473581229000,3.89922900390625,-0.2612212598323822,0.05230533704161644,-0.264122873544693
1761131473591229000,3.90922900390625,-0.2606103718280792,0.04008803144097328,-0.2341904640197754
1761131473601229000,3.91922900390625,-0.25389087200164795,0.05535966157913208,-0.20425806939601898
1761131473611229000,3.92922900390625,-0.2465604841709137,0.07551821321249008,-0.17737999558448792
1761131473621229000,3.93922900390625,-0.22701279819011688,0.11827878654003143,-0.15050192177295685
1761131473631229000,3.94922900390625,-0.18975001573562622,0.20746511220932007,-0.12179125845432281
1761131473641229000,3.95922900390625,-0.14210252463817596,0.30459266901016235,-0.0924697294831276
1761131473651229000,3.96922900390625,-0.08223773539066315,0.38461601734161377,-0.05520694702863693
1761131473661229000,3.97922900390625,-0.018707748502492905,0.43165266513824463,-0.012446379289031029
1761131473671228200,3.989228271484375,0.04482223838567734,0.42126795649528503,0.0290924571454525
1761131473681228000,3.99922802734375,0.09918924421072006,0.34552064538002014,0.06269004940986633
1761131473691228200,4.009228271484375,0.142560675740242,0.21723894774913788,0.08712465316057205
1761131473701228000,4.01922802734375,0.17493653297424316,0.08101600408554077,0.10117455571889877
1761131473711228200,4.029228271484375,0.20425806939601898,-0.036880988627672195,0.10728321224451065
1761131473721228000,4.03922802734375,0.2280818074941635,-0.12056952714920044,0.09873109310865402
1761131473731228200,4.049228271484375,0.24457517266273499,-0.17004960775375366,0.08284860104322433
1761131473741228000,4.05922802734375,0.25251641869544983,-0.15661057829856873,0.07368562370538712
1761131473751228200,4.069228271484375,0.2537381649017334,-0.028939740732312202,0.07796167582273483
1761131473761228000,4.07922802734375,0.2439643144607544,0.1909717470407486,0.08895725011825562
1761131473771229000,4.08922900390625,0.22075143456459045,0.3571271002292633,0.07673994451761246
1761131473781229000,4.09922900390625,0.20120373368263245,0.382172554731369,0.03459024429321289
1761131473791229000,4.10922900390625,0.19998200237751007,0.33452507853507996,-0.016722436994314194
1761131473801229000,4.11922900390625,0.2183079719543457,0.2661081850528717,-0.07475463300943375
1761131473811229000,4.12922900390625,0.24640776216983795,0.2111303061246872,-0.17188221216201782
1761131473821229000,4.13922900390625,0.2531272768974304,0.20807597041130066,-0.24701863527297974
1761131473831229000,4.14922900390625,0.25068381428718567,0.10911580175161362,-0.3392592966556549
1761131473841229000,4.15922900390625,0.2592359483242035,-0.0973566472530365,-0.44310638308525085
1761131473851229000,4.16922900390625,0.2989421784877777,-0.2934443950653076,-0.5200753808021545
1761131473861229000,4.17922900390625,0.3643047511577606,-0.334983229637146,-0.5316818356513977
1761131473871228200,4.189228271484375,0.43760859966278076,-0.17554740607738495,-0.45288023352622986
1761131473881228000,4.19922802734375,0.5078580975532532,0.18241962790489197,-0.28672486543655396
1761131473891228200,4.209228271484375,0.5579490661621094,0.6283512711524963,-0.06986771523952484
1761131473901228000,4.21922802734375,0.5719989538192749,0.9612728357315063,0.15431983768939972
1761131473911228200,4.229228271484375,0.5646685361862183,1.0932197570800781,0.34429892897605896
1761131473921228000,4.23922802734375,0.5683337450027466,1.0296896696090698,0.4884631335735321
1761131473931228200,4.249228271484375,0.5811619162559509,0.8103891015052795,0.5813146233558655
1761131473941228000,4.25922802734375,0.5946009755134583,0.4738023579120636,0.6100252866744995
1761131473951228200,4.269228271484375,0.6019313335418701,0.09201157838106155,0.5776494741439819
1761131473961228000,4.27922802734375,0.6043748259544373,-0.2677880525588989,0.4847979247570038
1761131473971229000,4.28922900390625,0.5988770127296448,-0.5744423866271973,0.3357468247413635
1761131473981229000,4.29922900390625,0.5823836326599121,-0.8016842603683472,0.14821118116378784
1761131473991229200,4.309229248046875,0.5603924989700317,-0.9354637861251831,-0.0466548316180706
1761131474001229000,4.31922900390625,0.5414556860923767,-0.942183256149292,-0.2085341215133667
1761131474011229000,4.32922900390625,0.5292384028434753,-0.8401687741279602,-0.3136029541492462
1761131474021229000,4.33922900390625,0.5133558511734009,-0.6434701681137085,-0.35208746790885925
1761131474031229000,4.34922900390625,0.48342347145080566,-0.34720054268836975,-0.31604641675949097
1761131474041229000,4.35922900390625,0.3893502354621887,0.13416127860546112,-0.17004960775375366
1761131474051229000,4.36922900390625,0.30199649930000305,0.3723987340927124,-0.036880988627672195
1761131474061229000,4.37922900390625,0.21036672592163086,0.501902163028717,0.11400272697210312
1761131474071228200,4.389228271484375,0.1382846236228943,0.5385540723800659,0.26366472244262695
1761131474081228300,4.399228271484375,0.0918588638305664,0.5000695586204529,0.3882812261581421
1761131474091228200,4.409228271484375,0.072311170399189,0.4078288972377777,0.4683045744895935
1761131474101228300,4.419228271484375,0.06986771523952484,0.2960405647754669,0.49640437960624695
1761131474111228200,4.429228271484375,0.08391761034727097,0.190360888838768,0.4750240743160248
1761131474121228300,4.439228271484375,0.11140654981136322,0.09934195876121521,0.4041637182235718
1761131474131228200,4.449228271484375,0.1480584591627121,0.010766499675810337,0.2862667143344879
1761131474141228300,4.459228271484375,0.1938733607530594,-0.07108944654464722,0.14271339774131775
1761131474151228200,4.469228271484375,0.2390773892402649,-0.13523028790950775,-0.004505131393671036
1761131474161228300,4.479228271484375,0.2690097689628601,-0.1627192348241806,-0.13889548182487488
1761131474171229000,4.48922900390625,0.2793944776058197,-0.1688278764486313,-0.254349023103714
1761131474181229000,4.49922900390625,0.26595544815063477,-0.17004960775375366,-0.34353533387184143
1761131474191229000,4.50922900390625,0.23663392663002014,-0.17615826427936554,-0.39729148149490356
1761131474201229000,4.51922900390625,0.19998200237751007,-0.20181460678577423,-0.41867175698280334
1761131474211229000,4.52922900390625,0.16088663041591644,-0.2280818074941635,-0.406454473733902
1761131474221229000,4.53922900390625,0.12912164628505707,-0.24213171005249023,-0.3691916763782501
1761131474231229200,4.549229248046875,0.10896308720111847,-0.2134210467338562,-0.3093268871307373
1761131474241229000,4.55922900390625,0.10285443812608719,-0.122402124106884,-0.22563834488391876
1761131474251229200,4.569229248046875,0.102243572473526,0.02848159149289131,-0.12484558671712875
1761131474261229000,4.57922900390625,0.0918588638305664,0.1610393524169922,-0.028328875079751015
1761131474271228400,4.589228515625,0.08269587904214859,0.292375385761261,0.060246583074331284
1761131474281228300,4.599228271484375,0.0918588638305664,0.330859899520874,0.1811978965997696
1761131474291228200,4.609228271484375,0.10163270682096481,0.32475122809410095,0.24839307367801666
1761131474301228300,4.619228271484375,0.09124799817800522,0.2514474093914032,0.2929862439632416
1761131474311228200,4.629228271484375,0.048487428575754166,0.08407033234834671,0.2856558561325073
1761131474321228300,4.639228271484375,-0.021762074902653694,-0.20486892759799957,0.20441077649593353
1761131474331228200,4.649228271484375,-0.10422888398170471,-0.5665011405944824,0.036422841250896454
1761131474341228300,4.659228271484375,-0.15187637507915497,-0.8719337582588196,-0.1731039434671402
1761131474351228200,4.669228271484375,-0.1396590620279312,-1.0051023960113525,-0.354530930519104
1761131474361228300,4.679228271484375,-0.08529205620288849,-0.9324094653129578,-0.4760931134223938
1761131474371229200,4.689229248046875,-0.0022143865935504436,-0.6886742115020752,-0.5188536643981934
1761131474381229000,4.69922900390625,0.08513934165239334,-0.3410918712615967,-0.4907538592815399
1761131474391229200,4.709229248046875,0.1529453843832016,0.015042556449770927,-0.41378483176231384
1761131474401229000,4.71922900390625,0.17921258509159088,0.29909488558769226,-0.2940552532672882
1761131474411229200,4.729229248046875,0.18226692080497742,0.4793001413345337,-0.11995866149663925
1761131474421229000,4.73922900390625,0.1584431678056717,0.5464953184127808,0.06818783283233643
1761131474431229200,4.749229248046875,0.1071304902434349,0.4982369542121887,0.2361757755279541
1761131474441229000,4.75922900390625,0.033826664090156555,0.3381902575492859,0.3577379584312439
1761131474451229200,4.769229248046875,-0.04314235970377922,0.07612907886505127,0.4169918894767761
1761131474461229000,4.77922900390625,-0.10239628702402115,-0.23052527010440826,0.4078288972377777
1761131474471228200,4.789228271484375,-0.12316570430994034,-0.46815183758735657,0.3357468247413635
1761131474481228300,4.799228271484375,-0.11400272697210312,-0.5781075954437256,0.21723894774913788
1761131474491228200,4.809228271484375,-0.08895725011825562,-0.5524512529373169,0.08651378750801086
1761131474501228300,4.819228271484375,-0.035811975598335266,-0.2952769994735718,-0.048487428575754166
1761131474511228200,4.829228271484375,-0.01687515154480934,-0.08025242388248444,-0.07658722996711731
1761131474521228300,4.839228271484375,-0.019318614155054092,0.10300715267658234,-0.052152618765830994
1761131474531228200,4.849228271484375,-0.039477165788412094,0.22395847737789154,0.022372938692569733
1761131474541228300,4.859228271484375,-0.06818783283233643,0.25938865542411804,0.1347721517086029
1761131474551228200,4.869228271484375,-0.11033753305673599,0.21479548513889313,0.24961480498313904
1761131474561228300,4.879228271484375,-0.16836974024772644,0.0797942727804184,0.34490978717803955
1761131474571229000,4.88922900390625,-0.23251058161258698,-0.0924697294831276,0.40599632263183594
1761131474581229000,4.89922900390625,-0.2880993187427521,-0.24518603086471558,0.43165266513824463
1761131474591229000,4.90922900390625,-0.3284164369106293,-0.31604641675949097,0.4182136058807373
1761131474601229000,4.91922900390625,-0.3565162420272827,-0.3191007375717163,0.36934441328048706
1761131474611229000,4.92922900390625,-0.382783442735672,-0.2855031490325928,0.2960405647754669
1761131474621229000,4.93922900390625,-0.4121049642562866,-0.23968824744224548,0.20685423910617828
1761131474631229000,4.94922900390625,-0.4377613067626953,-0.1981494128704071,0.11400272697210312
1761131474641229000,4.95922900390625,-0.4432590901851654,-0.1370628923177719,0.03825543448328972
1761131474651229000,4.96922900390625,-0.43531784415245056,-0.04360050708055496,-0.008781188167631626
1761131474661229000,4.97922900390625,-0.4285983145236969,0.06146831437945366,-0.02344195358455181
1761131474671228400,4.989228515625,-0.43043091893196106,0.1549306958913803,-0.017333300784230232
1761131474681228300,4.999228271484375,-0.4334852397441864,0.22701279819011688,-0.0038942659739404917
1761131474691228400,5.009228515625,-0.42004621028900146,0.25328001379966736,0.016264287754893303
1761131474701228300,5.019228271484375,-0.37972912192344666,0.21846067905426025,0.04069889709353447
1761131474711228400,5.029228515625,-0.3155882656574249,0.14760030806064606,0.06696610152721405
1761131474721228300,5.039228271484375,-0.23495404422283173,0.05841398984193802,0.09017898142337799
1761131474731228400,5.049228515625,-0.15798501670360565,-0.016722436994314194,0.11278099566698074
1761131474741228300,5.059228271484375,-0.07124216109514236,-0.08513934165239334,0.13171781599521637
1761131474751228400,5.069228515625,-0.04069889709353447,-0.11934779584407806,0.12072224169969559
1761131474761228300,5.079228271484375,-0.023594669997692108,-0.1376737505197525,0.09017898142337799
1761131474771229200,5.089229248046875,-0.014431691728532314,-0.1370628923177719,0.04314235970377922
1761131474781229000,5.09922900390625,-0.008933904580771923,-0.14622586965560913,-0.012446379289031029
1761131474791229200,5.109229248046875,-0.009544769302010536,-0.17554740607738495,-0.07170030474662781
1761131474801229000,5.11922900390625,-0.011988230049610138,-0.1987602859735489,-0.13400855660438538
1761131474811229200,5.129229248046875,-0.013209961354732513,-0.20547980070114136,-0.192651629447937
1761131474821229000,5.13922900390625,-0.01687515154480934,-0.20609065890312195,-0.2482403665781021
1761131474831229200,5.149229248046875,-0.02603813074529171,-0.19142989814281464,-0.3001639246940613
1761131474841229300,5.159229248046875,-0.03703370690345764,-0.182877779006958,-0.3490331172943115
1761131474851229200,5.169229248046875,-0.04558581858873367,-0.2085341215133667,-0.38812851905822754
1761131474861229300,5.179229248046875,-0.04314235970377922,-0.20914499461650848,-0.4003458023071289
1761131474871228400,5.189228515625,-0.03459024429321289,-0.14683672785758972,-0.3746894598007202
1761131474881228300,5.199228271484375,-0.03153591975569725,-0.05520694702863693,-0.31665727496147156
1761131474891228400,5.209228515625,-0.041920628398656845,0.03520110994577408,-0.2390773892402649
1761131474901228300,5.219228271484375,-0.05719225853681564,0.10545061528682709,-0.15477798879146576
1761131474911228400,5.229228515625,-0.06269004940986633,0.13171781599521637,-0.07108944654464722
1761131474921228300,5.239228271484375,-0.05230533704161644,0.1201113760471344,0.005879578180611134
1761131474931228400,5.249228515625,-0.02848159149289131,0.08895725011825562,0.06574437022209167
1761131474941228300,5.259228271484375,-0.005879578180611134,0.038866300135850906,0.10178542137145996
1761131474951228400,5.269228515625,0.01061378326267004,-0.0032834007870405912,0.1146135926246643
1761131474961228300,5.279228271484375,0.01794416643679142,-0.03321579843759537,0.10911580175161362
1761131474971229000,5.28922900390625,-0.00038179077091626823,-0.05948300287127495,0.07063129544258118
1761131474981229000,5.29922900390625,-0.019318614155054092,-0.060093868523836136,0.044974952936172485
1761131474991229200,5.309229248046875,-0.04558581858873367,-0.05337435007095337,0.033368512988090515
1761131475001229000,5.31922900390625,-0.0846811980009079,-0.04726569727063179,0.033368512988090515
1761131475011229200,5.329229248046875,-0.13904820382595062,-0.0417679101228714,0.04375322163105011
1761131475021229000,5.33922900390625,-0.19769126176834106,-0.025885414332151413,0.06146831437945366
1761131475031229200,5.349229248046875,-0.2575560510158539,0.0016035212902352214,0.08101600408554077
1761131475041229000,5.35922900390625,-0.3155882656574249,0.030925052240490913,0.09506590664386749
1761131475051229200,5.369229248046875,-0.3687335252761841,0.06696610152721405,0.10056369006633759
1761131475061229000,5.37922900390625,-0.41515928506851196,0.11155926436185837,0.10239628702402115
1761131475071228200,5.389228271484375,-0.4481460154056549,0.14454598724842072,0.10178542137145996
1761131475081228300,5.399228271484375,-0.4640285074710846,0.15737415850162506,0.10056369006633759
1761131475091228200,5.409228271484375,-0.46586111187934875,0.16898059844970703,0.10056369006633759
1761131475101228300,5.419228271484375,-0.4493677318096161,0.15248723328113556,0.10056369006633759
1761131475111228200,5.429228271484375,-0.4224896728992462,0.0999528244137764,0.0944550409913063
1761131475121228300,5.439228271484375,-0.3833943009376526,0.03459024429321289,0.08162686973810196
1761131475131228200,5.449228271484375,-0.33452507853507996,-0.021609358489513397,0.07673994451761246
1761131475141228300,5.459228271484375,-0.27832546830177307,-0.09674578160047531,0.0797942727804184
1761131475151228200,5.469228271484375,-0.22212587296962738,-0.1627192348241806,0.09934195876121521
1761131475161228300,5.479228271484375,-0.17142406105995178,-0.2189188301563263,0.13293954730033875
1761131475171229000,5.48922900390625,-0.12744176387786865,-0.26167941093444824,0.1757001131772995
1761131475181229000,5.49922900390625,-0.08651378750801086,-0.24029912054538727,0.2257910668849945
1761131475191229000,5.50922900390625,-0.04864014685153961,-0.11446087807416916,0.2832123935222626
1761131475201229000,5.51922900390625,-0.005268712528049946,0.20013472437858582,0.3717878460884094
1761131475211229000,5.52922900390625,0.02099849283695221,0.37056612968444824,0.40966150164604187
1761131475221229000,5.53922900390625,0.05093089118599892,0.4469242990016937,0.4188244938850403
1761131475231229200,5.549229248046875,0.08269587904214859,0.4328743815422058,0.3974441885948181
1761131475241229000,5.55922900390625,0.09980010986328125,0.2880993187427521,0.3326924741268158
1761131475251229000,5.56922900390625,0.07903069257736206,-0.0020616701804101467,0.19463694095611572
1761131475261229000,5.57922900390625,0.028939740732312202,-0.43211081624031067,0.009544769302010536
1761131475271228200,5.589228271484375,-0.02054034359753132,-0.878042459487915,-0.17737999558448792
1761131475281228000,5.59922802734375,-0.036422841250896454,-1.1730903387069702,-0.33315062522888184
1761131475291228200,5.609228271484375,-0.03275764733552933,-1.2457833290100098,-0.44310638308525085
1761131475301228000,5.61922802734375,-0.05230533704161644,-1.1504883766174316,-0.506636381149292
1761131475311228200,5.629228271484375,-0.08162686973810196,-0.8566621541976929,-0.515188455581665
1761131475321228000,5.63922802734375,-0.11950051039457321,-0.4095087945461273,-0.45288023352622986
1761131475331228200,5.649228271484375,-0.16470454633235931,0.05597052723169327,-0.3245985209941864
1761131475341228000,5.65922802734375,-0.20807597041130066,0.42554399371147156,-0.1376737505197525
1761131475351228200,5.669228271484375,-0.23495404422283173,0.6613379716873169,0.08590292185544968
1761131475361228000,5.67922802734375,-0.22518019378185272,0.8140543103218079,0.3333033621311188
1761131475371229000,5.68922900390625,-0.1915826052427292,0.8977428078651428,0.5739842653274536
1761131475381228800,5.699228759765625,-0.15798501670360565,0.899575412273407,0.7804567217826843
1761131475391229000,5.70922900390625,-0.13293954730033875,0.8323802351951599,0.928286075592041
1761131475401229000,5.71922900390625,-0.1152244582772255,0.7163158655166626,1.0168615579605103
1761131475411229000,5.72922900390625,-0.10606148093938828,0.5611560940742493,1.0431287288665771
1761131475421229000,5.73922900390625,-0.10545061528682709,0.35407277941703796,1.0046442747116089
1761131475431229000,5.74922900390625,-0.10667234659194946,0.03764457255601883,0.8623126745223999
1761131475441229000,5.75922900390625,-0.11583532392978668,-0.10896308720111847,0.7248679995536804
1761131475451229000,5.76922900390625,-0.14698944985866547,-0.19142989814281464,0.5605452060699463
1761131475461229000,5.77922900390625,-0.20929770171642303,-0.2280818074941635,0.37056612968444824
1761131475471228200,5.789228271484375,-0.301538348197937,-0.28672486543655396,0.14454598724842072
1761131475481228300,5.799228271484375,-0.4188244938850403,-0.47426050901412964,-0.1419498175382614
1761131475491228200,5.809228271484375,-0.5373323559761047,-0.8126798272132874,-0.4669301211833954
1761131475501228300,5.819228271484375,-0.6118578910827637,-1.1547644138336182,-0.7796931266784668
1761131475511228200,5.829228271484375,-0.634459912776947,-1.4064408540725708,-1.0332021713256836
1761131475521228300,5.839228271484375,-0.6326273083686829,-1.4925729036331177,-1.189583659172058
1761131475531228200,5.849228271484375,-0.6228534579277039,-1.276937484741211,-1.2189052104949951
1761131475541228000,5.85922802734375,-0.6491206884384155,-0.7986299395561218,-1.1352167129516602
1761131475551228200,5.869228271484375,-0.7334200739860535,-0.23235787451267242,-0.9684504866600037
1761131475561228000,5.87922802734375,-0.8623126745223999,0.28993192315101624,-0.7460955381393433
1761131475571229000,5.88922900390625,-1.0028116703033447,0.6857725977897644,-0.477314829826355
1761131475581229000,5.89922900390625,-1.1145999431610107,0.9026297330856323,-0.17737999558448792
1761131475591229000,5.90922900390625,-1.1701887845993042,0.9398925304412842,0.13232868909835815
1761131475601229000,5.91922900390625,-1.1744648218154907,0.8586474657058716,0.4292092025279999
1761131475611229000,5.92922900390625,-1.1494193077087402,0.7370852828025818,0.6796639561653137
1761131475621229000,5.93922900390625,-1.1133782863616943,0.5709299445152283,0.861090898513794
1761131475631229000,5.94922900390625,-1.0755046606063843,0.3430771827697754,0.9545533061027527
1761131475641229000,5.95922900390625,-1.034576654434204,0.0797942727804184,0.9637162685394287
1761131475651229000,5.96922900390625,-0.9783770442008972,-0.17432567477226257,0.9014080166816711
1761131475661229000,5.97922900390625,-0.8623126745223999,-0.515188455581665,0.7114289402961731
1761131475671228200,5.989228271484375,-0.7926740050315857,-0.697226345539093,0.5434409976005554
1761131475681228000,5.99922802734375,-0.7627416253089905,-0.800462543964386,0.34979671239852905
1761131475691228200,6.009228271484375,-0.7926740050315857,-0.8468883037567139,0.13904820382595062
1761131475701228000,6.01922802734375,-0.8800277709960938,-0.9165269136428833,-0.07780896127223969
1761131475711228200,6.029228271484375,-1.0107529163360596,-1.0448086261749268,-0.3001639246940613
1761131475721228000,6.03922802734375,-1.16530179977417,-1.1871402263641357,-0.5304601192474365
1761131475731228200,6.049228271484375,-1.3198506832122803,-1.2720504999160767,-0.7467064261436462
1761131475741228000,6.05922802734375,-1.462793231010437,-1.2793809175491333,-0.9287442564964294
1761131475751228200,6.069228271484375,-1.575803279876709,-1.211574912071228,-1.0625237226486206
1761131475761228000,6.07922802734375,-1.6619352102279663,-1.0716867446899414,-1.1456013917922974
1761131475771229000,6.08922900390625,-1.7193565368652344,-0.8884271383285522,-1.181031584739685
1761131475781228800,6.099228759765625,-1.7425694465637207,-0.6831763982772827,-1.1572078466415405
1761131475791229000,6.10922900390625,-1.7425694465637207,-0.4614323377609253,-1.0716867446899414
1761131475801228800,6.119228759765625,-1.7297413349151611,-0.25679248571395874,-0.9244682192802429
1761131475811229000,6.12922900390625,-1.7059175968170166,-0.13523028790950775,-0.7265478372573853
1761131475821228800,6.139228759765625,-1.670487403869629,-0.11018481850624084,-0.48953214287757874
1761131475831229000,6.14922900390625,-1.632002830505371,-0.1737148016691208,-0.24152085185050964
1761131475841229000,6.15922900390625,-1.594129204750061,-0.30199649930000305,-0.0069485921412706375
1761131475851229000,6.16922900390625,-1.555033802986145,-0.4357759952545166,0.19708040356636047
1761131475861228800,6.179228759765625,-1.507386326789856,-0.5035820603370667,0.36140313744544983
1761131475871228200,6.189228271484375,-1.450575828552246,-0.4712061882019043,0.49151745438575745
1761131475881228000,6.19922802734375,-1.4145348072052002,-0.3746894598007202,0.5819255113601685
1761131475891228200,6.209228271484375,-1.4273630380630493,-0.27695104479789734,0.6185774207115173
1761131475901228000,6.21922802734375,-1.517160177230835,-0.2390773892402649,0.5660430192947388
1761131475911194600,6.229194580078125,-1.5544229745864868,-0.2696206569671631,0.521449863910675
1761131475921161500,6.239161376953125,-1.6283376216888428,-0.4009566605091095,0.39988765120506287
1761131475931128000,6.249128173828125,-1.677817702293396,-0.6233116388320923,0.2361757755279541
1761131475941094700,6.2590947265625,-1.6979763507843018,-1.0252609252929688,-0.07536549866199493
1761131475951061500,6.2690615234375,-1.7059175968170166,-1.2274574041366577,-0.3307071626186371
1761131475961028000,6.279028076171875,-1.7297413349151611,-1.3276392221450806,-0.6159812211990356
1761131475970995700,6.28899560546875,-1.757230281829834,-1.2891547679901123,-0.8865945339202881
1761131475980962300,6.29896240234375,-1.7718909978866577,-1.085736632347107,-1.0924561023712158
1761131475990929000,6.308928955078125,-1.7712801694869995,-0.725937008857727,-1.1969140768051147
1761131476000895700,6.318895751953125,-1.7621171474456787,-0.3087160289287567,-1.1950814723968506
1761131476010862300,6.3288623046875,-1.7590628862380981,0.03520110994577408,-1.0979539155960083
1761131476020829000,6.338828857421875,-1.7566193342208862,0.2722168266773224,-0.9391289353370667
1761131476030795500,6.34879541015625,-1.7321847677230835,0.42493313550949097,-0.735710859298706
1761131476040762400,6.358762451171875,-1.690035104751587,0.46219590306282043,-0.5194645524024963
1761131476050729000,6.36872900390625,-1.642998456954956,0.3882812261581421,-0.3105486333370209
1761131476060695600,6.378695556640625,-1.5977944135665894,0.22884538769721985,-0.12301298975944519
1761131476070661400,6.388661376953125,-1.5446491241455078,0.04558581858873367,0.0339793786406517
1761131476080628200,6.398628173828125,-1.4829517602920532,-0.12667818367481232,0.1604284793138504
1761131476090594800,6.4085947265625,-1.407204508781433,-0.27084237337112427,0.2520582675933838
1761131476100561400,6.4185615234375,-1.3241267204284668,-0.3502548635005951,0.3168099820613861
1761131476110528300,6.4285283203125,-1.2416599988937378,-0.37285688519477844,0.3571271002292633
1761131476120494800,6.438494873046875,-1.178130030632019,-0.3441462218761444,0.36934441328048706
1761131476130461400,6.44846142578125,-1.1231521368026733,-0.27084237337112427,0.37606391310691833
1761131476140428000,6.458427978515625,-1.0724502801895142,-0.14133894443511963,0.38095083832740784
1761131476150395000,6.468394775390625,-1.0431287288665771,-0.07780896127223969,0.36934441328048706
1761131476160361500,6.478361572265625,-1.0309114456176758,-0.11995866149663925,0.34368807077407837
1761131476170328800,6.488328857421875,-1.0309114456176758,-0.21525363624095917,0.321086049079895
1761131476180295700,6.498295654296875,-1.054124355316162,-0.2592359483242035,0.33024901151657104
1761131476190262300,6.50826220703125,-1.0907762050628662,-0.25740334391593933,0.3565162420272827
1761131476200228900,6.518228759765625,-1.1347585916519165,-0.19570595026016235,0.38033998012542725
1761131476210229000,6.52822900390625,-1.1714104413986206,-0.14500413835048676,0.3833943009376526
1761131476220228900,6.538228759765625,-1.1787408590316772,-0.16088663041591644,0.353461891412735
1761131476230229000,6.54822900390625,-1.1451432704925537,-0.17982345819473267,0.3058144152164459
1761131476240228900,6.558228759765625,-1.0657308101654053,-0.19448421895503998,0.2618321180343628
1761131476250229000,6.56822900390625,-0.9514989852905273,-0.19937114417552948,0.21723894774913788
1761131476260228900,6.578228759765625,-0.815276026725769,-0.23602305352687836,0.17264579236507416
1761131476270228200,6.588228271484375,-0.6625596880912781,-0.3038291037082672,0.11950051039457321
1761131476280228000,6.59822802734375,-0.4933500289916992,-0.34231361746788025,0.07918340712785721
1761131476290228000,6.60822802734375,-0.3161991238594055,-0.3355940878391266,0.05597052723169327
1761131476300228000,6.61822802734375,-0.15126550197601318,-0.30688342452049255,0.04314235970377922
1761131476310228000,6.62822802734375,-0.010766499675810337,-0.17493653297424316,0.05719225853681564
1761131476320228000,6.63822802734375,0.0924697294831276,0.0645226389169693,0.10300715267658234
1761131476330228000,6.64822802734375,0.15966489911079407,0.3326924741268158,0.17264579236507416
1761131476340228000,6.65822802734375,0.2085341215133667,0.5086216926574707,0.25328001379966736
1761131476350228000,6.66822802734375,0.25618159770965576,0.5300019383430481,0.3314707577228546
1761131476360228000,6.67822802734375,0.3136029541492462,0.45486554503440857,0.3986659348011017
1761131476370229000,6.68822900390625,0.37835466861724854,0.2966514229774475,0.4389830231666565
1761131476380228900,6.698228759765625,0.4516584873199463,0.0895681157708168,0.4487568736076355
1761131476390229000,6.70822900390625,0.5231297016143799,-0.07841982692480087,0.4292092025279999
1761131476400228900,6.718228759765625,0.5982661247253418,-0.1877647042274475,0.3766747713088989
1761131476410229000,6.72822900390625,0.7039458155632019,-0.1877647042274475,0.2667190432548523
1761131476420228900,6.738228759765625,0.7534258961677551,-0.07292203605175018,0.18425223231315613
1761131476430229000,6.74822900390625,0.7839691638946533,0.10239628702402115,0.09078984707593918
1761131476440228900,6.758228759765625,0.7967973351478577,0.24045182764530182,-0.025885414332151413
1761131476450229000,6.76822900390625,0.7992408275604248,0.3155882656574249,-0.16394096612930298
1761131476460228900,6.778228759765625,0.8016842603683472,0.30459266901016235,-0.3087160289287567
1761131476470228200,6.788228271484375,0.8169559240341187,0.220904141664505,-0.4302782118320465
1761131476480228000,6.79822802734375,0.8438339829444885,0.1146135926246643,-0.5078580975532532
1761131476490228200,6.808228271484375,0.8743772506713867,0.03764457255601883,-0.5481752157211304
1761131476500228000,6.81822802734375,0.9214138388633728,0.03520110994577408,-0.5530621409416199
1761131476510228200,6.828228271484375,0.990441620349884,0.11094839870929718,-0.515799343585968
1761131476520228000,6.83822802734375,1.0674107074737549,0.24045182764530182,-0.4473824203014374
1761131476530228200,6.848228271484375,1.1278862953186035,0.38522690534591675,-0.3612504303455353
1761131476540228000,6.85822802734375,1.1602622270584106,0.48235446214675903,-0.273285835981369
1761131476550228200,6.868228271484375,1.1688143014907837,0.4646393656730652,-0.1987602859735489
1761131476560228000,6.87822802734375,1.1620947122573853,0.3320816159248352,-0.14928019046783447
1761131476570229000,6.88822900390625,1.1553752422332764,0.10728321224451065,-0.11323914676904678
1761131476580228900,6.898228759765625,1.1639273166656494,-0.1126282811164856,-0.08330674469470978
1761131476590229000,6.90822900390625,1.1816424131393433,-0.29222264885902405,-0.05337435007095337
1761131476600228900,6.918228759765625,1.1981358528137207,-0.4302782118320465,-0.028939740732312202
1761131476610229000,6.92822900390625,1.2109639644622803,-0.5261840224266052,-0.0020616701804101467
1761131476620228900,6.938228759765625,1.2176835536956787,-0.5530621409416199,0.0339793786406517
1761131476630229000,6.94822900390625,1.2109639644622803,-0.49319732189178467,0.07857254147529602
1761131476640228900,6.958228759765625,1.169425129890442,-0.3142138123512268,0.15859588980674744
1761131476650228700,6.968228759765625,1.116890788078308,-0.18898643553256989,0.21296289563179016
1761131476660228900,6.978228759765625,1.0435869693756104,-0.054596081376075745,0.2624429762363434
1761131476670228000,6.98822802734375,0.9647852778434753,0.06330090761184692,0.2966514229774475
1761131476680227800,6.998227783203125,0.8939249515533447,0.12072224169969559,0.3125339448451996
1761131476690228000,7.00822802734375,0.8420013785362244,0.18425223231315613,0.3357468247413635
1761131476700227800,7.018227783203125,0.7967973351478577,0.26488643884658813,0.36629006266593933
1761131476710228000,7.02822802734375,0.7332673668861389,0.2874884605407715,0.3870594799518585
1761131476720227800,7.038227783203125,0.6660721898078918,0.2679407596588135,0.3980550765991211
1761131476730228000,7.04822802734375,0.6135377883911133,0.2966514229774475,0.40538543462753296
1761131476740227800,7.058227783203125,0.5738315582275391,0.32963815331459045,0.40110939741134644
1761131476750228000,7.06822802734375,0.5536729693412781,0.31009048223495483,0.36934441328048706
1761131476760227800,7.078227783203125,0.5579490661621094,0.2410627007484436,0.311312198638916
1761131476770228700,7.088228759765625,0.590324878692627,0.17753271758556366,0.24900394678115845
1761131476780228900,7.098228759765625,0.6318637132644653,0.1604284793138504,0.2007455974817276
1761131476790228700,7.108228759765625,0.6532440185546875,0.16470454633235931,0.16226108372211456
1761131476800228900,7.118228759765625,0.6422484517097473,0.16898059844970703,0.12072224169969559
1761131476810228700,7.128228759765625,0.6080399751663208,0.1549306958913803,0.07368562370538712
1761131476820228900,7.138228759765625,0.5707772374153137,0.1201113760471344,0.027259862050414085
1761131476830228700,7.148228759765625,0.5408447980880737,0.06757696717977524,-0.007559457328170538
1761131476840228900,7.158228759765625,0.5231297016143799,0.0016035212902352214,-0.036880988627672195
1761131476850228700,7.168228759765625,0.5005277395248413,-0.027718011289834976,-0.05642867833375931
1761131476860228900,7.178228759765625,0.45349109172821045,-0.07170030474662781,-0.07108944654464722
1761131476870228000,7.18822802734375,0.43394339084625244,-0.152334526181221,-0.11629346758127213
1761131476880227800,7.198227783203125,0.42783474922180176,0.012599095702171326,-0.22624921798706055
1761131476890228000,7.20822802734375,0.42722389101982117,0.10850493609905243,-0.30627256631851196
1761131476900227800,7.218227783203125,0.4504367709159851,0.11766792088747025,-0.3410918712615967
1761131476910228000,7.22822802734375,0.48464521765708923,0.12438743561506271,-0.3081051707267761
1761131476920227800,7.238227783203125,0.5023602843284607,0.10117455571889877,-0.21647536754608154
1761131476930228000,7.24822802734375,0.5103015303611755,0.009544769302010536,-0.12423472106456757
1761131476940228000,7.25822802734375,0.5035820603370667,-0.11690433323383331,-0.07353290170431137
1761131476950228000,7.26822802734375,0.46815183758735657,-0.29649871587753296,-0.09613491594791412
1761131476960228000,7.27822802734375,0.4052327275276184,-0.5384013652801514,-0.21097758412361145
1761131476970229000,7.28822900390625,0.3300963044166565,-0.7503715753555298,-0.39301541447639465
1761131476980228900,7.298228759765625,0.2683989107608795,-0.848110020160675,-0.5829945206642151
1761131476990229000,7.30822900390625,0.2244166135787964,-0.8139016032218933,-0.7131088376045227
1761131477000228900,7.318228759765625,0.18532124161720276,-0.725937008857727,-0.7796931266784668
1761131477010229000,7.32822900390625,0.17554740607738495,-0.668515682220459,-0.7876343727111816
1761131477020228900,7.338228759765625,0.22136229276657104,-0.5878814458847046,-0.7375434041023254
1761131477030229000,7.34822900390625,0.32093334197998047,-0.3814089894294739,-0.6147595047950745
1761131477040229000,7.35822900390625,0.45959973335266113,-0.13034337759017944,-0.43272167444229126
1761131477050229000,7.36822900390625,0.5915466547012329,0.07063129544258118,-0.2140319049358368
1761131477060229000,7.37822900390625,0.6825655698776245,0.2355649173259735,0.015653422102332115
1761131477070228200,7.388228271484375,0.7302130460739136,0.34063372015953064,0.23800836503505707
1761131477080228000,7.39822802734375,0.7460955381393433,0.4194353520870209,0.46036332845687866
1761131477090228200,7.408228271484375,0.7338782548904419,0.4786892831325531,0.6808856725692749
1761131477100228000,7.41822802734375,0.6654613018035889,0.44081562757492065,0.939281702041626
1761131477110228200,7.428228271484375,0.5946009755134583,0.3974441885948181,1.024191975593567
1761131477120228000,7.43822802734375,0.515188455581665,0.33941200375556946,1.0303006172180176
1761131477130228200,7.448228271484375,0.4357759952545166,0.2667190432548523,0.9606619477272034
1761131477140228000,7.45822802734375,0.3612504303455353,0.1958586722612381,0.8268824815750122
1761131477150228000,7.46822802734375,0.28733575344085693,0.1549306958913803,0.6399577260017395
1761131477160228000,7.47822802734375,0.22624921798706055,0.18669569492340088,0.4218788146972656
1761131477170229000,7.48822900390625,0.18959729373455048,0.29848402738571167,0.220904141664505
1761131477180228900,7.498228759765625,0.16699528694152832,0.44081562757492065,0.06574437022209167
1761131477190229000,7.50822900390625,0.1376737505197525,0.5581017732620239,-0.03504839166998863
1761131477200228900,7.518228759765625,0.10407616943120956,0.6399577260017395,-0.07841982692480087
1761131477210229000,7.52822900390625,0.08147415518760681,0.6729444265365601,-0.07841982692480087
1761131477220228900,7.538228759765625,0.082085020840168,0.6491206884384155,-0.045433104038238525
1761131477230229000,7.54822900390625,0.10957395285367966,0.5874232649803162,0.0071013085544109344
1761131477240228900,7.558228759765625,0.15172365307807922,0.49579349160194397,0.06391177326440811
1761131477250229000,7.56822900390625,0.19631682336330414,0.3882812261581421,0.10728321224451065
1761131477260228900,7.578228759765625,0.24518603086471558,0.2960405647754669,0.13293954730033875
1761131477270228000,7.58822802734375,0.29772046208381653,0.23251058161258698,0.14271339774131775
1761131477280228000,7.59822802734375,0.35269832611083984,0.20685423910617828,0.13232868909835815
1761131477290228000,7.60822802734375,0.40340012311935425,0.22945626080036163,0.11400272697210312
1761131477300228000,7.61822802734375,0.4467715620994568,0.28443413972854614,0.0944550409913063
1761131477310228000,7.62822802734375,0.4809800088405609,0.36018142104148865,0.07857254147529602
1761131477320228000,7.63822802734375,0.49991685152053833,0.4420373737812042,0.05597052723169327
1761131477330228000,7.64822802734375,0.5005277395248413,0.5000695586204529,0.025427265092730522
1761131477340228000,7.65822802734375,0.4919756054878235,0.5006804466247559,-0.013057244941592216
1761131477350228000,7.66822802734375,0.4822017550468445,0.44081562757492065,-0.019776761531829834
1761131477360228000,7.67822802734375,0.467540979385376,0.3571271002292633,-0.00939205288887024
1761131477370229000,7.68822900390625,0.45349109172821045,0.3070361316204071,0.012599095702171326
1761131477380228900,7.698228759765625,0.43333253264427185,0.2978731691837311,0.03275764733552933
1761131477390229000,7.70822900390625,0.4150065779685974,0.3161991238594055,0.030925052240490913
1761131477400228900,7.718228759765625,0.4009566605091095,0.35590535402297974,0.0016035212902352214
1761131477410229000,7.72822900390625,0.4009566605091095,0.4035528600215912,-0.0466548316180706
1761131477420228900,7.738228759765625,0.42722389101982117,0.4524220824241638,-0.09918924421072006
1761131477430229000,7.74822900390625,0.47364965081214905,0.5263367891311646,-0.13889548182487488
1761131477440228900,7.758228759765625,0.5267949104309082,0.6210208535194397,-0.16027577221393585
1761131477450229000,7.76822900390625,0.5695554614067078,0.6876052021980286,-0.1688278764486313
1761131477460228900,7.778228759765625,0.6092617511749268,0.7193701863288879,-0.16149750351905823
1761131477470228000,7.78822802734375,0.6569092273712158,0.7804567217826843,-0.132786825299263
1761131477480228000,7.79822802734375,0.7015023827552795,0.815886914730072,-0.08941540122032166
1761131477490228000,7.80822802734375,0.7424303293228149,0.7810675501823425,-0.033826664090156555
1761131477500228000,7.81822802734375,0.7705301642417908,0.6900486350059509,0.029703322798013687
1761131477510228000,7.82822802734375,0.7803040146827698,0.5556582808494568,0.08529205620288849
1761131477520228000,7.83822802734375,0.7760279178619385,0.4035528600215912,0.11400272697210312
1761131477530228000,7.84822802734375,0.7686975598335266,0.27954721450805664,0.10056369006633759
1761131477540228000,7.85822802734375,0.771751880645752,0.22334760427474976,0.05047274008393288
1761131477550228000,7.86822802734375,0.7796931266784668,0.22762365639209747,-0.03199406713247299
1761131477560228000,7.87822802734375,0.801073431968689,0.2355649173259735,-0.1382846236228943
1761131477570229000,7.88822900390625,0.839557945728302,0.14271339774131775,-0.3465896546840668
1761131477580228900,7.898228759765625,0.8701011538505554,0.056581392884254456,-0.49319732189178467
1761131477590229000,7.90822900390625,0.9128617644309998,0.04314235970377922,-0.6031530499458313
1761131477600228900,7.918228759765625,0.9562332034111023,0.06330090761184692,-0.6734025478363037
1761131477610229000,7.92822900390625,0.9849438667297363,0.005879578180611134,-0.7094436287879944
1761131477620228900,7.938228759765625,0.9983828663825989,-0.11812606453895569,-0.7143305540084839
1761131477630229000,7.94822900390625,1.0215957164764404,-0.18165604770183563,-0.6721808314323425
1761131477640228900,7.958228759765625,1.0698541402816772,-0.08269587904214859,-0.5628359913825989
1761131477650229000,7.96822900390625,1.1315515041351318,0.19402606785297394,-0.3795763850212097
1761131477660228900,7.978228759765625,1.187751054763794,0.5996406078338623,-0.1376737505197525
1761131477670228200,7.988228271484375,1.217072606086731,0.9728792905807495,0.12072224169969559
1761131477680228000,7.99822802734375,1.2140183448791504,1.1714104413986206,0.3485749661922455
1761131477690228200,8.008228271484375,1.1932488679885864,1.1420888900756836,0.5098434090614319
1761131477700228000,8.01822802734375,1.1755337715148926,0.8855255246162415,0.5910884737968445
1761131477710228200,8.028228271484375,1.179809808731079,0.4133267104625702,0.5910884737968445
1761131477720228000,8.03822802734375,1.2036336660385132,-0.19692768156528473,0.5153411626815796
1761131477730228200,8.048228271484374,1.2421181201934814,-0.8279514908790588,0.3675118088722229
1761131477740228000,8.05822802734375,1.3025938272476196,-1.2958742380142212,0.18486309051513672
1761131477750228200,8.068228271484376,1.369178056716919,-1.531057357788086,0.03459024429321289
1761131477760228000,8.07822802734375,1.4314863681793213,-1.4913511276245117,-0.05398521572351456
1761131477770229000,8.08822900390625,1.4711925983428955,-1.189583659172058,-0.07658722996711731
1761131477780228900,8.098228759765625,1.4614187479019165,-0.6898959279060364,-0.042989641427993774
1761131477790229000,8.10822900390625,1.391780138015747,-0.09491318464279175,0.026648996397852898
1761131477800228900,8.118228759765625,1.1853076219558716,0.6650031805038452,0.14943291246891022
1761131477810229000,8.12822900390625,1.0423651933670044,0.938670814037323,0.24289529025554657
1761131477820228900,8.138228759765624,0.9470701813697815,1.0083094835281372,0.3479641079902649
1761131477830229000,8.14822900390625,0.9024770259857178,0.9398925304412842,0.4573090076446533
1761131477840229000,8.15822900390625,0.8902597427368164,0.7993935346603394,0.5477170348167419
1761131477850229000,8.16822900390625,0.9000335931777954,0.6088035702705383,0.6130796074867249
1761131477860229000,8.17822900390625,0.9146943688392639,0.41454842686653137,0.6454554796218872
1761131477870228200,8.188228271484375,0.9287442564964294,0.24961480498313904,0.6387359499931335
1761131477880228400,8.198228271484375,0.9342420101165771,0.11094839870929718,0.5855907201766968
1761131477890228200,8.208228271484375,0.9250790476799011,0.014431691728532314,0.49762609601020813
1761131477900228000,8.21822802734375,0.9006444215774536,-0.054596081376075745,0.3717878460884094
1761131477910228200,8.228228271484374,0.8560512661933899,-0.10651962459087372,0.22212587296962738
1761131477920228400,8.238228271484376,0.7986299395561218,-0.12912164628505707,0.06513350456953049
1761131477930228200,8.248228271484376,0.7387651801109314,-0.14011721312999725,-0.07841982692480087
1761131477940228000,8.25822802734375,0.6752351522445679,-0.13156510889530182,-0.19631682336330414
1761131477950228200,8.268228271484375,0.6092617511749268,-0.10163270682096481,-0.27572929859161377
1761131477960228000,8.27822802734375,0.5390121936798096,-0.019776761531829834,-0.3081051707267761
1761131477970229000,8.28822900390625,0.457767128944397,0.10300715267658234,-0.2940552532672882
1761131477980229000,8.29822900390625,0.3643047511577606,0.20441077649593353,-0.24579690396785736
1761131477990229000,8.30822900390625,0.27206411957740784,0.2508365511894226,-0.18043431639671326
1761131478000229000,8.31822900390625,0.19937114417552948,0.2612212598323822,-0.10285443812608719
1761131478010229000,8.32822900390625,0.1578323096036911,0.2661081850528717,-0.024663684889674187
1761131478020229000,8.33822900390625,0.14866933226585388,0.27343854308128357,0.06330090761184692
1761131478030229000,8.34822900390625,0.15477798879146576,0.2563343346118927,0.1860848218202591
1761131478040229000,8.35822900390625,0.1272890418767929,0.23251058161258698,0.23006711900234222
1761131478050229000,8.36822900390625,0.08391761034727097,0.20807597041130066,0.23189972341060638
1761131478060229000,8.37822900390625,0.03871358558535576,0.1702023297548294,0.18913915753364563
1761131478070228200,8.388228271484374,0.004505131393671036,0.0944550409913063,0.10728321224451065
1761131478080228000,8.39822802734375,-0.013820826075971127,0.021762074902653694,0.005268712528049946
1761131478090228200,8.408228271484376,-0.016264287754893303,-0.019165897741913795,-0.10896308720111847
1761131478100228400,8.418228271484375,-0.018707748502492905,-0.06803511828184128,-0.24701863527297974
1761131478110228200,8.428228271484375,-0.02603813074529171,-0.12606731057167053,-0.40278926491737366
1761131478120228400,8.438228271484375,-0.021151209250092506,-0.15416711568832397,-0.5359578728675842
1761131478130228200,8.448228271484375,-0.006490443367511034,-0.11201741546392441,-0.6251442432403564
1761131478140228000,8.45822802734375,0.012446379289031029,-0.028939740732312202,-0.6666830778121948
1761131478150228200,8.468228271484374,0.027718011289834976,0.0694095641374588,-0.6605743765830994
1761131478160228000,8.47822802734375,0.03260493278503418,0.15248723328113556,-0.6135377883911133
1761131478170229000,8.48822900390625,0.02038762718439102,0.17692184448242188,-0.5390121936798096
1761131478180228900,8.498228759765626,0.000839939690195024,0.16165021061897278,-0.4418846368789673
1761131478190229000,8.50822900390625,-0.008933904580771923,0.13904820382595062,-0.3239876627922058
1761131478200228900,8.518228759765625,-0.00038179077091626823,0.13232868909835815,-0.19509509205818176
1761131478210229000,8.52822900390625,0.0264962799847126,0.1359938681125641,-0.05948300287127495
1761131478220228900,8.538228759765625,0.07780896127223969,0.16653713583946228,0.08529205620288849
1761131478230229000,8.54822900390625,0.14561499655246735,0.20868684351444244,0.23800836503505707
1761131478240228900,8.558228759765624,0.2079232633113861,0.24961480498313904,0.38522690534591675
1761131478250229000,8.56822900390625,0.24762949347496033,0.26977336406707764,0.5165629386901855
1761131478260228900,8.578228759765626,0.2488512247800827,0.2624429762363434,0.6234643459320068
1761131478270228000,8.58822802734375,0.1883755773305893,0.19830213487148285,0.7163158655166626
1761131478280228000,8.59822802734375,0.12301298975944519,0.12866349518299103,0.7248679995536804
1761131478290228000,8.60822802734375,0.051541756838560104,0.04619668424129486,0.6778313517570496
1761131478300228000,8.61822802734375,-0.027870727702975273,-0.019165897741913795,0.577038586139679
1761131478310228000,8.62822802734375,-0.09750936180353165,-0.03627012297511101,0.4377613067626953
1761131478320228000,8.63822802734375,-0.14882203936576843,-0.00939205288887024,0.2777146100997925
1761131478330228000,8.64822802734375,-0.1799761801958084,0.03764457255601883,0.11400272697210312
1761131478340228000,8.65822802734375,-0.19769126176834106,0.09201157838106155,-0.033826664090156555
1761131478350228000,8.66822802734375,-0.19402606785297394,0.1604284793138504,-0.13645201921463013
1761131478360228000,8.67822802734375,-0.17692184448242188,0.263053834438324,-0.17982345819473267
1761131478370229000,8.68822900390625,-0.15920674800872803,0.382172554731369,-0.1627192348241806
1761131478380228900,8.698228759765625,-0.15431983768939972,0.47258061170578003,-0.10590875893831253
1761131478390229000,8.70822900390625,-0.1598176211118698,0.5049564838409424,-0.024663684889674187
1761131478400228900,8.718228759765625,-0.1598176211118698,0.4951826333999634,0.07185302674770355
1761131478410229000,8.72822900390625,-0.14821118116378784,0.45120033621788025,0.16165021061897278
1761131478420228900,8.738228759765626,-0.12622003257274628,0.37056612968444824,0.23495404422283173
1761131478430229000,8.74822900390625,-0.1048397496342659,0.27466028928756714,0.2807689309120178
1761131478440228900,8.758228759765625,-0.08345946669578552,0.16653713583946228,0.292375385761261
1761131478450229000,8.76822900390625,-0.060246583074331284,0.05169447138905525,0.272827684879303
1761131478460228900,8.778228759765625,-0.03275764733552933,-0.03321579843759537,0.22945626080036163
1761131478470228000,8.78822802734375,-0.0016035212902352214,-0.051541756838560104,0.16653713583946228
1761131478480228000,8.79822802734375,0.019776761531829834,-0.025885414332151413,0.09628763794898987
1761131478490228000,8.80822802734375,0.018555032089352608,0.021762074902653694,0.018707748502492905
1761131478500228000,8.81822802734375,-0.024205535650253296,0.10239628702402115,-0.07536549866199493
1761131478510228000,8.82822802734375,-0.06879869848489761,0.13721559941768646,-0.12362385541200638
1761131478520228000,8.83822802734375,-0.1201113760471344,0.14210252463817596,-0.16455182433128357
1761131478530228000,8.84822802734375,-0.1598176211118698,0.11583532392978668,-0.19937114417552948
1761131478540228000,8.85822802734375,-0.17936530709266663,0.08284860104322433,-0.2335795909166336
1761131478550228000,8.86822802734375,-0.1750892549753189,0.06574437022209167,-0.2677880525588989
1761131478560228000,8.87822802734375,-0.15370896458625793,0.07002042979001999,-0.2946661114692688
1761131478570229000,8.88822900390625,-0.11827878654003143,0.11217013001441956,-0.3038291037082672
1761131478580228900,8.898228759765624,-0.07735081017017365,0.20807597041130066,-0.2751184403896332
1761131478590229000,8.90822900390625,-0.038866300135850906,0.3216969072818756,-0.21525363624095917
1761131478600228900,8.918228759765626,-0.011988230049610138,0.4176027476787567,-0.13523028790950775
1761131478610229000,8.92822900390625,0.000839939690195024,0.4841870665550232,-0.05337435007095337
1761131478620228900,8.938228759765625,0.019776761531829834,0.49762609601020813,0.027870727702975273
1761131478630229000,8.94822900390625,0.0466548316180706,0.46097418665885925,0.10178542137145996
1761131478640228900,8.958228759765625,0.06803511828184128,0.3723987340927124,0.15248723328113556
1761131478650229000,8.96822900390625,0.07780896127223969,0.24228443205356598,0.1604284793138504
1761131478660228900,8.978228759765624,0.08025242388248444,0.09506590664386749,0.1249983012676239
1761131478670228200,8.988228271484376,0.08819366991519928,-0.04909829422831535,0.04619668424129486
1761131478680228000,8.99822802734375,0.09980010986328125,-0.1376737505197525,-0.07108944654464722
1761131478690228000,9.00822802734375,0.11140654981136322,-0.15050192177295685,-0.20609065890312195
1761131478700228000,9.01822802734375,0.11873693019151688,-0.08452847599983215,-0.3343723714351654
1761131478710228000,9.02822802734375,0.13400855660438538,0.11094839870929718,-0.4198935031890869
1761131478720228000,9.03822802734375,0.14928019046783447,0.3882812261581421,-0.45837801694869995
1761131478730228000,9.04822802734375,0.15111279487609863,0.5568800568580627,-0.4803691506385803
1761131478740228000,9.05822802734375,0.16516269743442535,0.49212831258773804,-0.48892128467559814
1761131478750228000,9.06822802734375,0.20242546498775482,0.3931681513786316,-0.4907538592815399
1761131478760228000,9.07822802734375,0.25190556049346924,0.33941200375556946,-0.4754822254180908
1761131478770229000,9.08822900390625,0.3001639246940613,0.3168099820613861,-0.43821945786476135
1761131478780228900,9.098228759765625,0.35697436332702637,0.22945626080036163,-0.38873937726020813
1761131478790229000,9.10822900390625,0.43883031606674194,0.11033753305673599,-0.3288745880126953
1761131478800228900,9.118228759765625,0.5475643277168274,0.09140071272850037,-0.2482403665781021
1761131478810229000,9.12822900390625,0.6526331305503845,0.20379991829395294,-0.1529453843832016
1761131478820228900,9.138228759765624,0.7216609120368958,0.39622247219085693,-0.05642867833375931
1761131478830229000,9.14822900390625,0.7546476721763611,0.5880341529846191,0.03703370690345764
1761131478840228900,9.158228759765626,0.7680866718292236,0.7352526783943176,0.11766792088747025
1761131478850229000,9.16822900390625,0.7784714102745056,0.7993935346603394,0.16714800894260406
1761131478860228900,9.178228759765625,0.7876343727111816,0.7883979678153992,0.17814357578754425
1761131478870228000,9.18822802734375,0.7919104099273682,0.7224245071411133,0.1457677185535431
1761131478880228000,9.19822802734375,0.7894669771194458,0.5648213028907776,0.0742964819073677
1761131478890228000,9.20822802734375,0.7766388058662415,0.2905427813529968,-0.031383201479911804
1761131478900228000,9.21822802734375,0.7662540674209595,-0.11323914676904678,-0.16577355563640594
1761131478910228000,9.22822802734375,0.7888560891151428,-0.5561164617538452,-0.2983313202857971
1761131478920228000,9.23822802734375,0.8511643409729004,-0.8878162503242493,-0.40278926491737366
1761131478930228000,9.24822802734375,0.9171378016471863,-1.0851258039474487,-0.4650975167751312
1761131478940228000,9.25822802734375,0.9770026206970215,-1.0735193490982056,-0.46326494216918945
1761131478950228000,9.26822802734375,1.0228174924850464,-0.8352818489074707,-0.3856850564479828
1761131478960228000,9.27822802734375,0.9989937543869019,-0.2531272768974304,-0.15966489911079407
1761131478970228700,9.288228759765625,0.9189704060554504,0.1451568603515625,0.033368512988090515
1761131478980228900,9.298228759765625,0.8016842603683472,0.4475351572036743,0.2361757755279541
1761131478990229000,9.30822900390625,0.6758460402488708,0.5910884737968445,0.4218788146972656
1761131479000228900,9.318228759765624,0.5750532746315002,0.5990297198295593,0.5727625489234924
1761131479010229000,9.32822900390625,0.5231297016143799,0.5000695586204529,0.6821073889732361
1761131479020228900,9.338228759765625,0.515188455581665,0.34552064538002014,0.7450265288352966
1761131479030229000,9.34822900390625,0.5322927236557007,0.18730655312538147,0.7639633417129517
1761131479040228900,9.358228759765625,0.5585598945617676,0.059635721147060394,0.7419722080230713
1761131479050229000,9.36822900390625,0.5823836326599121,-0.05398521572351456,0.6759987473487854
1761131479060228900,9.378228759765625,0.6037639379501343,-0.12301298975944519,0.5745950937271118
1761131479070228000,9.38822802734375,0.6208681464195251,-0.12423472106456757,0.453643798828125
1761131479080228000,9.39822802734375,0.629420280456543,-0.10468703508377075,0.32475122809410095
1761131479090228200,9.408228271484376,0.6159812211990356,-0.10346530377864838,0.19341520965099335
1761131479100228000,9.41822802734375,0.5799401998519897,-0.12484558671712875,0.0749073475599289
1761131479110228200,9.428228271484375,0.525573194026947,-0.1578323096036911,-0.021609358489513397
1761131479120228000,9.43822802734375,0.457767128944397,-0.20547980070114136,-0.0924697294831276
1761131479130228000,9.44822802734375,0.38385245203971863,-0.2604576647281647,-0.13523028790950775
1761131479140228000,9.45822802734375,0.3032182455062866,-0.2598468065261841,-0.1529453843832016
1761131479150228000,9.46822802734375,0.21769709885120392,-0.20059287548065186,-0.14928019046783447
1761131479160228000,9.47822802734375,0.13156510889530182,-0.12484558671712875,-0.14072808623313904
1761131479170229000,9.48822900390625,0.05520694702863693,-0.06253732740879059,-0.12362385541200638
1761131479180228900,9.498228759765626,0.008170322515070438,-0.016111571341753006,-0.08636107295751572
1761131479190229000,9.50822900390625,-0.004657847341150045,0.005268712528049946,0.02054034359753132
1761131479200228900,9.518228759765625,0.00022907447419129312,-0.039324451237916946,0.10911580175161362
1761131479210229000,9.52822900390625,-0.018707748502492905,-0.11446087807416916,0.18241962790489197
1761131479220228900,9.538228759765625,-0.07002042979001999,-0.21281017363071442,0.23312145471572876
1761131479230229000,9.54822900390625,-0.1353830099105835,-0.29100093245506287,0.2508365511894226
1761131479240228900,9.558228759765624,-0.20929770171642303,-0.3398701548576355,0.22762365639209747
1761131479250229000,9.56822900390625,-0.28932106494903564,-0.3862959146499634,0.1506546437740326
1761131479260228900,9.578228759765626,-0.37056612968444824,-0.43333253264427185,0.029703322798013687
1761131479270228000,9.58822802734375,-0.43104177713394165,-0.46326494216918945,-0.11690433323383331
1761131479280228000,9.59822802734375,-0.46158504486083984,-0.4718170464038849,-0.2677880525588989
1761131479290228000,9.60822802734375,-0.48113274574279785,-0.4467715620994568,-0.41867175698280334
1761131479300228000,9.61822802734375,-0.5043455958366394,-0.36858081817626953,-0.5573381781578064
1761131479310228000,9.62822802734375,-0.5458844304084778,-0.23602305352687836,-0.6764569282531738
1761131479320228000,9.63822802734375,-0.614912211894989,-0.10590875893831253,-0.7693084478378296
1761131479330228000,9.64822802734375,-0.6924921274185181,-0.07536549866199493,-0.8450556993484497
1761131479340227800,9.658227783203126,-0.7548003792762756,-0.1431715488433838,-0.903698742389679
1761131479350228000,9.66822802734375,-0.7749589085578918,-0.21952970325946808,-0.933631181716919
1761131479360227800,9.678227783203125,-0.7554112076759338,-0.22075143456459045,-0.913472592830658
1761131479370228700,9.688228759765625,-0.6992116570472717,-0.0924697294831276,-0.8212319612503052
1761131479380228900,9.698228759765625,-0.6100252866744995,0.14149166643619537,-0.6593526601791382
1761131479390228700,9.708228759765625,-0.5098434090614319,0.3772856593132019,-0.45349109172821045
1761131479400228900,9.718228759765625,-0.41515928506851196,0.5348888635635376,-0.22563834488391876
1761131479410228700,9.728228759765624,-0.3381902575492859,0.5715407729148865,0.007712173741310835
1761131479420228900,9.738228759765626,-0.2722168266773224,0.4695262908935547,0.2312888503074646
1761131479430228700,9.748228759765626,-0.21235203742980957,0.16959145665168762,0.5067890882492065
1761131479440228900,9.758228759765625,-0.23923009634017944,-0.05032002553343773,0.6228534579277039
1761131479450228700,9.768228759765625,-0.33513593673706055,-0.26229026913642883,0.6650031805038452
1761131479460228900,9.778228759765625,-0.48235446214675903,-0.4369977116584778,0.633849024772644
1761131479470228000,9.78822802734375,-0.6472880840301514,-0.5243514776229858,0.5416083931922913
1761131479480227800,9.798227783203124,-0.7835110425949097,-0.516410231590271,0.40599632263183594
1761131479490228000,9.80822802734375,-0.8671995997428894,-0.425391286611557,0.25938865542411804
1761131479500227800,9.818227783203126,-0.9007971882820129,-0.2531272768974304,0.12255483865737915
1761131479510228000,9.82822802734375,-0.9007971882820129,-0.015500705689191818,0.01748601719737053
1761131479520227800,9.838227783203125,-0.8763625621795654,0.22884538769721985,-0.04787656292319298
1761131479530228000,9.84822802734375,-0.8403214812278748,0.41515928506851196,-0.06559165567159653
1761131479540227800,9.858227783203125,-0.7938957214355469,0.5220606923103333,-0.03871358558535576
1761131479550228000,9.86822802734375,-0.7340309619903564,0.5300019383430481,0.015653422102332115
1761131479560227800,9.878227783203124,-0.6601162552833557,0.46219590306282043,0.09323330968618393
1761131479570228700,9.888228759765624,-0.5819255113601685,0.3626248836517334,0.17692184448242188
1761131479580228900,9.898228759765624,-0.5141194462776184,0.24350616335868835,0.24472789466381073
1761131479590229000,9.90822900390625,-0.46708282828330994,0.10422888398170471,0.27954721450805664
1761131479600228900,9.918228759765626,-0.43531784415245056,-0.027718011289834976,0.27954721450805664
1761131479610229000,9.92822900390625,-0.41577014327049255,-0.14683672785758972,0.23984096944332123
1761131479620228900,9.938228759765625,-0.38644862174987793,-0.23724478483200073,0.17325665056705475
1761131479630228000,9.94822802734375,-0.34429892897605896,-0.28244882822036743,0.09323330968618393
1761131479640228000,9.95822802734375,-0.292375385761261,-0.29222264885902405,0.011988230049610138
1761131479650228000,9.96822802734375,-0.2508365511894226,-0.2690097689628601,-0.060704734176397324
1761131479660228000,9.97822802734375,-0.23373231291770935,-0.18898643553256989,-0.15172365307807922
1761131479670227200,9.988227294921876,-0.23923009634017944,-0.142560675740242,-0.19631682336330414
1761131479680227000,9.99822705078125,-0.2465604841709137,-0.11201741546392441,-0.22686007618904114
1761131479690227200,10.008227294921875,-0.24961480498313904,-0.09430231899023056,-0.2433534413576126
1761131479700227000,10.01822705078125,-0.24411702156066895,-0.10835222154855728,-0.25129470229148865
1761131479720227000,10.03822705078125,-0.2062433809041977,-0.15538884699344635,-0.20975585281848907
1761131479730227200,10.048227294921874,-0.18913915753364563,-0.10102184116840363,-0.16210836172103882
1761131479740227000,10.05822705078125,-0.17386752367019653,-0.008781188167631626,-0.10835222154855728
1761131479750227200,10.068227294921876,-0.15615242719650269,0.10911580175161362,-0.0466548316180706
1761131479760227000,10.07822705078125,-0.13416127860546112,0.23739750683307648,0.021762074902653694
1761131479770228000,10.08822802734375,-0.10300715267658234,0.34429892897605896,0.10178542137145996
1761131479780228000,10.09822802734375,-0.06696610152721405,0.4078288972377777,0.18486309051513672
1761131479790228000,10.10822802734375,-0.0290924571454525,0.4237114191055298,0.25877779722213745
1761131479800228000,10.11822802734375,0.007559457328170538,0.38950294256210327,0.30886873602867126
1761131479820228000,10.13822802734375,0.0869719386100769,0.17264579236507416,0.32963815331459045
1761131479830228000,10.14822802734375,0.12667818367481232,0.02298380434513092,0.292375385761261
1761131479840228000,10.15822802734375,0.16394096612930298,-0.14072808623313904,0.21235203742980957
1761131479850228000,10.16822802734375,0.20181460678577423,-0.25068381428718567,0.09934195876121521
1761131479860228000,10.17822802734375,0.2286926805973053,-0.2500729560852051,-0.028939740732312202
1761131479870227200,10.188227294921875,0.24579690396785736,-0.13400855660438538,-0.1480584591627121
1761131479880227000,10.19822705078125,0.2537381649017334,0.010766499675810337,-0.25557073950767517
1761131479890227200,10.208227294921874,0.2537381649017334,0.05230533704161644,-0.42722389101982117
1761131479900227000,10.21822705078125,0.2653445899486542,-0.016111571341753006,-0.5512295365333557
1761131479910227200,10.228227294921876,0.29100093245506287,-0.06131559982895851,-0.6562983393669128
1761131479920227000,10.23822705078125,0.3239876627922058,-0.04237877577543259,-0.7222718000411987
1761131479930228000,10.24822802734375,0.3508657217025757,-0.051541756838560104,-0.7497607469558716
1761131479940228000,10.25822802734375,0.37835466861724854,-0.14072808623313904,-0.7497607469558716
1761131479950228000,10.26822802734375,0.4296673536300659,-0.2189188301563263,-0.7070001363754272
1761131479960228000,10.27822802734375,0.5194645524024963,-0.13156510889530182,-0.5878814458847046
1761131479970228700,10.288228759765625,0.6147595047950745,0.16775886714458466,-0.38201984763145447
1761131479980228900,10.298228759765625,0.65874183177948,0.5269476175308228,-0.12484558671712875
1761131479990229000,10.30822900390625,0.6446918845176697,0.7737371921539307,0.140269935131073
1761131480000228900,10.318228759765624,0.6049856543540955,0.8562039732933044,0.38461601734161377
1761131480010229000,10.32822900390625,0.554894745349884,0.7908414006233215,0.5758168697357178
1761131480020228900,10.338228759765625,0.515188455581665,0.5727625489234924,0.6759987473487854
1761131480030229000,10.34822900390625,0.5017494559288025,0.22518019378185272,0.6796639561653137
1761131480040228900,10.358228759765625,0.5225188732147217,-0.16943874955177307,0.5971971154212952
1761131480050229000,10.36822900390625,0.5665011405944824,-0.5310709476470947,0.4469242990016937
1761131480060228900,10.378228759765625,0.609872579574585,-0.790688693523407,0.25999951362609863
1761131480070228000,10.38822802734375,0.6306419968605042,-0.8908706307411194,0.07307475805282593
1761131480080228000,10.39822802734375,0.639194130897522,-0.8218428492546082,-0.06559165567159653
1761131480090228000,10.40822802734375,0.6251442432403564,-0.6245333552360535,-0.12056952714920044
1761131480100228000,10.41822802734375,0.5695554614067078,-0.353920042514801,-0.09063713252544403
1761131480110228000,10.42822802734375,0.4724279046058655,-0.03749185428023338,0.013209961354732513
1761131480120228000,10.43822802734375,0.2677880525588989,0.4139375686645508,0.24900394678115845
1761131480130228000,10.44822802734375,0.1321759670972824,0.6026949286460876,0.40660718083381653
1761131480140228000,10.45822802734375,0.03749185428023338,0.6686683893203735,0.5513822436332703
1761131480150228000,10.46822802734375,-0.011988230049610138,0.6277403831481934,0.6857725977897644
1761131480160228000,10.47822802734375,-0.02054034359753132,0.5122868418693542,0.7945066094398499
1761131480170228700,10.488228759765626,-0.004657847341150045,0.3479641079902649,0.8641452193260193
1761131480180228900,10.498228759765626,0.03504839166998863,0.1811978965997696,0.8867472410202026
1761131480190228700,10.508228759765625,0.08452847599983215,0.03275764733552933,0.8568148612976074
1761131480200228900,10.518228759765625,0.13645201921463013,-0.09063713252544403,0.7786241173744202
1761131480210228700,10.528228759765625,0.1883755773305893,-0.1877647042274475,0.6588945388793945
1761131480220228900,10.538228759765625,0.22563834488391876,-0.26656633615493774,0.5110651254653931
1761131480230228700,10.548228759765625,0.24762949347496033,-0.3294854462146759,0.3461315333843231
1761131480240228900,10.558228759765624,0.254349023103714,-0.3789655268192291,0.19280433654785156
1761131480250228700,10.568228759765624,0.24029912054538727,-0.3991240859031677,0.06207918003201485
1761131480260228900,10.578228759765626,0.20120373368263245,-0.4107305109500885,-0.05093089118599892
1761131480270228000,10.58822802734375,0.14011721312999725,-0.41806089878082275,-0.1419498175382614
1761131480280228000,10.59822802734375,0.07658722996711731,-0.415617436170578,-0.21586450934410095
1761131480290228000,10.60822802734375,0.025885414332151413,-0.38812851905822754,-0.2604576647281647
1761131480300228000,10.61822802734375,-0.008933904580771923,-0.34781140089035034,-0.2696206569671631
1761131480310228000,10.62822802734375,-0.03153591975569725,-0.3105486333370209,-0.2390773892402649
1761131480320228000,10.63822802734375,-0.04864014685153961,-0.2745075821876526,-0.18104518949985504
1761131480330228000,10.64822802734375,-0.05474879592657089,-0.24090997874736786,-0.10102184116840363
1761131480340228000,10.65822802734375,-0.048029281198978424,-0.20609065890312195,-0.010002918541431427
1761131480350228000,10.66822802734375,-0.02603813074529171,-0.14133894443511963,0.13293954730033875
1761131480360228000,10.67822802734375,-0.015653422102332115,-0.11018481850624084,0.22518019378185272
1761131480370229000,10.68822900390625,-0.015042556449770927,-0.08941540122032166,0.29359710216522217
1761131480380228900,10.698228759765625,-0.029703322798013687,-0.09063713252544403,0.330859899520874
1761131480390229000,10.70822900390625,-0.059635721147060394,-0.18715384602546692,0.32047519087791443
1761131480400228900,10.718228759765625,-0.10239628702402115,-0.4003458023071289,0.2471713423728943
1761131480410229000,10.72822900390625,-0.15859588980674744,-0.716163158416748,0.08895725011825562
1761131480420228900,10.738228759765626,-0.20868684351444244,-1.0380891561508179,-0.13034337759017944
1761131480430229000,10.74822900390625,-0.2355649173259735,-1.1944706439971924,-0.3643047511577606
1761131480440228900,10.758228759765625,-0.23434318602085114,-1.1883620023727417,-0.5762749910354614
1761131480450229000,10.76822900390625,-0.23189972341060638,-1.0741301774978638,-0.7363216876983643
1761131480460228900,10.778228759765625,-0.24350616335868835,-0.8517752289772034,-0.8120689988136292
1761131480470228000,10.78822802734375,-0.282601535320282,-0.5457317233085632,-0.800462543964386
1761131480480228000,10.79822802734375,-0.36018142104148865,-0.22686007618904114,-0.7308239340782166
1761131480490228000,10.80822802734375,-0.4689154326915741,-0.01366810966283083,-0.6404158473014832
1761131480500228000,10.81822802734375,-0.5758168697357178,-0.016722436994314194,-0.5585598945617676
1761131480510228000,10.82822802734375,-0.6478989720344543,-0.22624921798706055,-0.506636381149292
1761131480520228000,10.83822802734375,-0.6417902708053589,-0.467540979385376,-0.4699844419956207
1761131480530228000,10.84822802734375,-0.586201548576355,-0.5500078201293945,-0.4162282943725586
1761131480540228000,10.85822802734375,-0.5336671471595764,-0.435165137052536,-0.34781140089035034
1761131480550228000,10.86822802734375,-0.5171737670898438,-0.19509509205818176,-0.27206411957740784
1761131480560228000,10.87822802734375,-0.5275585055351257,0.07307475805282593,-0.18043431639671326
1761131480570229000,10.88822900390625,-0.5483279228210449,0.30214923620224,-0.06864598393440247
1761131480580228900,10.898228759765624,-0.5813146233558655,0.42065706849098206,0.05535966157913208
1761131480590229000,10.90822900390625,-0.6399577260017395,0.3723987340927124,0.20257818698883057
1761131480600228900,10.918228759765626,-0.6894378066062927,0.24411702156066895,0.25450173020362854
1761131480610229000,10.92822900390625,-0.7602981328964233,0.07673994451761246,0.26488643884658813
1761131480620228900,10.938228759765625,-0.8415432572364807,-0.08758280426263809,0.2312888503074646
1761131480630229000,10.94822900390625,-0.918512225151062,-0.18409951031208038,0.15370896458625793
1761131480640228900,10.958228759765625,-0.9753227233886719,-0.17615826427936554,0.038866300135850906
1761131480650229000,10.96822900390625,-1.0076985359191895,-0.09491318464279175,-0.09369145333766937
1761131480660228900,10.978228759765624,-1.0138071775436401,0.018096882849931717,-0.223194882273674
1761131480680228000,10.99822802734375,-0.9661597609519958,0.21723894774913788,-0.38812851905822754
1761131480690228000,11.00822802734375,-0.928286075592041,0.2709950804710388,-0.4015675485134125
1761131480700228000,11.01822802734375,-0.8928559422492981,0.3082578778266907,-0.3661373555660248
1761131480710228000,11.02822802734375,-0.8555931448936462,0.34429892897605896,-0.29100093245506287
1761131480720228000,11.03822802734375,-0.8183303475379944,0.391946405172348,-0.18593211472034454
1761131480730228000,11.04822802734375,-0.7829001545906067,0.4328743815422058,-0.0668133869767189
1761131480740228000,11.05822802734375,-0.7499134540557861,0.4432590901851654,0.048029281198978424
1761131480750228000,11.06822802734375,-0.7144832611083984,0.4121049642562866,0.1451568603515625
1761131480760228000,11.07822802734375,-0.6705009937286377,0.3357468247413635,0.2105194330215454
1761131480770229000,11.08822900390625,-0.6167448163032532,0.22823452949523926,0.24228443205356598
1761131480780228900,11.098228759765625,-0.5605452060699463,0.10422888398170471,0.2459496259689331
1761131480790229000,11.10822900390625,-0.5092325210571289,-0.024663684889674187,0.23739750683307648
1761131480800228900,11.118228759765625,-0.4695262908935547,-0.15111279487609863,0.21968241035938263
1761131480810229000,11.12822900390625,-0.4371504485607147,-0.24274258315563202,0.1964695304632187
1761131480820228900,11.138228759765624,-0.4127158224582672,-0.2897791862487793,0.14271339774131775
1761131480830229000,11.14822900390625,-0.40660718083381653,-0.28611400723457336,0.08895725011825562
1761131480840228900,11.158228759765626,-0.3992767930030823,-0.2855031490325928,0.018707748502492905
1761131480850229000,11.16822900390625,-0.38461601734161377,-0.28611400723457336,-0.06986771523952484
1761131480860228900,11.178228759765625,-0.3589596748352051,-0.30749428272247314,-0.1834886521100998
1761131480870228000,11.18822802734375,-0.3271946907043457,-0.34292447566986084,-0.3142138123512268
1761131480880228000,11.19822802734375,-0.2813797891139984,-0.32704198360443115,-0.43333253264427185
1761131480890228000,11.20822802734375,-0.2355649173259735,-0.2293035387992859,-0.5219079852104187
1761131480900228000,11.21822802734375,-0.19463694095611572,-0.08269587904214859,-0.5683337450027466
1761131480910228000,11.22822802734375,-0.16165021061897278,0.10056369006633759,-0.5591707825660706
1761131480920228000,11.23822802734375,-0.12377656996250153,0.3009274899959564,-0.49502992630004883
1761131480930228000,11.24822802734375,-0.08407033234834671,0.47746753692626953,-0.3801872432231903
1761131480940228000,11.25822802734375,-0.04619668424129486,0.5678756237030029,-0.23480132222175598
1761131480950228000,11.26822802734375,-0.0009926559869199991,0.5690973401069641,-0.07353290170431137
1761131480960228000,11.27822802734375,0.05520694702863693,0.5031238794326782,0.07063129544258118
1761131480970228700,11.288228759765625,0.1175151988863945,0.382172554731369,0.16898059844970703
1761131480980228900,11.298228759765625,0.19448421895503998,0.2105194330215454,0.2062433809041977
1761131480990228700,11.308228759765624,0.2891683280467987,-0.0014508049935102463,0.18791742622852325
1761131481000228900,11.318228759765624,0.3960697650909424,-0.23480132222175598,0.13355042040348053
1761131481010228700,11.328228759765626,0.5200753808021545,-0.33253976702690125,0.07612907886505127
1761131481020228900,11.338228759765625,0.639194130897522,-0.23113614320755005,0.027259862050414085
1761131481030228700,11.348228759765625,0.7314347624778748,-0.013057244941592216,-0.02344195358455181
1761131481040228900,11.358228759765625,0.7931321859359741,0.20868684351444244,-0.08636107295751572
1761131481050228700,11.368228759765625,0.8542186617851257,0.501902163028717,-0.20181460678577423
1761131481070228000,11.38822802734375,0.8847619295120239,0.6179665327072144,-0.415617436170578
1761131481080228000,11.39822802734375,0.8548295497894287,0.2661081850528717,-0.5683337450027466
1761131481090228000,11.40822802734375,0.8499426245689392,-0.18104518949985504,-0.6929502487182617
1761131481100228000,11.41822802734375,0.913472592830658,-0.34353533387184143,-0.7247152328491211
1761131481110228000,11.42822802734375,1.0069350004196167,-0.042989641427993774,-0.6501896977424622
1761131481120228000,11.43822802734375,1.0545824766159058,0.5642104148864746,-0.49930599331855774
1761131481130228000,11.44822802734375,1.0215957164764404,1.2050080299377441,-0.29588785767555237
1761131481140227800,11.458227783203125,0.9299659729003906,1.651550531387329,-0.06559165567159653
1761131481150228000,11.46822802734375,0.838336169719696,1.7944929599761963,0.14454598724842072
1761131481160227800,11.478227783203126,0.7607563138008118,1.5794684886932373,0.2856558561325073
1761131481170228700,11.488228759765626,0.7296021580696106,1.0516809225082397,0.3467423915863037
1761131481180228900,11.498228759765626,0.7454846501350403,0.30398181080818176,0.3155882656574249
1761131481190229000,11.50822900390625,0.7931321859359741,-0.5188536643981934,0.19219347834587097
1761131481200228900,11.518228759765625,0.8536078333854675,-1.1339949369430542,0.012599095702171326
1761131481210229000,11.52822900390625,0.8847619295120239,-1.4223233461380005,-0.20731239020824432
1761131481220228900,11.538228759765625,0.8908706307411194,-1.4143821001052856,-0.4565454125404358
1761131481230229000,11.54822900390625,0.9201921224594116,-1.0606911182403564,-0.7277695536613464
1761131481240229000,11.55822900390625,0.9635635614395142,-0.42783474922180176,-0.9922742247581482
1761131481250229000,11.56822900390625,1.0044915676116943,0.33024901151657104,-1.179809808731079
1761131481260229000,11.57822900390625,0.8817076086997986,1.1506410837173462,-0.9171378016471863
1761131481270228200,11.588228271484375,0.5860488414764404,1.412702202796936,-0.5512295365333557
1761131481280228000,11.59822802734375,0.22563834488391876,1.120708703994751,0.10117455571889877
1761131481290228200,11.608228271484375,0.182877779006958,0.7462482452392578,0.5354997515678406
1761131481300228000,11.61822802734375,0.27695104479789734,0.36934441328048706,0.919123113155365
1761131481310228200,11.628228271484375,0.4198935031890869,0.06879869848489761,1.1494193077087402
1761131481320228000,11.63822802734375,0.5200753808021545,-0.11385001242160797,1.225777506828308
1761131481330228200,11.648228271484374,0.5243514776229858,-0.1737148016691208,1.1988993883132935
1761131481340228000,11.65822802734375,0.43272167444229126,-0.19631682336330414,1.109713077545166
1761131481350228200,11.668228271484375,0.33742669224739075,-0.17432567477226257,0.958218514919281
