time,seconds_elapsed,z,y,x
1761132271294014500,0.121014404296875,0.011453723534941673,-0.1350775808095932,-0.24373523890972137
1761132271327232000,0.15423193359375,0.011453723534941673,-0.1350775808095932,-0.24373523890972137
1761132271337232100,0.164232177734375,-0.021532999351620674,-0.14851661026477814,-0.10751228034496307
1761132271347232000,0.17423193359375,-0.09483683109283447,-0.07704538106918335,-0.06658431142568588
1761132271357232000,0.184232177734375,-0.1699732542037964,-0.040393464267253876,-0.031154127791523933
1761132271367232300,0.194232177734375,-0.16142113506793976,-0.046502117067575455,0.019547687843441963
1761132271377232100,0.204232177734375,-0.15042556822299957,-0.0996473953127861,0.1215621829032898
1761132271387232300,0.214232177734375,-0.17730364203453064,-0.29512426257133484,0.24068090319633484
1761132271397232000,0.224232177734375,-0.2616030275821686,-0.530307412147522,0.4196644127368927
1761132271407229700,0.234229736328125,-0.4259257912635803,-0.7825947403907776,0.6493497490882874
1761132271417229600,0.2442294921875,-0.5383250117301941,-0.9744064211845398,0.7348709106445312
1761132271427229700,0.254229736328125,-0.4967861473560333,-0.8198575377464294,0.5357288122177124
1761132271437229600,0.2642294921875,-0.3269656300544739,-0.19372063875198364,-0.2278527319431305
1761132271447229700,0.274229736328125,-0.12782354652881622,0.3652210533618927,-0.8924741148948669
1761132271457229600,0.2842294921875,-0.11804971098899841,0.91438889503479,-1.2901474237442017
1761132271467229700,0.294229736328125,-0.289702832698822,1.4788284301757812,-1.5180001258850098
1761132271477229600,0.3042294921875,-0.526107668876648,2.030439615249634,-1.6853772401809692
1761132271487229700,0.314229736328125,-0.697149932384491,2.1410062313079834,-1.777006983757019
1761132271497229600,0.3242294921875,-0.8242099285125732,1.7457765340805054,-1.8069393634796143
1761132271507229700,0.334229736328125,-0.9109528064727783,1.1257482767105103,-1.7690657377243042
1761132271517229600,0.3442294921875,-0.9256135821342468,0.6162866950035095,-1.6139060258865356
1761132271527229700,0.354229736328125,-0.7619016766548157,0.3053562641143799,-1.1258246898651123
1761132271537229800,0.364229736328125,-0.5438227653503418,-0.04833471402525902,-0.6737843751907349
1761132271547229700,0.374229736328125,-0.22678372263908386,-0.397138774394989,-0.24923302233219147
1761132271557229800,0.384229736328125,0.10064005106687546,-0.23281601071357727,0.13500121235847473
1761132271567229700,0.394229736328125,0.44028112292289734,-1.0574841499328613,0.5809328556060791
1761132271577229800,0.404229736328125,0.6815729141235352,-1.3873512744903564,1.1484266519546509
1761132271587229700,0.414229736328125,0.717613935470581,-1.0391581058502197,1.69148588180542
1761132271597229800,0.424229736328125,0.5551238059997559,-0.7587710022926331,1.8081611394882202
1761132271607229000,0.43422900390625,0.20387627184391022,-0.8027532696723938,0.8967501521110535
1761132271617228800,0.444228759765625,0.27229318022727966,-1.2071460485458374,0.06291911751031876
1761132271627229000,0.45422900390625,0.5881105065345764,-1.0238865613937378,-0.3225368559360504
1761132271637228800,0.464228759765625,0.8061894178390503,-0.7270060181617737,-0.5766568183898926
1761132271647229000,0.47422900390625,0.8092437386512756,-0.49121201038360596,-0.7128797173500061
1761132271657228800,0.484228759765625,0.39813143014907837,0.3694971203804016,-0.3500257730484009
1761132271667229000,0.49422900390625,-0.0007635815418325365,0.7836637496948242,-0.1618792861700058
1761132271677228800,0.504228759765625,-0.19807305932044983,1.0842094421386719,-0.32681289315223694
1761132271687229000,0.51422900390625,-0.19868391752243042,1.5203672647476196,-0.7299839854240417
1761132271697228800,0.524228759765625,-0.2096794992685318,1.779374122619629,-1.2571606636047363
1761132271707229700,0.534229736328125,-0.290313720703125,2.0774762630462646,-1.6957619190216064
1761132271717229600,0.5442294921875,-0.19746218621730804,2.35969614982605,-2.1178698539733887
1761132271727229700,0.554229736328125,0.0029016099870204926,1.84534752368927,-2.4495697021484375
1761132271737229800,0.564229736328125,0.021838432177901268,1.0964267253875732,-2.453845739364624
1761132271747229700,0.574229736328125,0.0633772686123848,0.47334420680999756,-2.1374175548553467
1761132271757229800,0.584229736328125,0.2142609804868698,-0.11797334998846054,-1.3445143699645996
1761132271767229700,0.594229736328125,0.11468994617462158,-0.3733150362968445,-0.8472700715065002
1761132271777229800,0.604229736328125,-0.12538009881973267,-0.5168683528900146,-0.4447098970413208
1761132271787229700,0.614229736328125,-0.37888917326927185,-0.5547419786453247,-0.19853121042251587
1761132271797229800,0.624229736328125,-0.5389358401298523,-0.5461899042129517,-0.13439035415649414
1761132271807229000,0.63422900390625,-0.5474879741668701,-0.7538840770721436,-0.25473082065582275
1761132271817228800,0.644228759765625,-0.39843684434890747,-0.6231589317321777,-0.38240164518356323
1761132271827229000,0.65422900390625,-0.17669276893138885,-0.6390414237976074,-0.33719760179519653
1761132271837228800,0.664228759765625,-0.1736384481191635,-1.2529609203338623,-0.09162978827953339
1761132271847229000,0.67422900390625,-0.38499781489372253,-1.8332829475402832,0.22602014243602753
1761132271857228800,0.684228759765625,-0.6336199641227722,-2.0348684787750244,0.42577308416366577
1761132271867229000,0.69422900390625,-0.8773552179336548,-1.9401843547821045,0.5601634383201599
1761132271877228800,0.704228759765625,-0.764955997467041,-1.7465400695800781,0.7275404930114746
1761132271887229000,0.71422900390625,-0.6159048676490784,-0.9426414370536804,0.9834930300712585
1761132271897228800,0.724228759765625,-0.4222606122493744,0.2241111844778061,1.2443325519561768
1761132271907229700,0.734229736328125,-0.07956519722938538,1.3835334777832031,1.6114624738693237
1761132271917229800,0.744229736328125,0.42562034726142883,1.9650771617889404,2.182621479034424
1761132271927229700,0.754229736328125,0.9369145631790161,1.2876275777816772,2.2119431495666504
1761132271937229800,0.764229736328125,1.1855367422103882,-3.286531448364258,1.2345587015151978
1761132271947229700,0.774229736328125,1.8165605068206787,-3.1570279598236084,1.6224581003189087
1761132271957229800,0.784229736328125,2.2062926292419434,-1.7019469738006592,2.1985039710998535
1761132271967229400,0.7942294921875,2.082286834716797,-0.710512638092041,2.549140691757202
1761132271977229300,0.804229248046875,1.527010440826416,-0.4985423982143402,2.6590964794158936
1761132271987229400,0.8142294921875,0.27779096364974976,-0.8656724095344543,2.3799309730529785
1761132271997229300,0.824229248046875,-0.26771169900894165,-0.7178429961204529,2.132530689239502
1761132272007228700,0.834228759765625,-0.584750771522522,-0.10025826096534729,1.7556266784667969
1761132272017228500,0.844228515625,-0.7050912380218506,0.7763333916664124,1.1917980909347534
1761132272027228400,0.854228515625,-0.6293439269065857,1.4886022806167603,0.5375614166259766
1761132272037228500,0.864228515625,-0.4222606122493744,1.739056944847107,0.0024434609804302454
1761132272047228700,0.874228759765625,-0.1895209401845932,1.408578872680664,-0.2779437005519867
1761132272057228500,0.884228515625,-0.030085112899541855,0.6382778286933899,-0.2565633952617645
1761132272067228700,0.894228759765625,0.0633772686123848,-0.4038582742214203,0.03481931984424591
1761132272077228500,0.904228515625,0.14767667651176453,-1.5681674480438232,0.5968153476715088
1761132272087228400,0.914228515625,0.21120665967464447,-2.7135398387908936,1.4257594347000122
1761132272097228500,0.924228515625,0.1385136991739273,-3.3952653408050537,2.397646188735962
1761132272107229400,0.9342294921875,-0.12782354652881622,-3.407482624053955,3.1893274784088135
1761132272117229300,0.944229248046875,-0.3055853247642517,-2.851595401763916,3.620598316192627
1761132272127229400,0.9542294921875,-0.40026944875717163,-2.1106157302856445,3.5998289585113525
1761132272137229300,0.964229248046875,-0.48579058051109314,-1.3201560974121094,3.2430834770202637
1761132272147229400,0.9742294921875,-0.6342308521270752,-0.6311001777648926,2.785545587539673
1761132272157229300,0.984229248046875,-0.7973318696022034,-0.13141238689422607,2.4104743003845215
1761132272167229400,0.9942294921875,-0.8455902338027954,0.2289981096982956,2.1514673233032227
1761132272177229300,1.004229248046875,-0.8645270466804504,0.4672355651855469,2.0054705142974854
1761132272187229400,1.0142294921875,-0.8578075170516968,0.5961281061172485,1.9712620973587036
1761132272197229300,1.024229248046875,-0.7869471311569214,0.6847035884857178,1.9663752317428589
1761132272207228700,1.034228759765625,-0.6635523438453674,0.7861071825027466,1.9077321290969849
1761132272217228500,1.044228515625,-0.4161519408226013,0.8985064029693604,1.7024813890457153
1761132272227228700,1.054228759765625,-0.26893341541290283,0.9553169012069702,1.4538593292236328
1761132272237228500,1.064228515625,-0.1944078654050827,1.0292315483093262,1.1239920854568481
1761132272247228700,1.074228759765625,-0.18585574626922607,1.1031463146209717,0.7458664774894714
1761132272257228500,1.084228515625,-0.20845776796340942,1.152626395225525,0.35246923565864563
1761132272267229000,1.09422900390625,-0.26771169900894165,1.1465177536010742,-0.04948008432984352
1761132272277228800,1.104228759765625,-0.3520110845565796,1.1489611864089966,-0.4141666293144226
1761132272287229000,1.11422900390625,-0.43386703729629517,1.1685088872909546,-0.7220427393913269
1761132272297228800,1.124228759765625,-0.5065600275993347,1.1569024324417114,-0.9920451641082764
1761132272307229400,1.1342294921875,-0.564592182636261,1.094594120979309,-1.225395679473877
1761132272317229300,1.144229248046875,-0.6165157556533813,1.0438923835754395,-1.4245377779006958
1761132272327229400,1.1542294921875,-0.6574437022209167,1.038394570350647,-1.5851953029632568
1761132272337229300,1.164229248046875,-0.6959282159805298,1.056720495223999,-1.683544635772705
1761132272347229400,1.1742294921875,-0.7130324840545654,1.1733957529067993,-1.7519614696502686
1761132272357229300,1.184229248046875,-0.7038694620132446,1.3548227548599243,-1.8270978927612305
1761132272367229700,1.194229736328125,-0.7252497673034668,1.5069282054901123,-1.9914207458496094
1761132272377229600,1.2042294921875,-0.7081455588340759,1.6578118801116943,-2.1392500400543213
1761132272387229700,1.214229736328125,-0.6305656433105469,1.8135825395584106,-2.29440975189209
1761132272397229600,1.2242294921875,-0.5694791078567505,1.8740582466125488,-2.4678955078125
1761132272407228700,1.234228759765625,-0.49617528915405273,1.8398497104644775,-2.599231719970703
1761132272417230300,1.244230224609375,-0.3923282027244568,1.668196678161621,-2.6535985469818115
1761132272427230500,1.25423046875,-0.2713768780231476,1.400026798248291,-2.598620653152466
1761132272437230300,1.264230224609375,-0.06123924255371094,1.0328967571258545,-2.450791358947754
1761132272447230500,1.27423046875,0.4115704596042633,0.4501313269138336,-1.9645426273345947
1761132272457230300,1.284230224609375,0.8074111342430115,0.2283872365951538,-1.4929546117782593
1761132272467230500,1.29423046875,1.1372783184051514,0.012751812115311623,-1.0824532508850098
1761132272477230300,1.304230224609375,1.3724614381790161,-0.27435484528541565,-0.8588765263557434
1761132272487230500,1.31423046875,1.5318973064422607,-0.8766679763793945,-0.8772025108337402
1761132272497230300,1.324230224609375,1.5050193071365356,-1.917582392692566,-1.2119566202163696
1761132272507231200,1.334231201171875,1.2533427476882935,-3.147865056991577,-1.7470746040344238
1761132272517231000,1.344231201171875,0.8959866166114807,-3.97070050239563,-2.040900707244873
1761132272527231200,1.354231201171875,0.5813909769058228,-3.847916603088379,-1.845423936843872
1761132272537231400,1.3642314453125,0.456163614988327,-2.6994898319244385,-1.302364706993103
1761132272547231200,1.374231201171875,0.3865249752998352,-0.8345182538032532,-0.7061602473258972
1761132272557231400,1.3842314453125,0.21181751787662506,0.866741418838501,-0.33047810196876526
1761132272567231200,1.394231201171875,-0.12110403180122375,1.8429040908813477,-0.22602014243602753
1761132272577231400,1.4042314453125,-0.5658139586448669,2.0823633670806885,-0.30543261766433716
1761132272587231200,1.414231201171875,-0.9781479835510254,1.7915914058685303,-0.384845107793808
1761132272597231400,1.4242314453125,-1.2945761680603027,1.2240976095199585,-0.4740314185619354
1761132272607231000,1.43423095703125,-1.4937182664871216,0.6358343362808228,-0.6065891981124878
1761132272617230800,1.44423095703125,-1.6146695613861084,0.16424639523029327,-0.6951646208763123
1761132272627231000,1.45423095703125,-1.6843081712722778,-0.18272507190704346,-0.6988298296928406
1761132272637230800,1.46423095703125,-1.74356210231781,-0.24808764457702637,-0.48869219422340393
1761132272647231000,1.47423095703125,-1.7301230430603027,-0.084375761449337,-0.10934487730264664
1761132272657230800,1.48423095703125,-1.6610952615737915,0.12515102326869965,0.31581732630729675
1761132272667230700,1.494230712890625,-1.5346461534500122,0.30108019709587097,0.6890559792518616
1761132272677230600,1.504230712890625,-1.3410019874572754,0.4000403881072998,0.9975429177284241
1761132272687230700,1.514230712890625,-0.9940304756164551,0.31207579374313354,1.3768903017044067
1761132272697230600,1.524230712890625,-0.746630072593689,0.15141822397708893,1.588249683380127
1761132272707231500,1.5342314453125,-0.5016731023788452,-0.0006872233934700489,1.7788395881652832
1761132272717229800,1.544229736328125,-0.26404649019241333,-0.0996473953127861,1.9144517183303833
1761132272727230000,1.55422998046875,-0.06429356336593628,-0.1051451787352562,1.987755537033081
1761132272737229800,1.564229736328125,0.08659014850854874,0.023747386410832405,1.9792033433914185
1761132272747229700,1.574229736328125,0.19165897369384766,0.23755022883415222,1.884519338607788
1761132272757440800,1.584440673828125,0.25824329257011414,0.5038874745368958,1.7104226350784302
1761132272767440600,1.594440673828125,0.28206703066825867,0.7873289585113525,1.4685200452804565
1761132272777440800,1.604440673828125,0.27840182185173035,1.0225120782852173,1.1630873680114746
1761132272787440600,1.614440673828125,0.2515237629413605,1.1874456405639648,0.8026769161224365
1761132272797440800,1.624440673828125,0.19104810059070587,1.2906819581985474,0.41661009192466736
1761132272807440000,1.63443994140625,0.11652254313230515,1.3407728672027588,0.04703662544488907
1761132272817439700,1.644439697265625,0.04566217586398125,1.296790599822998,-0.304210901260376
1761132272827439900,1.65443994140625,-0.035582900047302246,1.1538480520248413,-0.6389650702476501
1761132272837439700,1.664439697265625,-0.12538009881973267,0.9724211096763611,-0.921184778213501
1761132272847440000,1.67443994140625,-0.21273382008075714,0.772668182849884,-1.129489779472351
1761132272857439700,1.684439697265625,-0.29886582493782043,0.544204592704773,-1.2669345140457153
1761132272867439900,1.69443994140625,-0.3819434940814972,0.3505602777004242,-1.3463469743728638
1761132272877439700,1.704439697265625,-0.4430300295352936,0.2283872365951538,-1.3897184133529663
1761132272887440000,1.71443994140625,-0.48517972230911255,0.1679115891456604,-1.406822681427002
1761132272897439700,1.724439697265625,-0.4967861473560333,0.17890715599060059,-1.4129313230514526
1761132272907440400,1.7344404296875,-0.47418415546417236,0.24304801225662231,-1.4172073602676392
1761132272917440500,1.7444404296875,-0.3660610020160675,0.38293614983558655,-1.4227051734924316
1761132272927440600,1.754440673828125,-0.2616030275821686,0.4617377817630768,-1.398881435394287
1761132272937440500,1.7644404296875,-0.14065171778202057,0.46295949816703796,-1.3634512424468994
1761132272947440600,1.774440673828125,0.009010262787342072,0.4147011339664459,-1.299310326576233
1761132272957440500,1.7844404296875,0.2197587788105011,0.2742021381855011,-1.1942415237426758
1761132272967440600,1.794440673828125,0.508087158203125,0.08544477820396423,-1.0152580738067627
1761132272977440500,1.8044404296875,0.8361217975616455,-0.1601230502128601,-0.7434229850769043
1761132272987440400,1.8144404296875,1.180649757385254,-0.3574325144290924,-0.3891211748123169
1761132272997440500,1.8244404296875,1.5111279487609863,-0.4881576895713806,-0.009773843921720982
1761132273007439600,1.834439697265625,1.7566957473754883,-0.5846744179725647,0.33047810196876526
1761132273017439700,1.844439697265625,1.8629863262176514,-0.662254273891449,0.6102544069290161
1761132273027439600,1.854439697265625,1.7780760526657104,-0.8131380081176758,0.769079327583313
1761132273037439700,1.864439697265625,1.517236590385437,-1.157055139541626,0.6719517707824707
1761132273047439600,1.874439697265625,1.2240211963653564,-1.6029868125915527,0.3066543638706207
1761132273057439700,1.884439697265625,1.0877982378005981,-1.9872210025787354,-0.19853121042251587
1761132273067439600,1.894439697265625,1.0065531730651855,-2.1026744842529297,-0.5913175344467163
1761132273077439700,1.904439697265625,0.8275696635246277,-2.058692216873169,-0.799011766910553
1761132273087439600,1.914439697265625,0.5648976564407349,-2.066633462905884,-0.9474520087242126
1761132273097439700,1.924439697265625,0.24113905429840088,-2.0379228591918945,-1.027475357055664
1761132273107440600,1.934440673828125,-0.10644327104091644,-2.145435094833374,-1.0286970138549805
1761132273117440500,1.9444404296875,-0.27259862422943115,-2.197969436645508,-0.6414085030555725
1761132273127440600,1.954440673828125,-0.2506074607372284,-2.0324249267578125,0.09224065393209457
1761132273137440500,1.9644404296875,-0.2194533348083496,-1.7721964120864868,0.8020660877227783
1761132273147440600,1.974440673828125,-0.3904955983161926,-1.5211308002471924,1.3078625202178955
1761132273157440500,1.9844404296875,-0.6659958362579346,-1.44294011592865,1.29381263256073
1761132273167440600,1.994440673828125,-0.9854783415794373,-1.4038447141647339,1.1826350688934326
1761132273177440500,2.0044404296875,-1.317789077758789,-1.3397037982940674,1.0366383790969849
1761132273187440600,2.014440673828125,-1.686140775680542,-1.234024167060852,0.8936958312988281
1761132273197440500,2.0244404296875,-2.017840623855591,-1.0422124862670898,0.7507534027099609
1761132273207439600,2.034439697265625,-2.250580310821533,-0.7825947403907776,0.5864306092262268
1761132273217439700,2.044439697265625,-2.3458752632141113,-0.41546472907066345,0.475253164768219
1761132273227439600,2.054439697265625,-2.2963950634002686,0.047571130096912384,0.5534439086914062
1761132273237439700,2.064439697265625,-2.0838141441345215,0.43424883484840393,0.7770205736160278
1761132273247439600,2.074439697265625,-1.7844901084899902,0.6486625075340271,1.0555751323699951
1761132273257439700,2.084439697265625,-1.468672752380371,0.7311293482780457,1.3616186380386353
1761132273267439600,2.094439697265625,-1.1644618511199951,0.6914231181144714,1.6493362188339233
1761132273277439700,2.104439697265625,-0.8822421431541443,0.5802456140518188,1.8539760112762451
1761132273287439600,2.114439697265625,-0.6476698517799377,0.4318053722381592,1.9370536804199219
1761132273297439700,2.124439697265625,-0.46563202142715454,0.27053695917129517,1.892460584640503
1761132273307440600,2.134440673828125,-0.3257438838481903,0.10193813592195511,1.730581283569336
1761132273317440500,2.1444404296875,-0.2396118938922882,-0.03550654277205467,1.4899003505706787
1761132273327406300,2.15440625,-0.21823160350322723,-0.15157094597816467,1.2131783962249756
1761132273337373000,2.164373046875,-0.23716843128204346,-0.2016618847846985,0.9272934198379517
1761132273367273000,2.19427294921875,-0.3617849349975586,-0.1308015137910843,-0.030543262138962746
1761132273377239800,2.20423974609375,-0.43020185828208923,-0.09414960443973541,-0.37690386176109314
1761132273387206400,2.214206298828125,-0.47907108068466187,-0.05688682571053505,-0.6908885836601257
1761132273397173000,2.224173095703125,-0.4882340431213379,-0.013515393249690533,-0.9572258591651917
1761132273407138800,2.234138916015625,-0.4473060667514801,0.026190847158432007,-1.1612548828125
1761132273417105700,2.244105712890625,-0.3874412775039673,0.05367978289723396,-1.2779301404953003
1761132273427072300,2.254072265625,-0.2750420868396759,0.1074359267950058,-1.2596040964126587
1761132273437038800,2.264038818359375,-0.18524488806724548,0.15019649267196655,-1.1753047704696655
1761132273447005400,2.27400537109375,-0.08384125679731369,0.18196149170398712,-1.081842303276062
1761132273456972300,2.28397216796875,0.009010262787342072,0.20517437160015106,-0.9993755221366882
1761132273466939000,2.29393896484375,0.09392052888870239,0.21006128191947937,-0.9272934198379517
1761132273476905500,2.303905517578125,0.17211128771305084,0.21616993844509125,-0.8491026759147644
1761132273486872000,2.3138720703125,0.24846944212913513,0.23510676622390747,-0.7574729323387146
1761132273496839000,2.3238388671875,0.3205515444278717,0.2528218626976013,-0.6719517707824707
1761132273506806500,2.333806640625,0.37369680404663086,0.24671320617198944,-0.6407976150512695
1761132273516773000,2.343773193359375,0.3804163336753845,0.2436588704586029,-0.6646214127540588
1761132273526739700,2.35373974609375,0.3266601860523224,0.25526532530784607,-0.7122688889503479
1761132273536706600,2.36370654296875,0.2099849283695221,0.1727984994649887,-0.7318165898323059
1761132273546673200,2.373673095703125,0.10735956579446793,0.12392928451299667,-0.607810914516449
1761132273556639700,2.3836396484375,0.09025534242391586,0.11843150109052658,-0.3885102868080139
1761132273566606300,2.3936064453125,0.1892155110836029,0.14958561956882477,-0.15882496535778046
1761132273576573200,2.4035732421875,0.3211624026298523,0.2851977050304413,0.00427605677396059
1761132273586539800,2.413539794921875,0.3663664162158966,0.3456733822822571,-0.007941247895359993
1761132273596506400,2.42350634765625,0.30405816435813904,0.2534327208995819,-0.1667662113904953
1761132273606472200,2.43347216796875,0.22708915174007416,0.0970512181520462,-0.44165557622909546
1761132273616438800,2.443438720703125,0.3675881624221802,-0.19188804924488068,-0.807563841342926
1761132273626439700,2.453439697265625,0.9198103547096252,-0.8748353719711304,-1.1624765396118164
1761132273636439800,2.463439697265625,1.8568776845932007,-2.4875197410583496,-1.472796082496643
1761132273646439700,2.473439697265625,2.632065534591675,-4.618828296661377,-1.3145819902420044
1761132273656439800,2.483439697265625,2.4634668827056885,-5.646914482116699,0.7550294399261475
1761132273666439700,2.493439697265625,1.820225715637207,-4.552855014801025,2.0091357231140137
1761132273676439600,2.503439453125,1.1073459386825562,-2.2279019355773926,2.161241292953491
1761132273686439700,2.513439697265625,0.43417248129844666,0.3994295001029968,1.1465940475463867
1761132273696439600,2.523439453125,-0.23839016258716583,2.362750291824341,-0.28099802136421204
1761132273706440400,2.5334404296875,-0.9195048809051514,3.3279175758361816,-1.3658946752548218
1761132273716440600,2.543440673828125,-1.4424055814743042,3.3059263229370117,-1.8399261236190796
1761132273726440400,2.5534404296875,-1.7008016109466553,2.67856764793396,-1.703092336654663
1761132273736440600,2.563440673828125,-1.7160731554031372,1.8783342838287354,-1.2809844017028809
1761132273746440400,2.5734404296875,-1.5596916675567627,1.08482027053833,-0.8845328688621521
1761132273756440600,2.583440673828125,-1.355051875114441,0.4507421851158142,-0.47708576917648315
1761132273766440700,2.593440673828125,-1.125366449356079,0.09094256162643433,0.036651913076639175
1761132273776440600,2.603440673828125,-0.9408851861953735,0.038408152759075165,0.5931501388549805
1761132273786440700,2.613440673828125,-0.8449793457984924,0.23083069920539856,1.1044443845748901
1761132273796440600,2.623440673828125,-0.7979426980018616,0.4715116024017334,1.455691933631897
1761132273806439700,2.633439697265625,-0.7588473558425903,0.6816492676734924,1.6071864366531372
1761132273816439800,2.643439697265625,-0.7014260292053223,0.867352306842804,1.5894713401794434
1761132273826439700,2.653439697265625,-0.6269004344940186,1.0157924890518188,1.4844025373458862
1761132273836439600,2.663439453125,-0.5462662577629089,1.1080331802368164,1.3646728992462158
1761132273846439700,2.673439697265625,-0.4778493344783783,1.1483503580093384,1.2602150440216064
1761132273856439600,2.683439453125,-0.432034432888031,1.1489611864089966,1.1808024644851685
1761132273866439700,2.693439697265625,-0.41004329919815063,1.1483503580093384,1.1325441598892212
1761132273876439600,2.703439453125,-0.4118759036064148,1.208825945854187,1.1264355182647705
1761132273886439700,2.713439697265625,-0.4259257912635803,1.3200033903121948,1.0836749076843262
1761132273896439800,2.723439697265625,-0.5028948187828064,1.3627640008926392,0.9651671051979065
1761132273906440400,2.7334404296875,-0.6275113224983215,1.416520118713379,0.7764097452163696
1761132273916440600,2.743440673828125,-0.7728972434997559,1.4714980125427246,0.5338962078094482
1761132273926440700,2.753440673828125,-0.9286679029464722,1.506317377090454,0.2571742534637451
1761132273936440600,2.763440673828125,-1.0563386678695679,1.5374714136123657,-0.05253441259264946
1761132273946440700,2.773440673828125,-1.13758385181427,1.5490778684616089,-0.3842342495918274
1761132273956440600,2.783440673828125,-1.1675162315368652,1.5112042427062988,-0.7043276429176331
1761132273966440700,2.793440673828125,-1.126588225364685,1.4269047975540161,-0.9816604256629944
1761132273976440600,2.803440673828125,-1.0227410793304443,1.3181707859039307,-1.1887437105178833
1761132273986440700,2.813440673828125,-0.879187822341919,1.159956693649292,-1.3139711618423462
1761132273996440600,2.823440673828125,-0.7276932001113892,0.943710446357727,-1.357953429222107
1761132274006439700,2.833439697265625,-0.5627595782279968,0.7494552731513977,-1.318858027458191
1761132274016439800,2.843439697265625,-0.41004329919815063,0.48250719904899597,-1.2651019096374512
1761132274026439700,2.853439697265625,-0.2860376536846161,0.1679115891456604,-1.1985175609588623
1761132274036439800,2.863439697265625,-0.15836681425571442,-0.12224940955638885,-1.1398745775222778
1761132274046439700,2.873439697265625,-0.013591751456260681,-0.29390254616737366,-1.0812314748764038
1761132274056439600,2.883439453125,0.14095716178417206,-0.3763693571090698,-1.0739010572433472
1761132274066439700,2.893439697265625,0.285121351480484,-0.5046510696411133,-1.0561859607696533
1761132274076439600,2.903439453125,0.447000652551651,-0.6750824451446533,-0.9645562171936035
1761132274086439700,2.913439697265625,0.6821837425231934,-0.9237046241760254,-0.7470881938934326
1761132274096439600,2.923439453125,1.0395399332046509,-1.2651783227920532,-0.3634648323059082
1761132274106440400,2.9334404296875,1.458593487739563,-1.7807486057281494,0.1612684279680252
1761132274116440600,2.943440673828125,2.107332468032837,-2.706209421157837,1.1178834438323975
1761132274126440400,2.9534404296875,2.370615243911743,-2.8754191398620605,1.7214182615280151
1761132274136440600,2.963440673828125,2.2686007022857666,-2.5828146934509277,1.9236146211624146
1761132274146440400,2.9734404296875,1.7102699279785156,-2.3983333110809326,1.2718214988708496
1761132274156440600,2.983440673828125,0.8752171993255615,-2.0654118061065674,-0.10201449692249298
1761132274166440400,2.9934404296875,0.020005837082862854,-1.5889368057250977,-1.788002610206604
1761132274176440600,3.003440673828125,-0.7447974681854248,-1.2138656377792358,-3.26935076713562
1761132274186440400,3.0134404296875,-1.4301882982254028,-1.1607203483581543,-4.158770561218262
1761132274196440600,3.023440673828125,-1.8388570547103882,-1.1381182670593262,-4.252843856811523
1761132274206439700,3.033439697265625,-1.772883653640747,-0.7746534943580627,-3.668856620788574
1761132274216439600,3.043439453125,-1.372156023979187,-0.17478381097316742,-2.778215169906616
1761132274226439700,3.053439697265625,-0.8077165484428406,0.32123875617980957,-1.8564194440841675
1761132274236439600,3.063439453125,-0.2658790946006775,0.43363797664642334,-0.9902125597000122
1761132274246439700,3.073439697265625,-0.08139779418706894,0.23693935573101044,-0.2125810980796814
1761132274256439600,3.083439453125,-0.1944078654050827,-0.11552988737821579,0.3982841372489929
1761132274266439700,3.093439697265625,-0.3165809214115143,-0.4447862505912781,0.6743952035903931
1761132274276439600,3.103439453125,-0.4534147381782532,-0.5913938879966736,0.6475171446800232
1761132274286439700,3.113439697265625,-0.6611089110374451,-0.45089492201805115,0.5833762884140015
1761132274296439600,3.123439453125,-1.0031934976577759,-0.15890131890773773,0.6108652353286743
1761132274306440400,3.1334404296875,-1.392925500869751,0.18990273773670197,0.7055493593215942
1761132274316440600,3.143440673828125,-1.6006196737289429,0.553367555141449,0.8100073337554932
1761132274326440400,3.1534404296875,-1.5945110321044922,1.0072404146194458,0.970054030418396
1761132274336440600,3.163440673828125,-1.3739886283874512,1.3957507610321045,1.254717230796814
1761132274346440400,3.1734404296875,-0.8284859657287598,1.6657531261444092,1.8765780925750732
1761132274356440600,3.183440673828125,-0.43020185828208923,1.5319737195968628,2.4581217765808105
1761132274366440700,3.193440673828125,-0.08078692853450775,1.2033281326293945,3.131906032562256
1761132274376440600,3.203440673828125,0.20326541364192963,0.8087092041969299,3.7959165573120117
1761132274386440700,3.213440673828125,0.3724750876426697,0.6340017914772034,4.346917152404785
1761132274396440600,3.223440673828125,0.6070473194122314,0.37194058299064636,4.749477386474609
1761132274406439700,3.233439697265625,0.6345362663269043,0.24060454964637756,4.91990852355957
1761132274416439800,3.243439697265625,0.508698046207428,0.17646369338035583,4.896084785461426
1761132274426439700,3.253439697265625,0.2955060601234436,0.16485725343227386,4.656014919281006
1761132274436439800,3.263439697265625,0.03222314268350601,0.24976752698421478,4.230241775512695
1761132274446439700,3.273439697265625,-0.2921462953090668,0.28703030943870544,3.5607335567474365
1761132274456439800,3.283439697265625,-0.7600690722465515,0.38415786623954773,2.7171285152435303
1761132274466439700,3.293439697265625,-1.2524265050888062,0.5246568918228149,1.7996090650558472
1761132274476439800,3.303439697265625,-1.7160731554031372,0.7042512893676758,0.8857545852661133
1761132274486439700,3.313439697265625,-2.1394028663635254,0.8368090391159058,0.01710422709584236
1761132274496439600,3.323439453125,-2.4949264526367188,0.9070585370063782,-0.7544185519218445
1761132274506440400,3.3334404296875,-2.7429375648498535,0.9620364308357239,-1.3799445629119873
1761132274516440600,3.343440673828125,-2.836400032043457,1.0744355916976929,-1.8613064289093018
1761132274526440700,3.353440673828125,-2.7624852657318115,1.2363148927688599,-2.199725866317749
1761132274536440600,3.363440673828125,-2.534632682800293,1.418352723121643,-2.364048480987549
1761132274546440700,3.373440673828125,-2.1962132453918457,1.5490778684616089,-2.3689353466033936
1761132274556440600,3.383440673828125,-1.8095356225967407,1.5545756816864014,-2.2540926933288574
1761132274566440400,3.3934404296875,-1.392925500869751,1.434846043586731,-2.0512855052948
1761132274576440600,3.403440673828125,-0.746630072593689,0.9290496706962585,-1.6865988969802856
1761132274586440400,3.4134404296875,-0.3397938013076782,0.3798818290233612,-1.4398094415664673
1761132274596440600,3.423440673828125,0.14217889308929443,-0.19005544483661652,-1.207680583000183
1761132274606439700,3.433439697265625,0.6956228017807007,-0.8387943506240845,-1.0231993198394775
1761132274616439800,3.443439697265625,1.2454015016555786,-1.5809955596923828,-0.8680394887924194
1761132274626439700,3.453439697265625,1.7762434482574463,-2.1515438556671143,-0.6719517707824707
1761132274636439600,3.463439453125,2.1543691158294678,-2.37389874458313,-0.4086688458919525
1761132274646439700,3.473439697265625,2.2514965534210205,-2.5956428050994873,-0.2376265823841095
1761132274656439600,3.483439453125,2.0981693267822266,-3.075171947479248,-0.20097467303276062
1761132274666439700,3.493439697265625,1.810451865196228,-3.7190239429473877,-0.34636059403419495
1761132274676439600,3.503439453125,1.4989105463027954,-4.277354717254639,-0.779464066028595
1761132274686439700,3.513439697265625,1.3223705291748047,-4.411745071411133,-1.2712105512619019
1761132274696439600,3.523439453125,1.268614411354065,-3.9395463466644287,-1.4996742010116577
1761132274706440400,3.5334404296875,1.3871222734451294,-3.303635597229004,-1.3994922637939453
1761132274716440600,3.543440673828125,1.4970779418945312,-2.245616912841797,-0.7904596328735352
1761132274726440400,3.5534404296875,1.5593862533569336,-0.9493609666824341,0.13927727937698364
1761132274736440600,3.563440673828125,1.6351335048675537,0.15019649267196655,1.0714576244354248
1761132274746440400,3.5734404296875,1.603979468345642,0.9907470941543579,1.7617353200912476
1761132274756440600,3.583440673828125,1.442100167274475,1.380479097366333,2.1197023391723633
1761132274766440400,3.5934404296875,1.203251838684082,1.2583060264587402,2.2235496044158936
1761132274776440600,3.603440673828125,0.9943358898162842,0.6382778286933899,2.163684606552124
1761132274786440400,3.6134404296875,0.8092437386512756,-0.17295122146606445,2.0928242206573486
1761132274796440600,3.623440673828125,0.6455318331718445,-0.871781051158905,2.0702223777770996
1761132274806439700,3.633439697265625,0.4488332271575928,-1.0299952030181885,2.0396790504455566
1761132274816439600,3.643439453125,0.19226983189582825,-0.21998783946037292,1.8777997493743896
1761132274826439700,3.653439697265625,0.07620543986558914,0.44768786430358887,1.737911581993103
1761132274836439600,3.663439453125,-0.01970040425658226,1.0072404146194458,1.6236798763275146
1761132274846439700,3.673439697265625,-0.11804971098899841,1.4055246114730835,1.5467108488082886
1761132274856439600,3.683439453125,-0.2102903574705124,1.601001501083374,1.513113260269165
1761132274866439700,3.693439697265625,-0.2756529450416565,1.6297121047973633,1.5180001258850098
1761132274876439600,3.703439453125,-0.3068070709705353,1.5472452640533447,1.5632041692733765
1761132274886439700,3.713439697265625,-0.2664899528026581,1.4146875143051147,1.6407840251922607
1761132274936440600,3.763440673828125,-0.18646661937236786,-0.24992024898529053,1.4611896276474
1761132274956440600,3.783440673828125,-0.3556762933731079,-0.6256023645401001,0.6603453159332275
1761132274966440400,3.7934404296875,-0.5047274231910706,-0.6109415888786316,0.1258382350206375
1761132274976440600,3.803440673828125,-0.7032586336135864,-0.5046510696411133,-0.40683624148368835
1761132274986440400,3.8134404296875,-0.9146180152893066,-0.36903896927833557,-0.8961393237113953
1761132274996440600,3.823440673828125,-1.1229230165481567,-0.19372063875198364,-1.2968668937683105
1761132275006439700,3.833439697265625,-1.2573133707046509,0.041462477296590805,-1.6004669666290283
1761132275016439600,3.843439453125,-1.288467526435852,0.2937498390674591,-1.8112154006958008
1761132275026439700,3.853439697265625,-1.2182179689407349,0.5374850630760193,-1.9242255687713623
1761132275036439600,3.863439453125,-1.060614824295044,0.7256315350532532,-1.9608774185180664
1761132275046439700,3.873439697265625,-0.7496843934059143,0.6902013421058655,-1.9480493068695068
1761132275056439600,3.883439453125,-0.5334380865097046,0.4464661478996277,-1.8979582786560059
1761132275066439700,3.893439697265625,-0.3147483170032501,0.09033169597387314,-1.797776460647583
1761132275076439600,3.903439453125,-0.07528914511203766,-0.32016974687576294,-1.626123309135437
1761132275086439700,3.913439697265625,0.19654589891433716,-0.710512638092041,-1.3878858089447021
1761132275096439600,3.923439453125,0.498924195766449,-0.9902889132499695,-1.1362093687057495
1761132275106440400,3.9334404296875,0.8080220222473145,-1.147281289100647,-0.9205739498138428
1761132275116440600,3.943440673828125,1.0926852226257324,-1.240743637084961,-0.6994407176971436
1761132275126440400,3.9534404296875,1.3981177806854248,-1.394681692123413,-0.45265114307403564
1761132275136440300,3.9634404296875,1.7389806509017944,-1.5706108808517456,-0.13316862285137177
1761132275146440400,3.9734404296875,2.1372647285461426,-1.5235742330551147,0.21074850857257843
1761132275156440600,3.983440673828125,2.520277261734009,-1.3940708637237549,0.36651915311813354
1761132275166440400,3.9934404296875,2.7181975841522217,-1.4246140718460083,0.2480112910270691
1761132275176440600,4.003440673828125,2.6595544815063477,-1.6781232357025146,-0.0806342139840126
1761132275186440400,4.0134404296875,2.3205244541168213,-2.0568597316741943,-0.503963828086853
1761132275196440600,4.023440673828125,1.7066047191619873,-2.3140339851379395,-0.988990843296051
1761132275206439700,4.033439697265625,1.0193814039230347,-2.198580265045166,-1.5161675214767456
1761132275216439600,4.043439453125,0.3969096839427948,-1.7899115085601807,-2.0616703033447266
1761132275226439700,4.053439697265625,-0.07467827945947647,-1.119181513786316,-2.37626576423645
1761132275236439600,4.063439453125,-0.24572055041790009,-0.2713005244731903,-2.39214825630188
1761132275246439700,4.073439697265625,-0.15592335164546967,0.6077345609664917,-2.057394027709961
1761132275256439600,4.083439453125,-0.0032070425804704428,1.1648436784744263,-1.5320500135421753
1761132275266439700,4.093439697265625,0.034666601568460464,1.3206143379211426,-1.0073168277740479
1761132275276439600,4.103439453125,-0.07040221989154816,0.8820130825042725,-0.4899139404296875
1761132275286439700,4.113439697265625,-0.21884247660636902,0.43791401386260986,-0.24434609711170197
1761132275296439600,4.123439453125,-0.39416080713272095,0.15202908217906952,0.08857546001672745
1761132275306440400,4.1334404296875,-0.5621487498283386,0.2027309089899063,0.48685958981513977
1761132275316440600,4.143440673828125,-0.6580545902252197,0.5955172777175903,0.8808676600456238
1761132275326440400,4.1534404296875,-0.6739370822906494,1.0707703828811646,1.178359031677246
1761132275336440600,4.163440673828125,-0.633009135723114,1.4745523929595947,1.3756685256958008
1761132275346440400,4.1734404296875,-0.5499314665794373,1.750052571296692,1.5137240886688232
1761132275356440600,4.183440673828125,-0.4069889783859253,1.8789451122283936,1.6365079879760742
1761132275366440400,4.1934404296875,-0.20112738013267517,1.8300758600234985,1.7666223049163818
1761132275376440600,4.203440673828125,0.022449297830462456,1.5955036878585815,1.9138407707214355
1761132275386440400,4.2134404296875,0.21609358489513397,1.285794973373413,2.113593816757202
1761132275396440600,4.223440673828125,0.3669773042201996,0.9681450724601746,2.308459758758545
1761132275406439700,4.233439697265625,0.456163614988327,0.7213554978370667,2.459343433380127
1761132275416439800,4.243439697265625,0.498924195766449,0.552756667137146,2.5112669467926025
1761132275426439700,4.253439697265625,0.4482223689556122,0.45318564772605896,2.403143882751465
1761132275436439800,4.263439697265625,0.3150537610054016,0.3896556794643402,2.0836613178253174
1761132275446439700,4.273439697265625,0.10919216275215149,0.29130637645721436,1.5809192657470703
1761132275456439800,4.283439697265625,-0.17791450023651123,0.18684840202331543,0.9657779335975647
1761132275466439700,4.293439697265625,-0.4986187517642975,0.14897476136684418,0.33719760179519653
1761132275476439600,4.303439453125,-0.8254316449165344,0.15630514919757843,-0.23090706765651703
1761132275486439700,4.313439697265625,-1.1125383377075195,0.16119205951690674,-0.6951646208763123
1761132275496439600,4.323439453125,-1.306793451309204,0.1575268805027008,-1.045190453529358
1761132275506440400,4.3334404296875,-1.4020884037017822,0.23571762442588806,-1.3292428255081177
1761132275516440600,4.343440673828125,-1.3110694885253906,0.3701079785823822,-1.3946053981781006
1761132275526440400,4.3534404296875,-1.1418598890304565,0.5167156457901001,-1.3933836221694946
1761132275536440600,4.363440673828125,-0.9482156038284302,0.6486625075340271,-1.3518447875976562
1761132275546440700,4.373440673828125,-0.7704538106918335,0.7360162734985352,-1.2791517972946167
1761132275556440600,4.383440673828125,-0.6262896060943604,0.7659486532211304,-1.2021827697753906
1761132275566440400,4.3934404296875,-0.4925101101398468,0.7305184602737427,-1.160033106803894
1761132275576440600,4.403440673828125,-0.33429601788520813,0.6871470212936401,-1.160033106803894
1761132275586440400,4.4134404296875,-0.13209961354732513,0.6223953366279602,-1.2101240158081055
1761132275596440600,4.423440673828125,0.05910121276974678,0.47884199023246765,-1.3139711618423462
1761132275606439700,4.433439697265625,0.20693060755729675,0.29802587628364563,-1.433700680732727
1761132275616439600,4.443439453125,0.33948835730552673,0.035964690148830414,-1.5583171844482422
1761132275626439700,4.453439697265625,0.4231768846511841,-0.4942663311958313,-1.6181820631027222
1761132275636439600,4.463439453125,0.5123631954193115,-1.0556515455245972,-1.4734070301055908
1761132275646439700,4.473439697265625,0.7310529947280884,-0.9200394153594971,-0.931569516658783
1761132275656439600,4.483439453125,0.9656252264976501,-0.5700136423110962,-0.303600013256073
1761132275666439700,4.493439697265625,1.0975720882415771,-0.17478381097316742,0.24862214922904968
1761132275676439600,4.503439453125,1.1763737201690674,0.13003793358802795,0.5638286471366882
1761132275686439700,4.513439697265625,1.1403326988220215,0.21555908024311066,0.6133087277412415
1761132275696439600,4.523439453125,1.117730736732483,-0.1149190217256546,0.33475416898727417
1761132275706440400,4.5334404296875,1.3168727159500122,-1.109407663345337,-0.07819075137376785
1761132275716440300,4.5434404296875,1.665065884590149,-2.6805529594421387,-0.49357911944389343
1761132275726440400,4.5534404296875,1.8623753786087036,-4.367152214050293,-0.6890559792518616
1761132275736440600,4.563440673828125,1.3712397813796997,-5.304830074310303,0.07635815441608429
1761132275746440400,4.5734404296875,0.7683157324790955,-4.319504737854004,0.3927863538265228
1761132275756440600,4.583440673828125,0.0981965884566307,-2.491184711456299,0.16737708449363708
1761132275766440400,4.5934404296875,-0.5694791078567505,-0.6921866536140442,-0.24678955972194672
1761132275776440600,4.603440673828125,-1.1693488359451294,0.368886262178421,-0.5027421116828918
1761132275786440400,4.6134404296875,-1.618945598602295,0.705473005771637,-0.4343251883983612
1761132275796440600,4.623440673828125,-1.9439259767532349,0.5881868600845337,-0.12828169763088226
1761132275806439700,4.633439697265625,-2.010510206222534,0.3847687542438507,0.3335324227809906
1761132275816439800,4.643439697265625,-1.9170478582382202,0.1275944709777832,0.8350527882575989
1761132275826439700,4.653439697265625,-1.753335952758789,-0.1912771761417389,1.2944234609603882
1761132275836439600,4.663439453125,-1.6213890314102173,-0.4093560576438904,1.673770785331726
1761132275846439700,4.673439697265625,-1.5847371816635132,-0.3830888569355011,1.9236146211624146
1761132275856439600,4.683439453125,-1.6311628818511963,-0.16378824412822723,2.0201313495635986
1761132275866439700,4.693439697265625,-1.714240550994873,0.14958561956882477,1.966986060142517
1761132275876439600,4.703439453125,-1.7869335412979126,0.4305836260318756,1.7922786474227905
1761132275886439700,4.713439697265625,-1.8241963386535645,0.621173620223999,1.5558737516403198
1761132275896439600,4.723439453125,-1.8058704137802124,0.734183669090271,1.340238332748413
1761132275906440400,4.7334404296875,-1.7246253490447998,0.7806094288825989,1.1563678979873657
1761132275916440600,4.743440673828125,-1.5890132188796997,0.7940484881401062,0.979216992855072
1761132275926440400,4.7534404296875,-1.4399621486663818,0.8465828895568848,0.816726803779602
1761132275936440600,4.763440673828125,-1.314734697341919,0.91438889503479,0.6407976150512695
1761132275946440400,4.7734404296875,-1.2249375581741333,0.9418778419494629,0.38179078698158264
1761132275956440600,4.783440673828125,-1.1766791343688965,0.8997281193733215,0.02076941914856434
1761132275966440700,4.793440673828125,-1.1406381130218506,0.6773731708526611,-0.6725626587867737
1761132275976440600,4.803440673828125,-1.080162525177002,0.4806745946407318,-1.1301007270812988
1761132275986440700,4.813440673828125,-0.9524916410446167,0.3084105849266052,-1.4776830673217773
1761132275996440600,4.823440673828125,-0.7570147514343262,0.168522447347641,-1.6780468225479126
1761132276006439700,4.833439697265625,-0.5279402732849121,0.11110111325979233,-1.728137731552124
1761132276016439800,4.843439697265625,-0.2768746614456177,0.16180293262004852,-1.671938180923462
1761132276026439700,4.853439697265625,-0.01664607785642147,0.33712124824523926,-1.5436564683914185
1761132276036439800,4.863439697265625,0.26801711320877075,0.54359370470047,-1.3854423761367798
1761132276046439700,4.873439697265625,0.5306891798973083,0.5564218759536743,-1.321912407875061
1761132276056439800,4.883439697265625,0.6528622508049011,0.29802587628364563,-1.3585642576217651
1761132276066439700,4.893439697265625,0.6400340795516968,-0.0849866271018982,-1.431868076324463
1761132276076439800,4.903439697265625,0.5575672388076782,-0.4625013470649719,-1.5473216772079468
1761132276096439800,4.923439697265625,0.4433354437351227,-0.9273697733879089,-1.7708983421325684
1761132276106440400,4.9334404296875,0.4769330322742462,-0.7544949650764465,-1.788002610206604
1761132276116440600,4.943440673828125,0.4775438904762268,-0.22915083169937134,-1.806328535079956
1761132276126440400,4.9534404296875,0.275958389043808,0.07383833825588226,-1.86497163772583
1761132276136440600,4.963440673828125,0.013897184282541275,0.13431400060653687,-1.9248363971710205
1761132276146440400,4.9734404296875,-0.1944078654050827,-0.0593302883207798,-2.14902400970459
1761132276156440600,4.983440673828125,-0.3868304193019867,-0.3788128197193146,-2.538145065307617
1761132276166440400,4.9934404296875,-0.5199990272521973,-0.6353762149810791,-2.9077186584472656
1761132276176440600,5.003440673828125,-0.48090365529060364,-0.6469826698303223,-3.0463850498199463
1761132276186440400,5.0134404296875,-0.2249511331319809,-0.4429536461830139,-2.919935941696167
1761132276196440600,5.023440673828125,0.6094908118247986,-0.316504567861557,-2.0842721462249756
1761132276206439700,5.033439697265625,1.4732542037963867,-0.51992267370224,-1.0519099235534668
1761132276216439800,5.043439697265625,2.1543691158294678,-0.9347001910209656,0.4147774875164032
1761132276226439700,5.053439697265625,2.2093467712402344,-1.3934600353240967,1.8973474502563477
1761132276236439800,5.063439697265625,1.7029396295547485,-1.794798493385315,2.7201828956604004
1761132276246439700,5.073439697265625,1.031598687171936,-1.8864282369613647,2.652376890182495
1761132276256439800,5.083439697265625,0.29184088110923767,-1.5009722709655762,1.8967366218566895
1761132276266439700,5.093439697265625,-0.4992296099662781,-0.65248042345047,0.8851437568664551
1761132276276439600,5.103439453125,-1.2823588848114014,0.38904479146003723,0.02871066704392433
1761132276286439700,5.113439697265625,-1.831526756286621,1.332831621170044,-0.48258355259895325
1761132276296439600,5.123439453125,-2.094198703765869,1.930257797241211,-0.6743952035903931
1761132276306440400,5.1334404296875,-2.129628896713257,2.164829969406128,-0.5778785347938538
1761132276316440600,5.143440673828125,-1.9995146989822388,2.095191478729248,-0.22968533635139465
1761132276326407200,5.1534072265625,-1.7289013862609863,1.7946457862854004,0.28099802136421204
1761132276336373800,5.163373779296875,-1.3843733072280884,1.3768138885498047,0.856433093547821
1761132276346340400,5.17334033203125,-1.0178542137145996,0.9461538791656494,1.4385876655578613
1761132276356307200,5.18330712890625,-0.6940956115722656,0.5582544803619385,1.935831904411316
1761132276366272800,5.193272705078125,-0.4723515510559082,0.2748129963874817,2.2821924686431885
1761132276376239600,5.203239501953125,-0.3459024429321289,0.09827294945716858,2.475836753845215
1761132276386206200,5.213206298828125,-0.3361285924911499,0.008475755341351032,2.514932155609131
1761132276396172800,5.2231728515625,-0.37522396445274353,0.01702786795794964,2.431243658065796
1761132276406138600,5.233138671875,-0.42042800784111023,0.12454015016555786,2.244318962097168
1761132276416105500,5.24310546875,-0.48945578932762146,0.2882520258426666,1.9938641786575317
1761132276426072000,5.253072021484375,-0.5859724879264832,0.38232529163360596,1.7263051271438599
1761132276436038700,5.26303857421875,-0.7038694620132446,0.3908773958683014,1.4453071355819702
1761132276446005500,5.273005615234375,-0.8303185701370239,0.35178202390670776,1.1844676733016968
1761132276455972000,5.28297216796875,-0.9433286786079407,0.29252809286117554,0.9529497623443604
1761132276465938700,5.292938720703125,-1.0471757650375366,0.2027309089899063,0.7586946487426758
1761132276475905300,5.3029052734375,-1.1498011350631714,-0.013515393249690533,0.5180137157440186
1761132276485872000,5.3128720703125,-1.1876747608184814,-0.17905987799167633,0.3689626157283783
1761132276495838700,5.322838623046875,-1.1882855892181396,-0.30001118779182434,0.24984388053417206
1761132276505806300,5.332806396484375,-1.133307695388794,-0.34399348497390747,0.16004669666290283
1761132276515773000,5.34277294921875,-1.0471757650375366,-0.33910655975341797,0.08246681094169617
1761132276525739500,5.352739501953125,-0.9720393419265747,-0.3183371424674988,0.01710422709584236
1761132276535706400,5.362706298828125,-0.9048441648483276,-0.306730717420578,0.004886921960860491
1761132276545673000,5.3726728515625,-0.8407033085823059,-0.31467196345329285,0.10262536257505417
1761132276555639600,5.3826396484375,-0.7973318696022034,-0.3287218511104584,0.2632829248905182
1761132276565606400,5.3926064453125,-0.7722864151000977,-0.37575846910476685,0.4190535545349121
1761132276575573000,5.402572998046875,-0.765566885471344,-0.44173192977905273,0.5314527750015259
1761132276585539600,5.41253955078125,-0.7570147514343262,-0.458225280046463,0.5852088928222656
1761132276595506400,5.42250634765625,-0.6983717083930969,-0.40630173683166504,0.5510004758834839
1761132276605472300,5.43247216796875,-0.5908594131469727,-0.4130212664604187,0.3744603991508484
1761132276615438800,5.44243896484375,-0.43936482071876526,-0.46677741408348083,0.2028072625398636
1761132276625439000,5.45243896484375,-0.20601430535316467,-0.44661885499954224,0.18081611394882202
1761132276635438800,5.46243896484375,0.1085812970995903,-0.20960313081741333,0.26572638750076294
1761132276645439000,5.47243896484375,0.3602577745914459,0.16730071604251862,0.2822197377681732
1761132276655438800,5.48243896484375,0.4164573848247528,0.37682750821113586,0.07696902006864548
1761132276665439700,5.492439697265625,0.14767667651176453,0.1526399552822113,-0.39584067463874817
1761132276675439900,5.50243994140625,-0.4161519408226013,-0.5156466364860535,-1.084285855293274
1761132276685439700,5.512439697265625,-1.010523796081543,-1.0684796571731567,-1.5546520948410034
1761132276695440000,5.52243994140625,-1.374599575996399,-1.298164963722229,-1.7146987915039062
1761132276705440800,5.532440673828125,-1.3519974946975708,-1.241965413093567,-1.7324138879776
1761132276715440600,5.542440673828125,-1.0716103315353394,-0.9212611317634583,-1.7904460430145264
1761132276725440800,5.552440673828125,-0.7625125646591187,-0.5235878825187683,-1.9346102476119995
1761132276735440600,5.562440673828125,-0.5450445413589478,-0.1308015137910843,-2.1258111000061035
1761132276745440800,5.572440673828125,-0.4167627990245819,0.3145192563533783,-2.104430675506592
1761132276755440600,5.582440673828125,-0.3568980097770691,0.7445683479309082,-1.7611244916915894
1761132276765441000,5.59244091796875,-0.2811507284641266,1.0377837419509888,-1.253495454788208
1761132276775441000,5.60244091796875,-0.1492038369178772,1.1019245386123657,-0.8429940342903137
1761132276785440800,5.612440673828125,0.01817324012517929,1.0164034366607666,-0.5992587804794312
1761132276795441000,5.62244091796875,0.1794416606426239,0.8252025842666626,-0.4746423065662384
1761132276805440000,5.63243994140625,0.3376557528972626,0.5753586888313293,-0.42760565876960754
1761132276815440100,5.642440185546875,0.437226802110672,0.359112411737442,-0.4056145250797272
1761132276825440000,5.65243994140625,0.4170682430267334,0.2082286924123764,-0.39767327904701233
1761132276835440000,5.662440185546875,0.32360586524009705,0.13431400060653687,-0.4202753007411957
1761132276845440000,5.67243994140625,0.20815233886241913,0.16424639523029327,-0.503963828086853
1761132276855440100,5.682440185546875,0.09086620807647705,0.3310126066207886,-0.6249151229858398
1761132276865440000,5.69243994140625,0.01572977937757969,0.5484806299209595,-0.7238753437995911
1761132276875439900,5.70243994140625,-0.006872233934700489,0.6902013421058655,-0.7458664774894714
1761132276885440000,5.71243994140625,-0.0032070425804704428,0.6804275512695312,-0.6719517707824707
1761132276895440000,5.72243994140625,-0.006872233934700489,0.563141405582428,-0.5076290369033813
1761132276905440800,5.732440673828125,-0.038637228310108185,0.3866013288497925,-0.2736676335334778
1761132276915440600,5.742440673828125,-0.14553864300251007,0.19601137936115265,-0.02871066704392433
1761132276925440800,5.752440673828125,-0.3165809214115143,-0.004963280167430639,0.16859880089759827
1761132276935440600,5.762440673828125,-0.5804746747016907,-0.2517528533935547,0.2736676335334778
1761132276945440800,5.772440673828125,-0.726471483707428,-0.306730717420578,0.2626720666885376
1761132276955440600,5.782440673828125,-0.8235990405082703,-0.33910655975341797,0.23335053026676178
1761132276965440800,5.792440673828125,-0.8969029188156128,-0.3513238728046417,0.15454891324043274
1761132276975440600,5.802440673828125,-0.9414960741996765,-0.2706896662712097,0.036651913076639175
1761132276985440800,5.812440673828125,-0.9610437750816345,-0.13629931211471558,-0.07208210229873657
1761132276995440600,5.822440673828125,-0.9537133574485779,-0.016569720581173897,-0.1319468915462494
1761132277005439700,5.832439697265625,-0.9127854108810425,0.06589708477258682,-0.1368338167667389
1761132277015440000,5.84243994140625,-0.8272642493247986,0.11415544152259827,-0.08918632566928864
1761132277025439700,5.852439697265625,-0.7240280508995056,0.14469870924949646,-0.021380282938480377
1761132277035439900,5.86243994140625,-0.6171266436576843,0.1636355221271515,0.06352998316287994
1761132277045439700,5.872439697265625,-0.5004513263702393,0.13125966489315033,0.15760323405265808
1761132277055440000,5.88243994140625,-0.3825543522834778,0.01947133056819439,0.23029619455337524
1761132277065439500,5.892439453125,-0.28359419107437134,-0.19738583266735077,0.23335053026676178
1761132277075439600,5.902439697265625,-0.1846340149641037,-0.4991532564163208,0.20891591906547546
1761132277085439500,5.912439453125,-0.04352414980530739,-0.862618088722229,0.2376265823841095
1761132277095439600,5.922439697265625,0.16783522069454193,-1.2089786529541016,0.3842342495918274
1761132277105440500,5.9324404296875,0.45005497336387634,-1.2963323593139648,0.6780604124069214
1761132277115440400,5.9424404296875,0.7115052938461304,-1.070312261581421,0.9724974632263184
1761132277125440500,5.9524404296875,0.8984300494194031,-0.7838164567947388,1.0659598112106323
1761132277135440400,5.9624404296875,0.983951210975647,-0.710512638092041,0.8833111524581909
1761132277145440500,5.9724404296875,1.0126618146896362,-0.7746534943580627,0.5448917746543884
1761132277155440400,5.9824404296875,1.0450377464294434,-0.8992699980735779,0.16371189057826996
1761132277165440500,5.9924404296875,1.0456485748291016,-1.1540007591247559,-0.34208452701568604
1761132277175440400,6.0024404296875,0.8342891931533813,-2.2505040168762207,-1.9162843227386475
1761132277185440500,6.0124404296875,0.6870706677436829,-2.6292402744293213,-3.1135802268981934
1761132277195440400,6.0224404296875,0.49464812874794006,-2.88519287109375,-3.830125093460083
1761132277205439500,6.032439453125,0.3510948121547699,-2.4484243392944336,-3.5723400115966797
1761132277215439600,6.042439697265625,0.3956879675388336,-1.5364024639129639,-2.5754079818725586
1761132277225439500,6.052439453125,1.250288486480713,-1.38307523727417,-2.4019222259521484
1761132277235439600,6.062439697265625,1.5984816551208496,0.743346631526947,-1.7837265729904175
1761132277245439500,6.072439453125,1.0456485748291016,1.8319084644317627,-1.1166616678237915
1761132277255439600,6.082439697265625,0.5893322229385376,1.4550046920776367,-0.7067710757255554
1761132277265439500,6.092439453125,0.47937649488449097,0.9773080348968506,-0.8387179970741272
1761132277275439600,6.102439697265625,0.45982882380485535,0.6077345609664917,-1.2602150440216064
1761132277285439500,6.112439453125,0.32299500703811646,0.37804922461509705,-1.4538593292236328
1761132277295439600,6.122439697265625,0.10613783448934555,0.3798818290233612,-1.367727279663086
1761132277305440500,6.1324404296875,-0.01725694350898266,0.620562732219696,-1.0494664907455444
1761132277315440400,6.1424404296875,-0.023365596309304237,0.9626472592353821,-0.5827654600143433
1761132277325440500,6.1524404296875,-0.004428773187100887,1.2521973848342896,-0.1014036312699318
1761132277335440400,6.1624404296875,0.020005837082862854,1.3664292097091675,0.30604347586631775
1761132277345440500,6.1724404296875,0.03527746722102165,1.2216541767120361,0.5442809462547302
1761132277355440400,6.1824404296875,0.013897184282541275,0.8850674033164978,0.5516113042831421
1761132277365440500,6.1924404296875,-0.02886338345706463,0.542982816696167,0.42210787534713745
1761132277375440400,6.2024404296875,-0.06673702597618103,0.29191723465919495,0.24862214922904968
1761132277385440500,6.2124404296875,-0.08017606288194656,0.15935947000980377,0.11423180252313614
1761132277395440400,6.2224404296875,-0.04902193695306778,0.17646369338035583,0.09468411654233932
1761132277405439700,6.232439697265625,0.06154467165470123,0.4153120219707489,0.27550023794174194
1761132277415439600,6.242439697265625,0.15622878074645996,0.6871470212936401,0.4758640229701996
1761132277425439700,6.252439697265625,0.25274550914764404,0.9376018047332764,0.6792821288108826
1761132277435439600,6.262439697265625,0.3400992155075073,1.0903180837631226,0.8686503767967224
1761132277445439700,6.272439697265625,0.4011857509613037,1.1300243139266968,1.0482447147369385
1761132277455439600,6.282439697265625,0.42439863085746765,1.1263591051101685,1.2565498352050781
1761132277465439700,6.292439697265625,0.4121813178062439,0.9400452375411987,1.434922456741333
1761132277475439600,6.302439697265625,0.4415028691291809,0.48800498247146606,1.4092661142349243
1761132277485439700,6.312439697265625,0.517861008644104,-0.16256651282310486,1.0219775438308716
1761132277495439600,6.322439697265625,0.5203045010566711,-0.9518043994903564,0.28955012559890747
1761132277505440500,6.3324404296875,0.37980547547340393,-1.6200909614562988,-0.6163630485534668
1761132277515440600,6.342440673828125,0.13790282607078552,-1.728214144706726,-1.309084177017212
1761132277525440500,6.3524404296875,-0.10949759185314178,-1.2902237176895142,-1.4770721197128296
1761132277535440600,6.362440673828125,-0.2664899528026581,-0.377591073513031,-1.026253581047058
1761132277545440500,6.3724404296875,-0.25671613216400146,0.5356524586677551,-0.31459560990333557
1761132277555440600,6.382440673828125,-0.06612616032361984,1.0768790245056152,0.20463985204696655
1761132277565440500,6.3924404296875,0.21609358489513397,1.1862239837646484,0.42271876335144043
1761132277575440600,6.402440673828125,0.44028112292289734,0.8600218892097473,0.33719760179519653
1761132277585440500,6.4124404296875,0.5630650520324707,0.35727980732917786,0.07513642311096191
1761132277595440600,6.422440673828125,0.611934244632721,-0.020234910771250725,-0.15332718193531036
1761132277605439700,6.432439697265625,0.5954409241676331,-0.2267073690891266,-0.2718350291252136
1761132277615440000,6.44243994140625,0.5313000679016113,-0.2651918828487396,-0.2779437005519867
1761132277625439700,6.452439697265625,0.4714352488517761,-0.15951219201087952,-0.22052235901355743
1761132277635439900,6.46243994140625,0.4329507350921631,0.18135061860084534,-0.13561208546161652
1761132277645439700,6.472439697265625,0.4268420934677124,0.4165337383747101,-0.11728613078594208
1761132277655440000,6.48243994140625,0.40851613879203796,0.5753586888313293,-0.13316862285137177
1761132277665439700,6.492439697265625,0.36819902062416077,0.6394995450973511,-0.1820378452539444
1761132277675439900,6.50243994140625,0.31749722361564636,0.6181192994117737,-0.25045475363731384
1761132277685439700,6.512439697265625,0.24724771082401276,0.5136613249778748,-0.3090978264808655
1761132277695440000,6.52243994140625,0.15745051205158234,0.3401755690574646,-0.342695415019989
1761132277705440500,6.5324404296875,0.06948592513799667,0.12942707538604736,-0.35124751925468445
1761132277715440400,6.5424404296875,0.02428189292550087,-0.046502117067575455,-0.3335324227809906
1761132277725440500,6.5524404296875,0.014508049935102463,-0.1454622894525528,-0.29077184200286865
1761132277735440400,6.5624404296875,0.013897184282541275,-0.17783814668655396,-0.242513507604599
1761132277745440500,6.5724404296875,0.02428189292550087,-0.1650099754333496,-0.21319197118282318
1761132277755440400,6.5824404296875,0.04688390716910362,-0.1607339233160019,-0.24373523890972137
1761132277765440500,6.5924404296875,0.051770828664302826,-0.2016618847846985,-0.35063666105270386
1761132277775440400,6.6024404296875,0.021838432177901268,-0.2761874496936798,-0.4813618063926697
1761132277785440500,6.6124404296875,-0.044745877385139465,-0.37453675270080566,-0.5809328556060791
1761132277795440400,6.6224404296875,-0.11560624837875366,-0.48632508516311646,-0.6212499737739563
1761132277805439700,6.632439697265625,-0.16264286637306213,-0.568181037902832,-0.5827654600143433
1761132277815439600,6.642439697265625,-0.18219055235385895,-0.5840635299682617,-0.4801400899887085
1761132277825439700,6.652439697265625,-0.20601430535316467,-0.5468007326126099,-0.31031954288482666
1761132277835439600,6.662439697265625,-0.24938572943210602,-0.48571422696113586,-0.07024950534105301
1761132277845439700,6.672439697265625,-0.28725937008857727,-0.42096251249313354,0.19914206862449646
1761132277855439600,6.682439697265625,-0.30314189195632935,-0.37087157368659973,0.4453207552433014
1761132277865439700,6.692439697265625,-0.27809640765190125,-0.33971744775772095,0.7367035150527954
1761132277875439600,6.702439697265625,-0.2451096773147583,-0.3665955066680908,0.8912523984909058
1761132277885439700,6.712439697265625,-0.20662516355514526,-0.4374558627605438,0.9767735004425049
1761132277895439600,6.722439697265625,-0.16142113506793976,-0.5125923156738281,0.9676105380058289
1761132277905440500,6.7324404296875,-0.11927144229412079,-0.5718462467193604,0.856433093547821
1761132277915440400,6.7424404296875,-0.09972374886274338,-0.6231589317321777,0.6548475623130798
1761132277925440500,6.7524404296875,-0.11621711403131485,-0.6543130278587341,0.40622538328170776
1761132277935440400,6.7624404296875,-0.1388191282749176,-0.6280458569526672,0.16554448008537292
1761132277945440500,6.7724404296875,-0.11133018881082535,-0.5254204869270325,-0.01771509274840355
1761132277955440400,6.7824404296875,-0.02825251780450344,-0.33483052253723145,-0.08002334833145142
1761132277965440500,6.7924404296875,0.09269879758358002,-0.17172949016094208,-0.01710422709584236
1761132277975440600,6.802440673828125,0.22770002484321594,-0.1558469980955124,0.09162978827953339
1761132277985440500,6.8124404296875,0.3706424832344055,-0.3030655086040497,0.17287486791610718
1761132277995440600,6.822440673828125,0.4720461070537567,-0.6549239158630371,0.24373523890972137
1761132278005439700,6.832439697265625,0.4775438904762268,-1.127733588218689,0.3090978264808655
1761132278015439600,6.842439697265625,0.4225660264492035,-1.4001795053482056,0.30970868468284607
1761132278025439700,6.852439697265625,0.33948835730552673,-1.2071460485458374,0.2174680233001709
1761132278035439600,6.862439697265625,0.2509129047393799,-0.6231589317321777,0.09040805697441101
1761132278045439700,6.872439697265625,0.14706580340862274,0.17402023077011108,-0.07819075137376785
1761132278055439600,6.882439697265625,0.01878410577774048,0.9223301410675049,-0.3017674386501312
1761132278065439500,6.892439453125,-0.12599095702171326,1.4006376266479492,-0.4697553813457489
1761132278075439600,6.902439697265625,-0.2548835277557373,1.5283085107803345,-0.5076290369033813
1761132278085439500,6.912439453125,-0.35934147238731384,1.3566553592681885,-0.39767327904701233
1761132278095439600,6.922439697265625,-0.5132794976234436,0.8245916962623596,0.05253441259264946
1761132278105440500,6.9324404296875,-0.5096143484115601,0.4910593032836914,0.48808133602142334
1761132278115440400,6.9424404296875,-0.39843684434890747,0.32795828580856323,0.9676105380058289
1761132278125440500,6.9524404296875,-0.26343563199043274,0.38721221685409546,1.4483615159988403
1761132278135440400,6.9624404296875,-0.17791450023651123,0.6382778286933899,1.89979088306427
1761132278145440500,6.9724404296875,-0.1443169116973877,0.9950231313705444,2.2675318717956543
1761132278155440400,6.9824404296875,-0.13820825517177582,1.3206143379211426,2.5198190212249756
1761132278165440500,6.9924404296875,-0.16630806028842926,1.5002087354660034,2.6505444049835205
1761132278175440400,7.0024404296875,-0.49495357275009155,1.2784645557403564,2.63832688331604
1761132278185440500,7.0124404296875,-0.7136433124542236,1.2216541767120361,2.7391197681427
1761132278195440400,7.0224404296875,-0.584750771522522,1.1520154476165771,2.8606820106506348
1761132278205439500,7.032439453125,-0.4564690589904785,0.8325329422950745,2.8985555171966553
1761132278215439600,7.042439697265625,-0.4112650156021118,0.4098142087459564,2.883894920349121
1761132278225439700,7.052439697265625,-0.3727805018424988,0.11598803848028183,2.824640989303589
1761132278235439600,7.062439697265625,-0.3214678466320038,0.0316886343061924,2.7043004035949707
1761132278245439700,7.072439697265625,-0.3055853247642517,-0.08009970188140869,2.4630086421966553
1761132278255439600,7.082439697265625,-0.43997567892074585,-0.16195565462112427,2.2736403942108154
1761132278265439500,7.092439453125,-0.6305656433105469,-0.07826711237430573,2.015855312347412
1761132278275439600,7.102439697265625,-0.9036223888397217,-0.0697149932384491,1.5827518701553345
1761132278285439500,7.112439453125,-1.2695306539535522,-0.07826711237430573,1.034194827079773
1761132278295439600,7.122439697265625,-1.631773829460144,-0.09537133574485779,0.4282165467739105
1761132278305440500,7.1324404296875,-1.9243782758712769,-0.09353873878717422,-0.11972958594560623
1761132278315440400,7.1424404296875,-2.1222984790802,-0.09903652966022491,-0.5674937963485718
1761132278325440500,7.1524404296875,-2.129628896713257,-0.07032585889101028,-0.9511171579360962
1761132278335440400,7.1624404296875,-1.9170478582382202,-0.06482807546854019,-1.036027431488037
1761132278345440500,7.1724404296875,-1.6006196737289429,-0.02451096847653389,-0.9706648588180542
1761132278355440400,7.1824404296875,-1.1827877759933472,0.03413209691643715,-0.7000515460968018
1761132278365440500,7.1924404296875,-0.8523097038269043,-0.043447788804769516,-0.4196644127368927
1761132278375440400,7.2024404296875,-0.5419901609420776,-0.07704538106918335,-0.15027284622192383
1761132278385440500,7.2124404296875,-0.2451096773147583,-0.09109527617692947,-0.0006108652451075613
1761132278395440400,7.2224404296875,-0.0074830991216003895,-0.07887797802686691,0.039095375686883926
1761132278405439500,7.232439453125,0.17577648162841797,-0.04711298272013664,-0.004886921960860491
1761132278415439600,7.242439697265625,0.31383201479911804,-0.011682798154652119,-0.06475171446800232
1761132278425439500,7.252439453125,0.4231768846511841,-0.00557414535433054,-0.0659734457731247
1761132278435439600,7.262439697265625,0.5294674634933472,0.13003793358802795,-0.01466076634824276
1761132278445439500,7.272439453125,0.6339253783226013,0.4000403881072998,-0.07024950534105301
1761132278455439600,7.282439697265625,0.7292203903198242,0.5051091909408569,-0.4709770977497101
1761132278465439500,7.292439453125,0.793361246585846,0.31757357716560364,-1.3072515726089478
1761132278475439600,7.302439697265625,0.7200574278831482,-0.4331798255443573,-2.459954261779785
1761132278485439500,7.312439453125,0.5710062980651855,-1.6769014596939087,-3.542407512664795
1761132278495439600,7.322439697265625,0.4127921760082245,-2.8021152019500732,-3.9571850299835205
1761132278505440500,7.3324404296875,0.37980547547340393,-3.3164637088775635,-3.7568211555480957
1761132278515440400,7.3424404296875,0.46960264444351196,-3.2211687564849854,-2.836247444152832
1761132278525440500,7.3524404296875,0.5734497308731079,-2.031203269958496,-1.5503759384155273
1761132278535440400,7.3624404296875,0.669355571269989,-0.4398993253707886,-1.027475357055664
1761132278545440500,7.3724404296875,0.5422956347465515,0.885678231716156,-1.0115928649902344
1761132278555440400,7.3824404296875,0.01572977937757969,1.818469524383545,-1.1398745775222778
1761132278565440500,7.3924404296875,-0.28848111629486084,1.8239672183990479,-1.0390818119049072
1761132278575440400,7.4024404296875,-0.432645320892334,1.5368605852127075,-0.8417723178863525
1761132278585440500,7.4124404296875,-0.40943244099617004,1.169730544090271,-0.6151412725448608
1761132278595440400,7.4224404296875,-0.29886582493782043,0.8325329422950745,-0.40072759985923767
1761132278605439700,7.432439697265625,-0.18707747757434845,0.5955172777175903,-0.21624629199504852
1761132278615440000,7.44243994140625,-0.11499538272619247,0.4605160355567932,-0.039095375686883926
1761132278625439700,7.452439697265625,-0.058795779943466187,0.4147011339664459,0.1264491081237793
1761132278635439900,7.46243994140625,0.0029016099870204926,0.45929431915283203,0.2632829248905182
1761132278645439700,7.472439697265625,0.08720101416110992,0.5008331537246704,0.39645153284072876
1761132278655440000,7.48243994140625,0.18860463798046112,0.5002222657203674,0.5522221922874451
1761132278665439700,7.492439697265625,0.2716823220252991,0.4501313269138336,0.7428121566772461
1761132278675439900,7.50243994140625,0.28206703066825867,0.2888629138469696,0.9327912330627441
1761132278685439700,7.512439697265625,0.285121351480484,0.1734093725681305,1.1331549882888794
1761132278695440000,7.52243994140625,0.3700316250324249,0.1624137908220291,1.3377948999404907
1761132278705440800,7.532440673828125,0.42500948905944824,0.17524196207523346,1.4966198205947876
1761132278715440600,7.542440673828125,0.43417248129844666,0.14103351533412933,1.5613715648651123
1761132278725440800,7.552440673828125,0.39935314655303955,0.04268420860171318,1.5467108488082886
1761132278735440600,7.562440673828125,0.27840182185173035,-0.10453431308269501,1.5076154470443726
1761132278745440800,7.572440673828125,0.11163562536239624,-0.2114357352256775,1.445918083190918
1761132278755440600,7.582440673828125,-0.07712173461914062,-0.2804635167121887,1.3243558406829834
1761132278765440800,7.592440673828125,-0.31291571259498596,-0.3311653137207031,1.1258246898651123
1761132278775440600,7.602440673828125,-0.5853615999221802,-0.3317761719226837,0.8765916228294373
1761132278785440800,7.612440673828125,-0.8529205918312073,-0.26335927844047546,0.6243042945861816
1761132278795440600,7.622440673828125,-1.2139419317245483,-0.09537133574485779,0.29565876722335815
1761132278805439700,7.632439697265625,-1.3770430088043213,-0.028176158666610718,0.11850785464048386
1761132278815440000,7.64243994140625,-1.4356859922409058,0.009086620062589645,0.005497787147760391
1761132278825439700,7.652439697265625,-1.3764320611953735,0.010919216088950634,-0.048258353024721146
1761132278835439900,7.66243994140625,-1.2450960874557495,-0.044058654457330704,-0.07880161702632904
1761132278845439700,7.672439697265625,-1.1308642625808716,-0.21204659342765808,-0.07208210229873657
1761132278855440000,7.68243994140625,-1.021519422531128,-0.5174792408943176,-0.015882495790719986
1761132278865439700,7.692439697265625,-0.8767443299293518,-0.9554696083068848,0.08796459436416626
1761132278875439900,7.70243994140625,-0.6611089110374451,-1.373301386833191,0.3078760802745819
1761132278885439700,7.712439697265625,-0.3471241891384125,-1.6481907367706299,0.5955936312675476
1761132278895440000,7.72243994140625,0.037110064178705215,-1.6604081392288208,0.817948579788208
1761132278905440500,7.7324404296875,0.4017966091632843,-1.42094886302948,0.8283332586288452
1761132278915440400,7.7424404296875,0.6772968173027039,-1.1204031705856323,0.5375614166259766
1761132278925440500,7.7524404296875,0.7524332404136658,-1.0220539569854736,-0.056810468435287476
1761132278935440400,7.7624404296875,0.5410739183425903,-1.2383002042770386,-0.8112290501594543
1761132278945440500,7.7724404296875,0.17211128771305084,-1.662240743637085,-1.436144232749939
1761132278955440400,7.7824404296875,-0.14737124741077423,-2.064800977706909,-1.9028452634811401
1761132278965440500,7.7924404296875,-0.3306308090686798,-2.197969436645508,-2.3206770420074463
1761132278975440400,7.8024404296875,-0.37400224804878235,-1.8583284616470337,-2.6896395683288574
1761132278985440500,7.8124404296875,-0.22800545394420624,-1.014723539352417,-2.7433958053588867
1761132278995440400,7.8224404296875,0.11163562536239624,0.33162346482276917,-2.4251351356506348
1761132279005439700,7.832439697265625,0.35292738676071167,1.3126730918884277,-1.6548339128494263
1761132279015439600,7.842439697265625,0.5221370458602905,2.055485248565674,-0.826500654220581
1761132279025439500,7.852439453125,0.660803496837616,2.228971004486084,-0.04092797264456749
1761132279035439600,7.862439697265625,0.699288010597229,2.0273854732513428,0.23273965716362
1761132279045439500,7.872439453125,0.7628179788589478,1.7543286085128784,0.34697145223617554
1761132279055439600,7.882439697265625,0.841008722782135,1.4904348850250244,0.4141666293144226
1761132279065439500,7.892439453125,0.9014843702316284,1.2845731973648071,0.484416127204895
1761132279075439600,7.902439697265625,0.9515753388404846,1.1776717901229858,0.5516113042831421
1761132279085439500,7.912439453125,1.003498911857605,1.1880565881729126,0.5772676467895508
1761132279095439600,7.922439697265625,1.069472312927246,1.283962368965149,0.5919284224510193
1761132279105440300,7.932440185546875,1.117730736732483,1.3505467176437378,0.6212499737739563
1761132279115440400,7.9424404296875,1.1464413404464722,1.332831621170044,0.6878342628479004
1761132279125440500,7.9524404296875,1.1464413404464722,1.1843913793563843,0.7605272531509399
1761132279135440400,7.9624404296875,1.1024590730667114,0.9217193126678467,0.8582656979560852
1761132279145440500,7.9724404296875,1.0181596279144287,0.6199518442153931,0.9749409556388855
1761132279155440400,7.9824404296875,0.9008735418319702,0.3291800022125244,1.0891727209091187
1761132279165440500,7.9924404296875,0.7139487266540527,0.08544477820396423,1.1820242404937744
1761132279175440400,8.0024404296875,0.49464812874794006,-0.055054228752851486,1.2205088138580322
1761132279185440500,8.0124404296875,0.3010038435459137,-0.1149190217256546,1.141707181930542
1761132279195440400,8.0224404296875,0.10919216275215149,-0.06299547851085663,0.978606104850769
1761132279205439500,8.032439453125,-0.0679587572813034,0.04512767121195793,0.7782423496246338
1761132279215439600,8.042439697265625,-0.2402227520942688,0.1324813961982727,0.5870414972305298
1761132279225439700,8.052439697265624,-0.4112650156021118,0.2039526402950287,0.4092797040939331
1761132279235439600,8.062439697265624,-0.5865833759307861,0.26137396693229675,0.26511552929878235
1761132279245439500,8.072439453125,-0.7502952218055725,0.2949715554714203,0.1563815027475357
1761132279255439600,8.082439697265626,-0.8956811428070068,0.2894737720489502,0.03420845419168472
1761132279265439500,8.092439453125,-0.9091202020645142,0.2583196461200714,-0.02687807008624077
1761132279275439600,8.102439697265625,-0.8663596510887146,0.22960896790027618,-0.08002334833145142
1761132279285439500,8.112439453125,-0.7863363027572632,0.18501581251621246,-0.11850785464048386
1761132279295439600,8.122439697265625,-0.7020368576049805,0.13553573191165924,-0.10995574295520782
1761132279305440500,8.1324404296875,-0.633009135723114,0.07139487564563751,-0.06230825558304787
1761132279315440400,8.1424404296875,-0.5578727126121521,0.0011453722836449742,-0.04337143152952194
1761132279325440500,8.1524404296875,-0.4570799171924591,-0.1308015137910843,-0.07513642311096191
1761132279335440400,8.1624404296875,-0.3251330256462097,-0.4698317348957062,-0.11301007121801376
1761132279345440500,8.1724404296875,-0.128434419631958,-0.8558985590934753,-0.04214970022439957
1761132279355440400,8.1824404296875,0.052381694316864014,-1.2474632263183594,0.0861319974064827
1761132279365440500,8.1924404296875,0.1898263692855835,-1.670792818069458,0.19914206862449646
1761132279375440400,8.2024404296875,0.2557998299598694,-2.0177643299102783,0.12034045159816742
1761132279385440500,8.2124404296875,0.19104810059070587,-2.533945322036743,-0.4355469346046448
1761132279395440400,8.2224404296875,-0.04596760869026184,-3.2743141651153564,-1.5332717895507812
1761132279405439500,8.232439453125,-0.4381431043148041,-3.806988477706909,-2.869844913482666
1761132279415439600,8.242439697265626,-0.9188940525054932,-3.7568976879119873,-3.975511074066162
1761132279425439500,8.252439453125,-1.2420417070388794,-3.3335680961608887,-4.48436164855957
1761132279435439600,8.262439697265625,-1.147357702255249,-2.030592441558838,-4.278500080108643
1761132279445439500,8.272439453125,-0.8895725011825562,-0.700127899646759,-3.7116172313690186
1761132279455439600,8.282439697265625,-0.7240280508995056,0.8655197024345398,-2.7873780727386475
1761132279465439500,8.292439453125,-0.5627595782279968,1.6926312446594238,-2.2986860275268555
1761132279475439600,8.302439697265624,-0.6757696866989136,1.8679496049880981,-1.9272798299789429
1761132279485439700,8.312439697265624,-1.0783299207687378,1.9131536483764648,-1.4672982692718506
1761132279495439600,8.322439697265626,-1.2878566980361938,2.159943103790283,-1.2669345140457153
1761132279505440500,8.3324404296875,-1.3807082176208496,2.5912139415740967,-1.1050552129745483
1761132279515440400,8.3424404296875,-1.3953689336776733,3.035313129425049,-1.0128145217895508
1761132279525440500,8.3524404296875,-1.3037391901016235,3.340745687484741,-0.9425650835037231
1761132279535440400,8.3624404296875,-1.1455250978469849,3.3865606784820557,-0.8796459436416626
1761132279545440500,8.3724404296875,-0.9195048809051514,3.102508306503296,-0.7751879692077637
1761132279555440400,8.3824404296875,-0.6598871946334839,2.5124123096466064,-0.5027421116828918
1761132279565440500,8.3924404296875,-0.38499781489372253,1.714011549949646,-0.08002334833145142
1761132279575440400,8.4024404296875,-0.09239336848258972,0.9693667888641357,0.38667771220207214
1761132279585440500,8.4124404296875,0.22831088304519653,0.3450624942779541,0.7745771408081055
1761132279595440400,8.4224404296875,0.508087158203125,-0.06482807546854019,1.0201449394226074
1761132279605439700,8.432439697265625,0.7695375084877014,-0.22792910039424896,1.1074986457824707
1761132279615439600,8.442439697265625,0.9851729273796082,-0.05871942266821861,1.1838568449020386
1761132279625439700,8.452439697265625,1.12506103515625,0.1734093725681305,1.3084733486175537
1761132279635439600,8.462439697265625,1.1342240571975708,0.21433734893798828,1.3768903017044067
1761132279645439700,8.472439697265624,1.0853548049926758,0.08483391255140305,1.3585642576217651
1761132279655439600,8.482439697265624,0.9955576062202454,-0.2212095707654953,1.3750576972961426
1761132279665439700,8.492439697265626,0.8629998564720154,-0.5938373804092407,1.50211763381958
1761132279675439600,8.502439697265626,0.7194465398788452,-0.9536370038986206,1.683544635772705
1761132279685439700,8.512439697265625,0.6107125282287598,-1.2095896005630493,1.8350391387939453
1761132279695439600,8.522439697265625,0.5349652171134949,-1.3409255743026733,1.8527542352676392
1761132279705440500,8.5324404296875,0.45555275678634644,-1.3690253496170044,1.7232508659362793
1761132279715440400,8.5424404296875,0.40424007177352905,-1.2273045778274536,1.3652838468551636
1761132279725440500,8.5524404296875,0.3407101035118103,-0.9902889132499695,1.10139000415802
1761132279735440400,8.5624404296875,0.21365012228488922,-0.8876635432243347,0.8521569967269897
1761132279745440500,8.5724404296875,-0.018478672951459885,-1.0263299942016602,0.6780604124069214
1761132279755440400,8.5824404296875,-0.33307427167892456,-1.6885079145431519,0.6536257863044739
1761132279765440500,8.5924404296875,-0.622013509273529,-2.3164772987365723,0.9272934198379517
1761132279775440400,8.6024404296875,-0.8510879874229431,-2.725757122039795,1.3322970867156982
1761132279785440500,8.6124404296875,-0.9830349087715149,-3.0617330074310303,1.6273449659347534
1761132279795440400,8.6224404296875,-0.9775370955467224,-3.265151023864746,1.778228759765625
1761132279805439700,8.632439697265625,-0.8681922554969788,-3.2822554111480713,1.7678439617156982
1761132279815439600,8.642439697265624,-0.7191411256790161,-3.228499174118042,1.6059647798538208
1761132279825439700,8.652439697265624,-0.4363104999065399,-3.279201030731201,0.931569516658783
1761132279835439600,8.662439697265626,-0.32391130924224854,-2.4569764137268066,0.4092797040939331
1761132279845439700,8.672439697265625,-0.5572618246078491,-1.661018967628479,0.06841690838336945
1761132279855439600,8.682439697265625,-0.9628763198852539,-1.5015830993652344,-0.36102136969566345
1761132279865439700,8.692439697265625,-1.4234687089920044,-1.7550922632217407,-1.009149432182312
1761132279875439600,8.702439697265625,-1.887115478515625,-2.2309563159942627,-1.7739527225494385
1761132279885439700,8.712439697265625,-2.269517183303833,-2.599918842315674,-2.4892759323120117
1761132279895439600,8.722439697265624,-2.4191792011260986,-2.538832426071167,-3.0408871173858643
1761132279905440500,8.7324404296875,-2.2291998863220215,-2.120389699935913,-3.3115005493164062
1761132279915440400,8.7424404296875,-1.923767328262329,-1.6927839517593384,-3.386636972427368
1761132279925440500,8.7524404296875,-1.6055065393447876,-1.2303589582443237,-3.343876361846924
1761132279935440400,8.7624404296875,-1.201724648475647,-0.8736136555671692,-3.2754595279693604
1761132279945440500,8.7724404296875,-0.46563202142715454,0.08788824081420898,-2.966972589492798
1761132279955440400,8.7824404296875,0.04566217586398125,0.9614255428314209,-2.475836753845215
1761132279965440500,8.7924404296875,0.4714352488517761,1.796478271484375,-1.870469331741333
1761132279975440600,8.802440673828125,0.8819366693496704,2.0884718894958496,-1.2180652618408203
1761132279985440500,8.8124404296875,1.1757628917694092,1.9968421459197998,-0.6701191663742065
1761132279995440600,8.822440673828124,1.3089314699172974,1.4898239374160767,-0.23029619455337524
1761132280005439700,8.832439697265626,1.3742940425872803,0.9388235211372375,0.2675589919090271
1761132280015439600,8.842439697265625,1.4286611080169678,0.6364452242851257,0.9053022861480713
1761132280025439700,8.852439697265625,1.448819637298584,0.6718754172325134,1.5949691534042358
1761132280035439600,8.862439697265625,1.3987287282943726,0.8783478736877441,2.2198843955993652
1761132280045439700,8.872439697265625,1.2655600309371948,1.151404619216919,2.6639833450317383
1761132280055439600,8.882439697265625,1.023046612739563,1.3945289850234985,2.8631253242492676
1761132280065439700,8.892439697265624,0.7383833527565002,1.4030810594558716,2.7568347454071045
1761132280075439600,8.902439697265624,0.5685628056526184,1.305342674255371,2.392759084701538
1761132280085439700,8.912439697265626,0.5398521423339844,1.2155455350875854,1.938886284828186
1761132280095439600,8.922439697265625,0.566730260848999,1.1923326253890991,1.513113260269165
1761132280105440500,8.9324404296875,0.5899431109428406,1.229595422744751,1.1624765396118164
1761132280115440400,8.9424404296875,0.6070473194122314,1.3548227548599243,0.9053022861480713
1761132280125440500,8.9524404296875,0.650418758392334,1.511815071105957,0.7086036801338196
1761132280145440500,8.9724404296875,0.7622070908546448,1.88322114944458,0.5155702829360962
1761132280155440400,8.9824404296875,0.7567093372344971,1.6052775382995605,0.5180137157440186
1761132280165440500,8.9924404296875,0.6125451326370239,1.076268196105957,0.5308418869972229
1761132280175440400,9.0024404296875,0.37797287106513977,0.29741501808166504,0.5613851547241211
1761132280185440500,9.0124404296875,0.19104810059070587,-0.2816852331161499,0.503963828086853
1761132280195440400,9.0224404296875,-0.02275473065674305,-0.8021424412727356,0.39095374941825867
1761132280205439500,9.032439453125,-0.2243402600288391,-1.1240683794021606,0.2987131178379059
1761132280215439600,9.042439697265625,-0.3758348524570465,-1.185154914855957,0.22357667982578278
1761132280225439500,9.052439453125,-0.3904955983161926,-1.051375389099121,0.08368854224681854
1761132280235439600,9.062439697265624,-0.260992169380188,-0.719675600528717,-0.05375614017248154
1761132280245439500,9.072439453125,-0.056352317333221436,-0.22792910039424896,-0.14355333149433136
1761132280255439600,9.082439697265626,0.15745051205158234,0.2906954884529114,-0.17898350954055786
1761132280265439500,9.092439453125,0.3309362530708313,0.6810383796691895,-0.1618792861700058
1761132280275439600,9.102439697265625,0.43478333950042725,0.8783478736877441,-0.09957103431224823
1761132280285439500,9.112439453125,0.4738787114620209,0.9033933281898499,-0.028099801391363144
1761132280295439600,9.122439697265625,0.45433104038238525,0.7671703696250916,0.03420845419168472
1761132280305440300,9.132440185546875,0.3822489380836487,0.5558109879493713,0.09346238523721695
1761132280315440400,9.1424404296875,0.294895201921463,0.368886262178421,0.16554448008537292
1761132280325440500,9.1524404296875,0.22281309962272644,0.2577087879180908,0.2730567753314972
1761132280335440400,9.1624404296875,0.18005253374576569,0.2387719452381134,0.4153883755207062
1761132280345440500,9.1724404296875,0.18066339194774628,0.31757357716560364,0.5797111392021179
1761132280355440400,9.1824404296875,0.21242839097976685,0.41225767135620117,0.7287622094154358
1761132280365440500,9.1924404296875,0.22281309962272644,0.42386412620544434,0.8069530129432678
1761132280375440400,9.2024404296875,0.19837848842144012,0.2943606972694397,0.8002334833145142
1761132280385440500,9.2124404296875,0.1537853181362152,0.06039930135011673,0.7391469478607178
1761132280395440400,9.2224404296875,0.09514226019382477,-0.1698969006538391,0.6603453159332275
1761132280405439500,9.232439453125,0.01572977937757969,-0.34949126839637756,0.5748242139816284
1761132280415439600,9.242439697265626,-0.11560624837875366,-0.48082730174064636,0.4306600093841553
1761132280425439500,9.252439453125,-0.1950187236070633,-0.4234059751033783,0.3188716471195221
1761132280435439600,9.262439697265625,-0.2750420868396759,-0.25969409942626953,0.17348572611808777
1761132280445439500,9.272439453125,-0.34956762194633484,-0.06055201590061188,-0.015882495790719986
1761132280455439600,9.282439697265625,-0.3868304193019867,0.09827294945716858,-0.21868975460529327
1761132280465439500,9.292439453125,-0.3758348524570465,0.19173532724380493,-0.3799581825733185
1761132280475439600,9.302439697265624,-0.3300199508666992,0.23755022883415222,-0.45265114307403564
1761132280485439500,9.312439453125,-0.25732699036598206,0.2888629138469696,-0.42210787534713745
1761132280495439600,9.322439697265626,-0.1748601794242859,0.37377315759658813,-0.323147714138031
1761132280505440500,9.3324404296875,-0.09239336848258972,0.4519639313220978,-0.2070833146572113
1761132280515440400,9.3424404296875,-0.02825251780450344,0.43363797664642334,-0.10384709388017654
1761132280525440500,9.3524404296875,0.016340645030140877,0.30657798051834106,-0.024434609338641167
1761132280535440400,9.3624404296875,0.048716504126787186,0.15997034311294556,0.033597588539123535
1761132280545440500,9.3724404296875,0.04932736977934837,0.07994698733091354,0.06719517707824707
1761132280555440400,9.3824404296875,0.01878410577774048,0.09949467331171036,0.06536258012056351
1761132280565440500,9.3924404296875,-0.01237002108246088,0.17890715599060059,0.022602014243602753
1761132280575440400,9.4024404296875,-0.033139441162347794,0.22472205758094788,-0.05192354694008827
1761132280585440500,9.4124404296875,-0.04535674303770065,0.19234620034694672,-0.13316862285137177
1761132280595440400,9.4224404296875,-0.05390885844826698,0.12331841886043549,-0.18814650177955627
1761132280605439500,9.432439453125,-0.08017606288194656,0.08300131559371948,-0.24434609711170197
1761132280615439600,9.442439697265625,-0.09483683109283447,0.03107776865363121,-0.32559117674827576
1761132280625439500,9.452439453125,-0.07956519722938538,-0.08926268666982651,-0.4105014503002167
1761132280635439600,9.462439697265625,-0.07223481684923172,-0.21998783946037292,-0.4605923891067505
1761132280645439500,9.472439453125,-0.1033889427781105,-0.539470374584198,-0.4245513379573822
1761132280655439600,9.482439697265624,-0.07101308554410934,-0.6879106163978577,-0.423329621553421
1761132280665439500,9.492439453125,-0.026419922709465027,-0.5565745830535889,-0.39217549562454224
1761132280675439600,9.502439697265626,-0.004428773187100887,-0.31406110525131226,-0.3836233615875244
1761132280685439500,9.512439453125,-0.03130684420466423,-0.10697777569293976,-0.4080579876899719
1761132280695439600,9.522439697265625,-0.06062837690114975,0.027412578463554382,-0.4196644127368927
1761132280705440500,9.5324404296875,-0.03741549700498581,0.12087496370077133,-0.413555771112442
