time,seconds_elapsed,z,y,x
1761133019582990000,0.081989990234375,-0.19691490324139593,0.23079905266463754,-0.09037734981123358
1761133019602838300,0.10183837890625,-0.4400660724788904,-0.03836334066390991,-0.05856544008478522
1761133019622685200,0.121685302734375,-0.3019423809021711,-0.25744477526694537,0.05401669073924422
1761133019642533400,0.141533447265625,-0.2711567820161581,-0.5340393644228577,0.19071772910170257
1761133019662380300,0.16138037109375,-0.3097241208195686,-0.7115878884151577,0.30773104730620976
1761133019682228200,0.181228271484375,-0.26715748324692246,-0.8684778013907373,0.31933566998001184
1761133019702076200,0.201076171875,-0.29227731145620345,-0.956818055883795,0.3309766791414469
1761133019721923300,0.22092333984375,-0.3436433415561914,-0.9783798993505537,0.3030290436277166
1761133019741771300,0.240771240234375,-0.21461247249543666,-0.9742594584196805,0.18305990782491863
1761133019761619500,0.260619384765625,0.011795651733875274,-0.9554812543220818,0.019144808920286596
1761133019781466400,0.28046630859375,0.03496200778782368,-0.9226086200289427,-0.14905896362159402
1761133019801314300,0.300314208984375,-0.2793576241284609,-0.7844307140469551,-0.24795772926900533
1761133019821162200,0.320162353515625,-0.6211912859141826,-0.6089122345775365,-0.24153503927774725
1761133019841009400,0.340009521484375,-0.6584995645672083,-0.4577548739045858,-0.198123767574504
1761133019860857300,0.359857421875,-0.39374037463366984,-0.31093758826255796,-0.0494246137086302
1761133019880705300,0.379705322265625,-0.024551672932505608,-0.26374387541115285,0.08146722691841424
1761133019900552200,0.39955224609375,0.4096054677635431,-0.1701756571367383,0.0384841174993664
1761133019920400400,0.419400390625,0.6333733066171408,-0.10949790107309817,-0.055976373439654704
1761133019940248300,0.439248291015625,0.8231009287029504,-0.06684782300069927,-0.2060836405377835
1761133019960095500,0.459095458984375,0.9086129740327596,0.06951265829578042,-0.44808118276074527
1761133019979943200,0.478943115234375,0.8327741814553737,0.19302520232647657,-0.6803704739831388
1761133019999791400,0.498791259765625,0.6711252373844385,0.36604485071748494,-0.8943068007826804
1761133020019638300,0.51863818359375,0.37205870417952536,0.4219301118075847,-0.9830822318226099
1761133020039486500,0.538486572265625,0.19743045154809952,0.4110810932740569,-0.9432714688293635
1761133020059333400,0.55833349609375,0.18856793065667152,0.2897628444172442,-0.9278969356954098
1761133020079181300,0.578181396484375,0.4791273322790861,0.14854337878227233,-0.9204536339521407
1761133020099029200,0.598029296875,0.7366425424337386,0.014686258608847856,-0.8192407461434602
1761133020118876200,0.617876220703125,0.4839841246604919,-0.022814181615412234,-0.5505754886820912
1761133020138724400,0.637724365234375,-0.1648492014169693,0.049950464213639495,-0.3482244953339919
1761133020158572500,0.657572509765625,-0.6582365297168493,0.20319383738040922,-0.37189927583411336
1761133020178419500,0.67741943359375,-0.8703414033055304,0.28019992017149925,-0.2464985069040209
1761133020198267100,0.69726708984375,-0.809284000274539,0.32478681152537464,-0.11309037260711192
1761133020218115300,0.717115234375,-0.6388742421209812,0.207542534109205,0.07922248019892722
1761133020237962200,0.736962158203125,-0.5733388168931007,0.2487242931947112,0.230145922518149
1761133020257810400,0.756810546875,-0.8549971191793679,0.31830534055158494,0.45234965386018156
1761133020277658000,0.776658203125,-0.9702513918220996,0.3362031085528433,0.5217072677247226
1761133020297505300,0.79650537109375,-0.5199748909741639,0.3776384040080011,0.3576040989020839
1761133020317353200,0.816353271484375,0.1376297705799341,0.31779782942086454,0.2989855038579553
1761133020337201400,0.836201416015625,0.3869973301142454,0.29795974100679157,0.2719360592929646
1761133020357048300,0.85604833984375,0.15333178210258483,0.4141290826678276,0.2120608152512461
1761133020376896300,0.875896240234375,-0.1610585769623518,0.4966648886658251,0.1463524811418727
1761133020396743400,0.895743408203125,-0.31741759793162344,0.5440032706849277,0.09340583078693598
1761133020416591400,0.91559130859375,-0.34322190127372737,0.6313051220409571,-0.01290439842706546
1761133020436439300,0.935439208984375,-0.4987935712575912,0.6536174916140735,0.008459913173597306
1761133020456286500,0.955286376953125,-0.553897618842125,0.7555078402929007,0.01697511846469715
1761133020476134400,0.975134521484375,-0.5513602093189954,0.7533790115706622,0.09688074035588651
1761133020495982300,0.994982421875,-0.48146775792539115,0.8105056510239839,0.20501453173523768
1761133020515829200,1.014829345703125,-0.4293804278135299,0.8445311086140572,0.33643172967694696
1761133020535677400,1.034677490234375,-0.3669558280825615,0.921339915267378,0.4539144554914906
1761133020555525400,1.054525390625,-0.11333411823511123,0.999776615383476,0.45781818493176246
1761133020575372300,1.074372314453125,0.13231822016835212,1.0925989837266503,0.5024134787878022
1761133020595220200,1.09422021484375,0.14235446101427077,1.138449903666973,0.5824318586047739
1761133020615068400,1.114068359375,0.10267302348911761,1.2527936373360455,0.6634209466174245
1761133020634915300,1.133915283203125,0.12540741786658763,1.335431004012376,0.7081962001502513
1761133020654763300,1.15376318359375,0.32000644538104533,1.4258093402042984,0.6784042884767055
1761133020674611500,1.173611572265625,0.43533261421620845,1.4363431553088128,0.7420346107356249
1761133020694458400,1.193458251953125,0.38777474422752856,1.3871983083896338,0.7351660401403903
1761133020714306300,1.213306396484375,0.3026560821294784,1.6858200204364955,0.804760239239782
1761133020734153500,1.233153564453125,0.24316519776284692,1.4419418520987033,0.7653329226061701
1761133020754000400,1.25300048828125,0.7610872478604316,1.1063111366063356,0.4368390367237851
1761133020773848600,1.2728486328125,1.6208891369730234,0.278303731161356,0.2451031800881028
1761133020793695500,1.292695556640625,2.4210008197546005,-0.36335327354595065,-0.007271050448901951
1761133020813543700,1.312543701171875,2.640452548974752,-0.6498268671594559,-0.13810520607195795
1761133020833391400,1.332391357421875,2.0878145748049017,-1.024904773029685,-0.20830325281601397
1761133020853238500,1.352238525390625,0.9649474401950836,-1.0937884857721627,-0.10742602670248597
1761133020873086500,1.37208642578125,-0.16403145529329777,-1.027894017973542,0.12047310326956212
1761133020892934700,1.3919345703125,-1.0578934349179268,-1.0139780130848288,0.2804473190613091
1761133020912781600,1.411781494140625,-1.482312440931797,-1.010188996065408,0.2603290619989857
1761133020932629500,1.43162939453125,-1.632499495267868,-0.8597983819812536,0.3270757992453873
1761133020952477400,1.4514775390625,-1.2111860540539026,-0.47733664947003124,0.4843622372578829
1761133020972324600,1.47132470703125,-0.9762468328446149,-0.44652971553504467,0.1127519344329834
1761133020992172500,1.491172607421875,-1.1030103414952754,-0.6989937797799706,0.336144437168166
1761133021012020500,1.5110205078125,-1.1291723722338676,-0.7726677955389022,0.591843720474653
1761133021031867400,1.530867431640625,-0.7771960866183042,-0.8983075608566403,0.6831794669892639
1761133021051715600,1.550715576171875,-0.1500567059546709,-1.0401000040739774,0.5129905485121533
1761133021071563500,1.5705634765625,0.15300737245380877,-0.9525529457852244,0.3045893152143806
1761133021091410400,1.590410400390625,0.12165420281291008,-0.6672571637794376,0.24869342313241213
1761133021111258600,1.610258544921875,-0.022635025656223298,-0.287861833101511,0.25315688708098605
1761133021131105500,1.63010546875,-0.3414578142106533,0.03427957848161459,0.19696235911231486
1761133021150953500,1.649953369140625,-0.6190133573532104,0.3668677114076912,0.29937786417640744
1761133021170801400,1.669801513671875,-0.7977297560811042,0.7125823062799871,0.4240065892880782
1761133021190648600,1.689648681640625,-0.7718424506306648,0.978859645691514,0.4670519868209958
1761133021210496500,1.70949658203125,-0.4813794951200485,0.974624200078845,0.4125226703844964
1761133021230344400,1.729344482421875,-0.33431963289380073,0.68381374630481,0.184984208684694
1761133021250191400,1.74919140625,-0.2514899585157633,0.5340970859594643,0.0051006293409504
1761133021270039600,1.76903955078125,-0.04263093498051166,0.6051427990414202,0.09107327791983261
1761133021289887500,1.788887451171875,0.2355979773789644,0.7415706464856863,0.4061693193024024
1761133021309734700,1.808734619140625,0.4131301347583532,0.763602445551753,0.48599341865628953
1761133021329582300,1.828582275390625,0.37172377313673494,0.8210382970847189,0.3363312649771571
1761133021349430500,1.848430419921875,0.023099136036634445,0.886873728172481,0.20436518271472304
1761133021369277400,1.86827734375,-0.39326866546869277,1.0751755552388726,0.16532713939333332
1761133021389125600,1.888125732421875,-0.6745686558365821,1.3522412690378725,0.14868243105993606
1761133021408973600,1.9079736328125,-0.6545043574512004,1.592576942463219,0.0836615312254522
1761133021428820700,1.92782080078125,-0.5001642750889063,1.5361317094027995,-0.1557913954154588
1761133021448668400,1.94766845703125,-0.05203296957612037,1.4022338188275694,-0.6840898598324507
1761133021468515300,1.967515380859375,0.4622732281118631,1.3501469271071254,-1.2149367118243128
1761133021488363500,1.987363525390625,0.5140858329355716,0.85455492836982,-1.2209295224983245
1761133021508211700,2.007211669921875,0.7376748080909252,0.49202992234155535,-1.1179306280557066
1761133021528058600,2.02705859375,1.8482587997108697,0.09227861685529351,-0.5199905634673312
1761133021547906300,2.04690625,2.928239563274383,-0.13915303462445736,0.027527729601226746
1761133021567754500,2.06675439453125,2.585855281868577,-0.42784678850546476,-0.03778367761243134
1761133021587601400,2.086601318359375,1.508787775403261,-0.7872771895192563,-0.286559774059616
1761133021607449600,2.10644970703125,0.6085849023193121,-0.7411746329054236,-0.17051670739306135
1761133021627297300,2.12629736328125,0.16316110219955443,-0.6786519796274602,0.3097809290407225
1761133021647144400,2.14614453125,-0.08123860579431057,-0.720248456993699,0.5006294814478606
1761133021666992400,2.165992431640625,-0.3685404669255018,-0.9689045072577893,0.47119971761759366
1761133021686840600,2.185840576171875,-0.7525356926143169,-1.21727092692554,0.2792332853627391
1761133021706687500,2.2056875,-1.0571510921180247,-1.4389268881917,0.0669819890406914
1761133021726536400,2.225536376953125,-1.2715811937838792,-1.5467064410395919,0.2393737695906311
1761133021746384600,2.245384521484375,-1.5941022523343562,-1.5844197933621704,0.6409191188868135
1761133021766231600,2.2652314453125,-1.6919459559708834,-1.4947151186481118,1.1406320700116455
1761133021786079700,2.285079833984375,-1.4325006545364856,-1.2889511385187506,1.4616123288609086
1761133021805926700,2.3049267578125,-1.124501457813382,-0.9004121319204569,1.108372014658898
1761133021825774600,2.324774658203125,-0.8413380116611718,-0.48515112261325116,0.8618326642878353
1761133021845622500,2.34462255859375,-0.6070394264429807,0.0979749288007617,0.6808700210031121
1761133021865469700,2.3644697265625,-0.28436697672307487,0.6565377629749477,0.6872543882779777
1761133021885317600,2.384317626953125,0.19674889902472495,1.1601030786789952,0.6906035525754094
1761133021905165600,2.40416552734375,0.7343038703531026,1.2539740792922676,0.43437947820983824
1761133021925012500,2.424012451171875,0.7225374447137117,1.068166553259641,0.018965835624188184
1761133021944860700,2.443860595703125,0.29412030897438524,0.8482477910496294,-0.33083142545185984
1761133021964708600,2.46370849609375,-0.061874564632773396,0.7881371673494577,-0.5917770484466105
1761133021984555500,2.483555419921875,-0.08876841677725314,0.85113284496665,-0.5597658532883971
1761133022004403700,2.50340380859375,0.14159867421090602,0.9063773239351809,-0.41705534537807104
1761133022024251600,2.523251708984375,0.4049474128246307,0.8257550964735448,-0.23105441566519438
1761133022044098600,2.5430986328125,0.41305239334702487,0.7552027198664844,-0.24807331847269087
1761133022063946500,2.562946533203125,0.29422727648019786,0.7497903394289315,-0.3829183171723038
1761133022083793700,2.582793701171875,0.20853519840836524,0.8134544178269804,-0.44717517383173105
1761133022103641600,2.6026416015625,0.33867958166897294,0.7781323445551097,-0.5385058423124254
1761133022123489500,2.622489501953125,0.6325210737019777,0.6463834487073123,-0.6474063620142638
1761133022143336400,2.64233642578125,0.8356687338531017,0.611085048571974,-0.7985149151094257
1761133022163184600,2.6621845703125,0.8383703940272331,0.3652434712067246,-0.5609213069338351
1761133022183032600,2.682032470703125,1.3115899635672568,0.14558321380242706,-0.36185989318303763
1761133022202879700,2.701879638671875,1.635024629831314,-0.06947831763476132,-0.23714864088706672
1761133022222727400,2.7217275390625,1.4280541965216398,-0.26160467142537236,-0.1108131483901292
1761133022242575600,2.74157568359375,0.9277665873140096,-0.22473244610205292,0.053190834374353284
1761133022262422500,2.761422607421875,0.41150457938313484,-0.22954598386362193,0.28972090497165914
1761133022282270700,2.781270751953125,0.17235037082731722,-0.43477249611541624,0.5688482274755835
1761133022302118700,2.80111865234375,0.13442308349311352,-0.7346123517803848,0.8608516173612326
1761133022321965600,2.820965576171875,0.1341524498581886,-0.9728644969299435,1.0615735116701572
1761133022341813500,2.8408134765625,0.03534837675690651,-0.9315649566836655,1.0681272441625596
1761133022361660400,2.860660400390625,-0.6684019499003887,-0.8529067227713764,0.9415408456444739
1761133022381508600,2.880508544921875,-1.8886457551568745,-0.8139201356425881,0.6134287621539086
1761133022401356800,2.900356689453125,-2.7949194725871083,-0.7802931758508086,0.322908523498103
1761133022421203700,2.92020361328125,-2.758838105380535,-0.5828817212641239,0.10155472351629287
1761133022441051400,2.940051513671875,-1.9005384375244379,-0.4485647284939885,-0.026999467943422496
1761133022460899600,2.959899658203125,-0.567536268094182,-0.5664224616333842,0.02089002688610926
1761133022480746500,2.97974658203125,0.489836357820034,-0.7686902702100574,-0.17563662595637142
1761133022500594700,2.9995947265625,0.7962485776126385,-0.7924034464918076,-0.6577014729920775
1761133022520442400,3.0194423828125,1.0200777912646533,-0.6791659204989672,-0.8105369960103184
1761133022540289500,3.03928955078125,0.9919482598453759,-0.5753107014879584,-0.6580926642667502
1761133022560137500,3.059137451171875,0.6801297970950603,-0.16242679657563566,-0.46656508008688685
1761133022579985700,3.078985595703125,-0.095484573289752,0.3265373084545135,-0.43986536227501927
1761133022599832600,3.09883251953125,-0.8082815452337264,0.6189901226080954,-0.5369606586970389
1761133022619680800,3.1186806640625,-1.3354250126630067,0.818092160630226,-0.5734956514226273
1761133022639528400,3.138528564453125,-1.437339326739311,1.1193901061490177,-0.4634383994337171
1761133022659375600,3.158375732421875,-1.2762778271675108,1.34084163088426,-0.26170498999468983
1761133022679223600,3.1782236328125,-1.1065911225914955,1.319703565787524,-0.14032953105792403
1761133022699070700,3.19807080078125,-0.6120312433809042,1.267933777192235,-0.10000446186698973
1761133022718918700,3.217918701171875,0.10223989276885986,1.1311924798846245,-0.08712189167924225
1761133022738765800,3.237765869140625,0.629312633049488,0.7941109810620546,-0.06385229444652796
1761133022758613000,3.257613037109375,1.1810551196843384,0.4636046228460967,0.010926412884984164
1761133022778460700,3.277460693359375,1.735274225565791,0.22474106779992578,-0.0069897401563357555
1761133022798308900,3.297308837890625,1.9221242463886736,0.3372057097241282,-0.26250041468869895
1761133022818155800,3.31715576171875,1.1894938622057438,0.270564807472378,-0.006491435245377942
1761133022838004000,3.33700390625,0.9321820656687021,0.46077144524678587,0.09862393076140433
1761133022857851600,3.3568515625,1.0593225909382105,0.15831220086365938,0.34277587453927844
1761133022877698800,3.37669873046875,0.99788992485404,-0.2571924079410732,0.14678435148680583
1761133022897546800,3.396546630859375,0.20110241805911064,-0.4573638287603855,-0.17095016690688206
1761133022917395000,3.41639501953125,-0.44961014589369297,-0.5922961769498885,-0.05055392826581374
1761133022937241900,3.436241943359375,-0.2888473370075226,-0.42544045801609753,0.4274979020025581
1761133022957089800,3.45608984375,0.21738076816499233,-0.601395575337112,0.9950330741181969
1761133022976937700,3.475937744140625,0.7540589566588402,-0.8503472475469112,1.0877258247323334
1761133022996785000,3.495784912109375,0.810313343322277,-1.0496671661034225,0.8113896673168987
1761133023016632800,3.5156328125,0.2487520579844713,-1.1605945154577493,0.6789994048256427
1761133023036480000,3.53547998046875,-0.6805202577173709,-1.137658314897865,0.8039952462166547
1761133023056328000,3.555327880859375,-1.2826181361049414,-0.9457083405874669,1.0912847593229262
1761133023076176000,3.57517578125,-1.450198808312416,-0.9448565460637212,1.4908090511202812
1761133023096022800,3.595022705078125,-1.485824248445034,-1.185540302274376,1.6766095628902316
1761133023115870700,3.61487060546875,-1.3248469200253485,-1.2288017902433872,1.7799296521112322
1761133023135719000,3.634718994140625,-0.7558084306746721,-0.9019098231323063,1.4666719503380357
1761133023155565800,3.65456591796875,0.08301146068572998,-0.6578790945813059,1.1076634279981254
1761133023175413800,3.674413818359375,0.5245341617137194,-0.4953754333771765,0.805709137462452
1761133023195261700,3.69426171875,0.6375456238657236,-0.3441521678611636,0.6338052682936192
1761133023215108900,3.71410888671875,0.3862795372337103,-0.20167451885864138,0.624345219900459
1761133023234956800,3.733956787109375,0.0772936675608158,-0.08925766159892082,0.7040802892640232
1761133023254804700,3.7538046875,-0.20872107636928558,-0.052411885891109705,0.9035698652990162
1761133023274651600,3.773651611328125,-0.4848725979328155,0.09461261276081204,1.0633536000199615
1761133023294499800,3.793499755859375,-0.4670996253550052,0.2331033840842545,1.0821708940189332
1761133023314346800,3.8133466796875,-0.04128419654667377,0.28933818926438687,1.1425897799506783
1761133023334195000,3.83319482421875,0.4417641085684299,0.3382395828165114,1.299332101149112
1761133023354043000,3.85304296875,0.6949199544697999,0.35708705275803804,1.375431882750243
1761133023373890000,3.87289013671875,0.5036380886793136,0.29824367251470685,1.2767387226775289
1761133023393737700,3.89273779296875,-0.18151275144815443,0.2462419748596847,1.1634312001883982
1761133023413586000,3.9125859375,-0.6921984205514192,0.2404438099749386,1.0425772809077054
1761133023433432800,3.932432861328125,-0.5516162299066781,0.3093831984274089,0.9659349168624728
1761133023453281000,3.952281005859375,-0.38550446120798587,0.18545856646448372,0.7990089822366834
1761133023473128700,3.972128662109375,-0.04496317732036113,-0.25847879448980093,0.8005033855129032
1761133023492975900,3.991975830078125,0.8604676595449448,-0.6689625063925981,1.0231371057700365
1761133023512823800,4.01182373046875,1.926750737145543,-1.11888215662688,1.0392610690318047
1761133023532672000,4.031672119140625,2.281564292013645,-1.5786362415246664,0.6279078077528626
1761133023552519000,4.051518798828125,2.009277629184723,-1.992811063030362,0.17179971467461436
1761133023572366600,4.07136669921875,1.4511445647299288,-2.0915996463015674,0.04094115526266396
1761133023592213800,4.0912138671875,1.0247323390722274,-1.9676472495488821,0.14969190949657932
1761133023612061700,4.111061767578125,0.666935384479165,-1.804503244614601,0.34919023509360847
1761133023631910000,4.130909912109375,0.09753098442554474,-1.5894839448839424,0.4058048333715647
1761133023651756800,4.1507568359375,-0.6038286477029323,-1.486746477856487,0.7140356468934566
1761133023671605000,4.17060498046875,-1.0282716191142798,-1.312927057389915,0.8549949272222817
1761133023691452700,4.19045263671875,-1.0795838732004166,-1.2116061791621149,1.0680789480414241
1761133023711299800,4.2102998046875,-0.7335118431925773,-1.327815852833539,1.4607897604316473
1761133023731148300,4.230148193359375,-0.1624620140194893,-1.6297541420824824,1.9699454434886574
1761133023750996200,4.249996337890625,0.3494640105336904,-2.104910524903983,2.16815330915004
1761133023770843100,4.269843017578125,0.579951513031125,-2.3623208133794367,2.1061136170834303
1761133023790691000,4.289691162109375,0.4122311400920152,-2.227412868978828,2.1785659820929166
1761133023810539000,4.3095390625,-0.13727788840234278,-1.9298513335093854,2.38034922202304
1761133023830386200,4.32938623046875,-0.7690121956408024,-1.8920209306783973,2.754997796565294
1761133023850234000,4.349234130859375,-0.9104501263320446,-1.9054715100124477,3.0278403397113083
1761133023870081300,4.369081298828125,-0.3225707429111004,-2.0772410122118887,2.97694134260118
1761133023889929000,4.388928955078125,0.40457974855601786,-2.516109837730229,2.9238623711034655
1761133023909778200,4.408778076171875,0.6606184564173221,-3.294969765907526,2.908685552498698
1761133023929625000,4.428625,0.8199725675493478,-3.459028401468694,2.873401473149657
1761133023949473000,4.44847314453125,1.2468974189043045,-3.616792905321717,2.933294508576393
1761133023969321000,4.468321044921875,1.8696920483618973,-4.034990844863653,3.2084806922391054
1761133023989168000,4.488168212890625,2.749953372657299,-4.434627876320481,3.190995012170076
1761133024009016000,4.50801611328125,3.3534190322667357,-4.818935821220278,2.824689172428846
1761133024028864300,4.5278642578125,3.237916922342777,-4.953302790611982,2.025061181510985
1761133024048711200,4.547711181640625,2.3347663053691385,-4.316128922668099,1.3994775058567523
1761133024068559000,4.56755908203125,0.9827601602613926,-3.255755945894122,1.4446645550608634
1761133024088407000,4.587406982421875,-0.2060363673299551,-2.4666999101340767,1.4760156788751482
1761133024108254200,4.607254150390625,-0.8868541466891765,-2.284644868502766,1.1610634481437503
1761133024128102100,4.62710205078125,-1.1133283218920231,-2.3664446153111753,0.7987835029177367
1761133024147949300,4.64694921875,-1.0379624075233935,-2.4899726491719485,0.28953035083562134
1761133024167797000,4.666796875,-0.8299673073410987,-2.5033111464336515,-0.16474205124806612
1761133024187645200,4.686645263671875,-0.6339625046819448,-2.4317609909608957,-0.2823163826025091
1761133024207492000,4.7064921875,-0.22258301298320293,-2.150670259429514,-0.0840404749399051
1761133024227340300,4.72634033203125,0.023526421537995338,-1.9072581011682748,0.15813187586069105
1761133024247188000,4.74618798828125,0.2260048041254282,-1.6923365627236664,-0.04521653102692216
1761133024267035000,4.766034912109375,0.7338561265856027,-1.340549516069889,-0.4612998165024444
1761133024286883000,4.785883056640625,0.7334352708250284,-1.4169044414758682,-0.8084929960273206
1761133024306731300,4.805731201171875,0.5501788905799389,-1.5805032044403253,-0.8854973983179777
1761133024326578200,4.825578125,0.7770709989339113,-1.6211039487674832,-1.234317484924942
1761133024346426000,4.845426025390625,1.182210719460249,-1.7674619463346897,-2.1906698229931294
1761133024366274000,4.865274169921875,0.6454875227808952,-2.0121872330211104,-3.7112171559035776
1761133024386121000,4.885120849609375,-0.6312830563396216,-1.8202986335091291,-4.682418688057362
1761133024405969200,4.90496923828125,-1.6517963164120912,-0.9401822706423699,-4.730293076649308
1761133024425817000,4.924817138671875,-1.2909838133901357,0.1968079357355833,-3.608413491772115
1761133024445664300,4.944664306640625,-0.34849545776247975,1.0818291679091752,-2.2157006577447054
1761133024465512000,4.964511962890625,0.26249650569856164,1.834910365577042,-1.1342648000020532
1761133024485359000,4.984359130859375,0.7732002949804068,2.560862294909358,0.5584275173567235
1761133024505207000,5.00420703125,1.5884154388695955,3.1575603600800037,1.817150983133167
1761133024525055200,5.02405517578125,2.8136253421008584,2.752206704542041,2.0449838794685897
1761133024544902100,5.043902099609375,3.4981852305978536,1.2229999720968305,2.0204360059283673
1761133024564750000,5.06375,3.1855262253701686,0.029632044936716555,1.1295124178431928
1761133024584598000,5.083597900390625,2.089696150767803,-0.49326479789875444,0.2769670939964242
1761133024604445200,5.103445068359375,0.45229543945491313,-0.4728482520096004,-0.07406710672974585
1761133024624293000,5.123293212890625,-1.3237784140110016,-0.3386345734834671,-0.5180332553870975
1761133024644141300,5.143141357421875,-2.2817256200551985,-0.23503720169104633,-0.5303256776619703
1761133024663988200,5.16298828125,-2.5411001943409444,-0.23080526320971548,-0.5319103895701468
1761133024683836200,5.182836181640625,-2.5009312655597924,-0.22654344104677437,-0.40788551210314034
1761133024703684000,5.20268408203125,-2.3406091861784457,0.04801978841200471,-0.23641192411035297
1761133024723531000,5.222531005859375,-2.3425118049293756,0.3336685485739261,-0.3902204934118315
1761133024743379200,5.242379150390625,-2.4127052850961683,0.485776268774271,-0.786874015545845
1761133024763227100,5.26222705078125,-2.5983763252675534,0.2853444434531033,-1.0837489569906145
1761133024783074000,5.282073974609375,-2.8177397916823623,-0.10331972389481961,-1.618282753866911
1761133024802922000,5.301921875,-2.560211722046137,-0.48380065785236653,-2.112700448127836
1761133024822769200,5.32176904296875,-1.5659832423090934,-0.6458777642074972,-2.6239754614263773
1761133024842617000,5.3416171875,-0.4413075969725847,-0.3579739551277831,-3.008912936401367
1761133024862465000,5.361465087890625,0.4305798667311668,0.1990844293002039,-2.5139129122078416
1761133024882312000,5.38131201171875,1.5751099670946598,1.717170705859363,-1.1629870366174726
1761133024902160100,5.40116015625,2.7019711397767066,2.892944962531328,0.6850207109417766
1761133024922008000,5.421008056640625,3.280867590796947,3.26228739348948,1.8375144105955958
1761133024941855200,5.440855224609375,3.472430611616373,2.5592127741366624,1.698676579400152
1761133024961703200,5.460703125,3.109664051917195,1.8756442347645759,0.5221003221629187
1761133024981551000,5.480551025390625,2.3858546875715256,1.1729026467584074,0.288171666235663
1761133025001398000,5.50039794921875,1.9861568658381699,0.7600828931234777,0.37576135808974503
1761133025021246200,5.52024609375,1.9592419709056614,0.5223177643058822,0.35895997049044814
1761133025041093000,5.540093017578125,2.0130507179826496,0.2829460040092468,0.28270978410057723
1761133025060941300,5.55994140625,2.1515485035687685,-0.6404417106334119,-0.06094750378257595
1761133025080789000,5.5797890625,1.692643875107169,-1.1751437036834655,-0.542608089999482
1761133025100636000,5.599635986328125,0.5211620549321174,-1.1652979439083486,-0.5975949409451335
1761133025120484000,5.619484130859375,-1.1144658014893531,-1.003286377070099,0.11837916319761424
1761133025140332300,5.639332275390625,-2.5473949105709788,-0.6745818075791001,0.33198541779257357
1761133025160179200,5.65917919921875,-3.3188515767544504,-0.5462955098079517,-0.2542288819603622
1761133025180027100,5.679027099609375,-3.241775351336598,-0.5174591087609529,-0.7150658667240292
1761133025199875000,5.698875,-2.545074358668923,-0.2506660383796319,-0.8523187668155878
1761133025219722000,5.718721923828125,-1.6300228760212658,0.2867999760236591,-0.5970208673842251
1761133025239570200,5.738570068359375,-1.0865624800413847,0.9509980444934218,-0.43332357594873755
1761133025259418000,5.758418212890625,-1.0134569118201733,1.3579917953886091,-0.14218528759297913
1761133025279265300,5.778265380859375,-1.2032096683472395,1.447979086436331,-0.11130858549056574
1761133025299113000,5.798113037109375,-1.2057435707390307,1.3396398538790641,0.01240289805366774
1761133025318960000,5.817960205078125,-0.9850894799917935,1.227119828505814,0.1656404613925144
1761133025338808000,5.83780810546875,-1.0048848983079195,1.033266797053069,0.6185500506903976
1761133025358656300,5.85765625,-1.1688637466311453,0.8548617292966693,0.76453578087911
1761133025378503200,5.877503173828125,-0.8244804003626107,0.5556556780232116,0.48275823612734675
1761133025398351000,5.89735107421875,0.15557985329031943,-0.028978439866192637,0.27181314529934897
1761133025418199000,5.917198974609375,1.2530933509349822,-0.32613311156779523,0.21394732311759143
1761133025438046200,5.937046142578125,2.2915642925024033,-0.2635268716596067,0.1413454301021993
1761133025457894100,5.95689404296875,2.4848376243710515,-0.017951324819400906,-0.21748168952250851
1761133025477742000,5.9767421875,2.092217778199911,0.17224457236528395,-1.008636067534983
1761133025497589000,5.996589111328125,2.076713919597864,0.1459528508324176,-1.0262083299089222
1761133025517437200,6.016437255859375,2.4620313338011504,-0.165772015350312,-0.613465294772014
1761133025537285000,6.03628515625,3.2554058172822,-0.4926312492355704,-0.8221269691042602
1761133025557132000,6.056132080078125,3.4954473300665616,-0.6188759216438978,-1.5417726378992198
1761133025576980200,6.075980224609375,2.5691005464226007,-0.4414966167386621,-2.168997943280637
1761133025596828200,6.095828125,1.1005080032855272,0.10038783516138791,-1.972300628312677
1761133025616675000,6.115675048828125,-0.06710954267680645,0.3922651144493371,-1.364099026222527
1761133025636523000,6.13552294921875,-0.6070014325201512,0.036611309364810586,-0.6562384147021919
1761133025656370200,6.1553701171875,-1.0663035358667372,-0.9318827173959463,-0.8474706691972911
1761133025676218000,6.175218017578125,-1.6659937685906887,-1.690635457894206,-1.4037744723983108
1761133025696066000,6.195066162109375,-2.484348379549384,-1.813222265382111,-1.8733233906015752
1761133025715913000,6.214912841796875,-3.3153555513322353,-1.5359420320495962,-1.8390227693319319
1761133025735760600,6.2347607421875,-3.88105817425847,-1.0954394678495825,-1.5284242037653921
1761133025755608800,6.25460888671875,-4.039426781484485,-0.8067522898398339,-1.230782004275173
1761133025775455700,6.274455810546875,-3.5873037759870288,-0.7997673993885517,-1.056466690050438
1761133025795304000,6.294303955078125,-2.5707886456400155,-0.8819539535574614,-1.0578875166337935
1761133025815151600,6.314151611328125,-1.1245149018168448,-0.6291373495478183,-1.0262008041895925
1761133025834998500,6.33399853515625,0.022163316491246223,-0.08901018964387476,-0.867124706281349
1761133025854846700,6.3538466796875,0.8997773411482572,0.6331258346620947,-0.7947333507440983
1761133025874695000,6.37369482421875,1.0174304916262626,1.2861626768440007,-0.4246870093002915
1761133025894541800,6.393541748046875,1.114271740221977,1.817928689507395,-0.1972731420945376
1761133025914389500,6.413389404296875,1.8040958328574894,2.124370573785901,-0.37461927538253365
1761133025934236700,6.433236572265625,3.0341718808203932,2.385892681494355,-1.2757773302994668
1761133025954084600,6.453084716796875,3.530442071080208,1.771369621297717,-1.1905470975857226
1761133025973932800,6.472932861328125,4.025509899812937,0.6548724601112306,-0.6374702936071902
1761133025993779700,6.49277978515625,4.691875959971547,-0.5416485242523252,-0.3955455243594944
1761133026013627600,6.512627685546875,4.532470410913229,-1.600811102323234,-0.7576425872992724
1761133026033475600,6.5324755859375,3.0740923877984283,-2.020245890183747,-1.1598400438286363
1761133026053322800,6.55232275390625,1.0700257712602614,-2.16193311946094,-0.977037764026597
1761133026073170700,6.572170654296875,-0.9001759850770235,-1.9074138762518762,-0.7959492293398827
1761133026093019000,6.592018798828125,-2.4490596240252254,-1.703689731387049,-0.2794450466835871
1761133026112865800,6.61186572265625,-3.327793592622876,-1.448509247790277,0.2577278299920261
1761133026132713700,6.631713623046875,-3.3887428591042754,-1.0790753391563892,0.6015680092945694
1761133026152561700,6.651561767578125,-2.592306065443158,-1.1153884692922234,0.6957702876888215
1761133026172408800,6.671408935546875,-1.8706097477287054,-1.1594504599891602,0.6051826561277732
1761133026192256800,6.6912568359375,-0.7205740356862544,-1.1289882478386164,0.2928161675732583
1761133026212103700,6.711103759765625,-0.08970598988831043,-1.3045280623570084,-0.3795239620262757
1761133026231951600,6.73095166015625,-0.03458382212519646,-1.1660210705511271,-0.8477527010090649
1761133026251799800,6.7507998046875,-0.1305371819704771,-0.6847346605420113,-1.1594858235634862
1761133026271646700,6.770646728515625,-0.3256102567374706,-0.4341361709732562,-1.4008485019490122
1761133026291494700,6.79049462890625,-0.812905697903037,-0.34149010904505844,-1.4788821742221712
1761133026311342600,6.810342529296875,-1.3834984309583902,-0.22723529576845466,-1.5668822369754314
1761133026331189800,6.830189697265625,-1.6516408335894346,-0.06888473565578461,-1.5707054485253988
1761133026351037700,6.85003759765625,-1.6200626230210065,0.03529883852675557,-1.5549563829906283
1761133026370885600,6.8698857421875,-1.097986960375309,0.14417963061481714,-1.2882399215094744
1761133026390732800,6.88973291015625,-0.09761866270899772,0.15143705439716576,-1.312338297716528
1761133026410580700,6.909580810546875,1.3923153591424227,-0.3076841394245624,-1.8119160050891339
1761133026430428000,6.929427978515625,2.835064435970783,-0.9159832105398178,-2.3450226187065244
1761133026450275600,6.949275634765625,3.3891455946862696,-1.0427458424076437,-2.520085463362932
1761133026470123800,6.969123779296875,3.178167679300904,-1.0349904059752821,-2.4736387694865463
1761133026489970700,6.988970703125,2.7773317934483286,-0.8107114027291535,-2.378678512331843
1761133026509819000,7.00881884765625,2.1504332358032463,-0.6234926947243511,-1.8656608931496739
1761133026529666600,7.02866650390625,2.1154566149681804,-0.7654514344193041,-1.3291386258698998
1761133026549513700,7.048513671875,2.392939092874527,-1.1870980531103907,-1.2049956749811768
1761133026569361700,7.068361572265625,1.8191443489074706,-1.5852474763579665,-1.3743465717315673
1761133026589209900,7.0882099609375,0.07014204224050044,-1.7056008257053792,-1.402426711051166
1761133026609056800,7.108056884765625,-1.6670160973757504,-1.694006541762501,-1.2180484141040593
1761133026628904700,7.12790478515625,-2.529738842371106,-1.750959724345058,-0.9878254808269441
1761133026648752600,7.147752685546875,-2.3642712167948483,-1.9240774262830613,-0.9251864346276968
1761133026668599600,7.167599609375,-1.8500871841818094,-2.1186700240567324,-0.932101986169815
1761133026688447700,7.18744775390625,-1.594544735404849,-1.9740916033826768,-1.41960975491181
1761133026708294700,7.207294677734375,-0.9960001655846834,-1.8209835470333695,-1.886366119787097
1761133026728143000,7.22714306640625,-0.6798135707527398,-1.7837173539564013,-2.2169348757147787
1761133026747990800,7.24699072265625,-0.7830337067306041,-1.539068347376585,-2.2681936460480094
1761133026767838000,7.266837890625,-1.1237906791955232,-0.9599760815232992,-2.231138173112273
1761133026787686000,7.286685791015625,-0.8899591269671916,-0.414295233014971,-2.3715179730527103
1761133026807534000,7.3065341796875,-0.1832178018003702,-0.2325546641603112,-2.332266597507894
1761133026827381000,7.326381103515625,-0.025758710634708405,-0.37041824349611996,-1.8965350471019744
1761133026847229000,7.34622900390625,0.020299860706925393,-0.2635484989695251,-1.368065153374523
1761133026867076900,7.366076904296875,0.549134349963069,-0.0532942216835916,-0.8984060527950525
1761133026886924000,7.385924072265625,1.0556348423361777,-0.260526374669373,-0.6105019149217754
1761133026906772000,7.40577197265625,1.689939876845479,-0.3935178179241717,-0.6240951175969094
1761133026926620000,7.425619873046875,1.7721756769835948,-0.7963812640815973,-0.33782340323105453
1761133026946466800,7.445466796875,2.0743214715033766,-1.3924848704904318,-0.2694050429780036
1761133026966315000,7.46531494140625,2.7874335007458924,-2.0690388549253345,-0.48360959225967526
1761133026986162000,7.485161865234375,3.0899820308476684,-2.655155028066039,-1.5311246948957442
1761133027006010000,7.505010009765625,2.222685986587405,-3.000395867946744,-2.8172213207662105
1761133027025858000,7.524858154296875,0.5578536629915237,-2.9733871572509405,-3.1336843944519757
1761133027045705000,7.544705078125,-0.4424181885629892,-2.5852099697023627,-2.574040340912342
1761133027065553000,7.564552978515625,-0.4425368465065956,-2.0885560408219694,-1.9065327095031737
1761133027085401000,7.584401123046875,-0.12041443188488482,-2.0516545894041656,-1.3588918129682541
1761133027105248000,7.604248046875,0.09951134458780288,-2.033820826549828,-1.1228813092656433
1761133027125096000,7.624095947265625,0.5823930609643458,-1.5946058179423213,-1.0293282154951244
1761133027144943900,7.64394384765625,1.048873677638173,-1.168673046364635,-1.181399110816419
1761133027164790800,7.663790771484375,1.2640566434979439,-0.9080771135903895,-1.2695640087425708
1761133027184639000,7.683638916015625,1.0403566091835499,-0.7291353816740215,-1.4410665305688977
1761133027204487000,7.70348681640625,0.553546905708313,-0.5290482781372964,-1.5124436675623059
1761133027224334000,7.723333984375,-0.0056336219727993,-0.5739031727775931,-1.3276964642375706
1761133027244181800,7.743181640625,-0.5088853416830301,-0.9782608030155301,-1.004064083444327
1761133027264030000,7.763030029296875,-0.5136316594272852,-1.5155093387432395,-1.2160345900636165
1761133027283876900,7.782876953125,-0.5498439595371485,-2.0570491419240833,-1.7753046226590872
1761133027303725000,7.80272509765625,-0.9659545714110136,-2.4635008218318224,-2.31106467339471
1761133027323572000,7.822572021484375,-1.1538128924936055,-2.5812998105213043,-2.811546782261133
1761133027343420000,7.842419921875,-0.74876260381639,-2.8990359728828072,-2.8038819467216727
1761133027363267800,7.862267822265625,0.0816594615548849,-3.5685797862946984,-2.9786966618359085
1761133027383115000,7.882114990234375,0.5818751745700835,-4.172425385132431,-3.388043186402321
1761133027402963000,7.901962890625,0.5504395873427391,-4.633893726602197,-3.55236076516062
1761133027422811100,7.92181103515625,0.5459644877552986,-4.61138583445698,-3.363068027360737
1761133027442658000,7.941657958984375,2.0070137759059667,-4.1094337991684675,-3.3866087696850298
1761133027462506000,7.961506103515625,2.878442974448204,-4.154121958939731,-2.7836753172561526
1761133027482354000,7.98135400390625,2.9651538741737604,-3.939837987746298,-0.9091592097386717
1761133027502200800,8.001200927734375,2.795926019281149,-3.038564562821388,0.5229482076965272
1761133027522048000,8.021048095703126,2.630276022875309,-2.620465407478809,0.7422060217797756
1761133027541896000,8.04089599609375,2.3617285465747115,-2.1053806266337634,0.47099151822701096
1761133027561743000,8.0607431640625,1.8824486540824175,-1.9451969328097998,0.17798202003873884
1761133027581590800,8.0805908203125,0.8583031749874352,-1.6512904127165675,0.28519224856607617
1761133027601439000,8.10043896484375,-0.6591735183060169,-1.1783268637642264,0.263715854893066
1761133027621286000,8.120285888671875,-2.269136187595129,-0.9843478678442538,0.44491409703195095
1761133027641134000,8.140134033203125,-3.4312405230939387,-0.7406180219359696,0.4150790768690407
1761133027660981000,8.15998095703125,-3.2734318878382442,-0.5315421407796442,-0.4209885201085359
1761133027680829000,8.179828857421874,-2.373990646776557,-0.9059664050467312,-0.5078313756506889
1761133027700676900,8.1996767578125,-1.7984528585344552,-0.7990781019501387,-0.21160083305668084
1761133027720524000,8.21952392578125,-1.446217045199871,-0.8353788109958171,-0.01971025165016763
1761133027740372500,8.23937255859375,-0.10487141031622886,-0.5052493232682347,-0.6275502264868468
1761133027760220400,8.259220458984375,1.5954647728592157,-0.33513270284235475,-0.8775741310380398
1761133027780067300,8.2790673828125,2.7090356713354584,-0.44889914808012543,-0.9039471741788089
1761133027799915500,8.29891552734375,2.7526924422323704,-0.2839841879505664,-0.7080504350040108
1761133027819763500,8.318763427734375,1.736596414080262,0.15161204563789069,-0.518194912222214
1761133027839610600,8.338610595703125,0.8786351843982935,0.7540862099919468,-0.18320994728747755
1761133027859458600,8.35845849609375,0.6908464214205742,1.269791387757659,0.2251177556252107
1761133027879306500,8.378306396484374,1.4399310967981815,1.505588540970534,0.577325548441708
1761133027899155500,8.398155517578125,2.912154689913988,1.3206260874599218,1.284599080789089
1761133027919002600,8.418002685546876,2.865688122293353,0.7347714878648519,2.069509395046532
1761133027938850300,8.437850341796874,2.365640751582384,-0.009356916812248527,2.6938825258672234
1761133027958698500,8.457698486328125,2.2854262281388045,-0.5795070937318727,3.0996950310885905
1761133027978545400,8.47754541015625,2.306781735378504,-0.9826322960980236,3.1033310495033857
1761133027998393600,8.4973935546875,2.004030960702896,-1.0299160983856768,3.201075676679611
1761133028018240500,8.517240478515625,0.5814297688901424,-0.7757176846288144,3.411462932695448
1761133028038088400,8.53708837890625,-0.985571710550785,-0.16466522315219043,3.683884620080888
1761133028057936400,8.556936279296876,-2.3754016826182602,0.4247105728389695,3.685706867071986
1761133028077783300,8.576783203125,-3.4750065995842214,0.8595726104013621,3.366725380824506
1761133028097631500,8.596631591796875,-4.1055666023463,1.1100799876205623,2.932106467835605
1761133028117479700,8.616479736328126,-4.142012711212039,1.4188804177239536,2.255184673001617
1761133028137326600,8.63632666015625,-3.300841872811317,1.216428777012974,2.3533754365101456
1761133028157174300,8.65617431640625,-2.337089195358753,1.162638442375511,2.2950267079159614
1761133028177022500,8.6760224609375,-1.6607365787148474,1.0643981406368315,1.9216729954898357
1761133028196869400,8.695869384765626,-1.2622487172931431,1.1079977745190261,1.2314721784964202
1761133028216717600,8.715717529296874,-1.0568968250960111,1.3020986432529986,0.7061577531252056
1761133028236565200,8.735565185546875,-0.3960211790472269,1.4287468549609184,0.33475853576771913
1761133028256412400,8.755412353515625,0.7102636540740728,1.4899268614582717,-0.1523554844163358
1761133028276260400,8.77526025390625,1.8707178842782972,1.1062159326035528,-0.3220352477949113
1761133028296108500,8.795108642578125,2.5773849751651285,0.7280561350699514,-0.12971844946611671
1761133028315955500,8.81495556640625,2.825790411669016,0.5910445329209789,-0.011480192576535046
1761133028335803400,8.834803466796876,2.812535208776593,0.5480519250212237,-0.05625281576085835
1761133028355650300,8.854650390625,2.785110610756278,0.7725739067103713,-0.20056042013689873
1761133028375498500,8.87449853515625,2.5052783548533917,0.9512862868502735,-0.29617073869816957
1761133028395346400,8.894346435546876,1.7459733142346143,1.1224760164003817,-0.04963102300092578
1761133028415193600,8.914193603515624,1.0727286004781722,0.9625578416448086,0.2625637257158756
1761133028435041500,8.93404150390625,1.4865098926216362,0.14656674494706093,0.8282016859080642
1761133028454889500,8.953889404296875,2.5400381180673834,-1.0292125532262026,1.2514409075528383
1761133028474736400,8.973736328125,3.475969891658425,-1.604405765814334,0.9009091216571629
1761133028494584600,8.99358447265625,3.3089632199466226,-1.5537154430188238,0.2356714810065925
1761133028514432500,9.0134326171875,1.0325485657811164,-1.4125599825307726,-0.2981623874394223
1761133028534279400,9.033279541015625,-1.745143877673149,-0.9699041858196258,-0.5087022767337038
1761133028554127400,9.05312744140625,-3.3371827677369117,-0.5772622739471495,-0.417843792342022
1761133028573975600,9.0729755859375,-3.5731624379098412,-0.664654580065608,0.4569723086921498
1761133028593822500,9.092822509765625,-3.268464036297798,-0.7791200404182076,1.4626801042228936
1761133028613670400,9.11267041015625,-2.513706575980782,-0.8474497725397347,2.0022358939796683
1761133028633518300,9.132518310546875,-2.499844639366865,-0.6977582466356456,1.0836921853020787
1761133028653365200,9.152365234375,-2.89122588365376,-0.5353942861631512,0.2735170814067125
1761133028673213400,9.17221337890625,-3.062463324803114,0.2229737658664584,-0.740482997379452
1761133028693060400,9.192060302734374,-2.7100819655179977,0.9683194739114492,-1.0580812125749885
1761133028712908500,9.211908447265625,-1.723554561677575,0.871596152606979,-0.4348468399932608
1761133028732756700,9.2317568359375,-0.0019072949260473251,0.621524828717485,-0.0747518741235137
1761133028752603600,9.251603759765626,1.1442068597584962,0.1438229991968721,-0.15769235193226486
1761133028772451600,9.27145166015625,1.0377069714576006,-0.016875073890015482,-0.24044790162816643
1761133028792299500,9.291299560546875,0.08703472485244274,0.31104535948596895,-0.011361023176275194
1761133028812146700,9.311146728515626,-0.566862898877263,0.8036655758708715,0.5714738998040556
1761133028831994600,9.33099462890625,0.1129869122326374,1.2720280607685446,1.2522512010224163
1761133028851842600,9.350842529296875,1.4158669151216745,1.377200792118907,1.7372285745039582
1761133028871689500,9.370689453125,2.1247090119600296,0.5998365093268454,2.9524419843778014
1761133028891537700,9.39053759765625,2.874690343916416,-0.4018161290615797,3.2580002176895735
1761133028911385600,9.410385498046875,3.50587578510046,-1.4263628824338317,2.7777725229531525
1761133028931232800,9.430232666015625,3.567114389917254,-1.6852128483235835,1.2960568788707256
1761133028951080400,9.45008056640625,2.2327724963158366,-1.7432365827471017,0.5809454559719189
1761133028970927400,9.46992724609375,0.4120458466529846,-1.4308482111543417,0.5658166777599603
1761133028990775600,9.489775634765625,-0.7172399228274822,-0.528275613264367,0.1906855803977698
1761133029010623700,9.509623779296875,-0.9367541958898306,-0.45990905626378953,0.6517003328811377
1761133029030470700,9.529470703125,-0.4766039512813091,-0.8579178289316594,0.6371757676400244
1761133029050318600,9.549318603515625,-0.08376490940153598,-1.1545932292163372,0.3418224828045815
1761133029070166500,9.56916650390625,-0.10648118360042572,-1.156695827518776,-0.14354294014647603
1761133029090013400,9.589013427734375,-0.48110301626622676,-0.8711880101975054,-0.0765003982912749
1761133029109861600,9.608861572265624,-1.1076356632083655,-0.48436289484500883,-0.027578948331810533
1761133029129709600,9.62870947265625,-1.8486334782421587,-0.3014233985293656,-0.1460103531733155
1761133029149556700,9.648556640625,-2.2725673310875893,0.1409213594712317,-0.5122348713066429
1761133029169404400,9.668404296875,-2.3055209216624495,0.49360813144370913,-0.5598938635822385
1761133029189252600,9.688252685546875,-2.2271932348787784,0.8585847684077919,-0.5774653222385794
1761133029209099500,9.708099609375,-2.0286165359050035,0.8791230409804731,-0.3264404970165342
1761133029228947700,9.72794775390625,-1.4210814348995684,0.7432026316016912,-0.08123505299719981
1761133029248794600,9.747794677734374,-0.648680765864253,0.3441602050371468,-0.2199956451048143
1761133029268642600,9.767642578125,0.24086802673637867,-0.08689765446931123,-0.6330027928043156
1761133029288490500,9.787490478515625,0.8943483018368482,-0.43807562931403515,-1.1942169452048836
1761133029308337700,9.807337646484376,1.5601479602843522,-0.30359950045943257,-1.784334170680493
1761133029328185600,9.827185546875,2.1743699917078017,-0.0028336159907281395,-1.9782380555376409
1761133029348033800,9.84703369140625,2.662178643092513,0.16051891712769864,-2.1951409770578145
1761133029367880700,9.866880615234376,2.9869372514367103,-0.12630816609859466,-1.72263642391935
1761133029387728600,9.886728759765624,3.53463367755115,-0.7597311570763587,-0.866988147354871
1761133029407576600,9.90657666015625,3.886474354088306,-0.9010999680541455,-0.8102452465221285
1761133029427423500,9.926423583984375,3.618868542551994,-1.132736348325759,-1.2137545893676578
1761133029447271700,9.946271728515624,2.1811960383355617,-1.2214382757380604,-1.5401637413978575
1761133029467119600,9.96611962890625,0.44301732349991796,-1.2162053435206412,-1.270592328877002
1761133029486966500,9.985966552734375,-0.4717763849943876,-1.1714058323293923,-0.9263226721160114
1761133029506814500,10.005814453125,-1.3699503825992345,-1.5169908094726503,-0.39045875914711503
1761133029526662700,10.02566259765625,-2.2208108403652904,-1.6601047105520963,0.06342685384238138
1761133029546509600,10.045509521484375,-2.276159218099713,-1.4489616677328943,0.47419637868292625
1761133029566357500,10.065357421875,-2.4069027362972495,-1.1281167257010936,0.47356933282576497
1761133029586204400,10.085204345703126,-2.6935376579523087,-1.1103756095662713,0.06385010248944163
1761133029606052600,10.105052490234375,-2.8972113878041506,-1.098009172207117,-0.22336132214562965
1761133029625900500,10.124900634765625,-2.709567586255073,-1.0820625382736324,-0.5426378275506198
1761133029645747700,10.144747802734376,-1.7769862921357154,-1.00714962836951,-0.7147125963069498
1761133029665595600,10.164595703125,-0.4609761740386486,-0.9857705941237509,-0.8325177224762738
1761133029685443600,10.184443603515625,0.5758423241466284,-0.938793592762947,-0.8257013204596936
1761133029705290500,10.20429052734375,0.9884902283459901,-0.8873913223057984,-0.7743684619769453
1761133029725138700,10.224138671875,0.6747346600532531,-0.5308041818939149,-0.7451985546592622
1761133029744986400,10.243986328125,0.03009060235917568,0.2771887556567788,-0.41748738011978564
1761133029764833300,10.263833251953125,-0.31783611560463904,0.9421288746654987,-0.25458047187700866
1761133029784681200,10.28368115234375,0.10162672930657864,1.0742222000367938,-0.48849268812611696
1761133029804529200,10.303529052734374,0.7490630480676889,0.717036801470816,-1.078484387525916
1761133029824376000,10.3233759765625,1.4375649521887301,0.21367942942902446,-1.4940268441230058
1761133029844224300,10.343224365234375,1.9375795896738766,-0.24724837542325256,-1.4993401481002568
1761133029864071200,10.3630712890625,1.7633248465299605,-0.3624250527851283,-1.7335757510848342
1761133029883919400,10.38291943359375,0.9758061033397912,-0.12281272519826889,-1.9963412829831242
1761133029903767000,10.40276708984375,0.7612491604238748,-0.8567246736243367,-0.9040354369841516
1761133029923614200,10.4226142578125,2.125595731666684,-1.5213617180332542,-0.15170111216083168
1761133029943462100,10.442462158203124,3.107523532757163,-2.073435336318612,-0.18030717505067587
1761133029963310300,10.462310302734375,2.3746698612123724,-2.3344120851039887,-0.6099175391625613
1761133029983157200,10.4821572265625,0.2675005975961685,-2.257735672658682,-1.0325351217776537
1761133030003005200,10.502005126953126,-1.012545057672262,-1.7384437955126166,-0.970138871358335
1761133030022853000,10.52185302734375,-1.0252496409446001,-1.491745455187559,-1.1957226735927164
1761133030042700300,10.5417001953125,-0.43581133764386176,-1.5577525895804165,-1.3760180120751262
1761133030062548200,10.56154833984375,0.10896014093458652,-1.333152976077795,-1.6834404318235814
1761133030082396200,10.581396240234374,0.12002046413123607,-0.9356918273553252,-1.7923169861279427
1761133030102243000,10.6012431640625,-0.22740181144177912,-0.518605940708518,-1.9209211542092262
1761133030122091300,10.62109130859375,-0.3768313254088163,-0.4255968176215887,-1.9900188019633291
1761133030141938200,10.640938232421876,-0.5859294183969498,-0.5846040150120854,-2.0923601092800497
1761133030161786400,10.660786376953125,-1.0116559998780488,-0.7613010367415844,-2.057057032969594
1761133030181634300,10.68063427734375,-0.7039683533221482,-0.9231105782017112,-1.8831595788307487
1761133030201481200,10.700481201171876,-0.16751579027771948,-1.0042200046584009,-1.9585515044234691
1761133030221329200,10.7203291015625,-0.2398340075135231,-0.9808908592581749,-1.8888588133856654
1761133030241177300,10.74017724609375,-0.5490624537706374,-1.1197598162442446,-1.6602233684957026
1761133030261024300,10.760024169921875,-0.17042027954757213,-1.2616685793176292,-1.4049357712626456
1761133030280872200,10.7798720703125,0.9065279844522476,-1.3463326295159757,-0.9440381423529237
1761133030300720000,10.79972021484375,1.5222095670342444,-1.210403963765502,-0.6491638001408427
1761133030320567000,10.819567138671875,1.544256563669443,-1.0038431341700256,-0.5923080865833908
1761133030340415200,10.839415283203126,0.9583534487575291,-0.930037454855442,-0.4710303158674389
1761133030360263200,10.85926318359375,0.4377040195226669,-0.7471431859210134,-0.4088596908975392
1761133030380110300,10.8791103515625,-0.06923661783337592,-0.13131459608376025,-0.5553698468191549
1761133030399958000,10.8989580078125,0.5228735350251198,-0.08084741451963783,0.28730891192648556
1761133030419805200,10.91880517578125,0.9651794953852891,-0.35696722577065226,0.5060185906076804
1761133030439653000,10.938653076171875,0.6897445976585149,-0.5086015563055872,0.18645101156793534
1761133030459501300,10.958501220703125,1.0111275920897722,-0.8418988604143262,0.22083536559827624
