time,seconds_elapsed,z,y,x
1761129466643703800,0.111703857421875,-0.006693360158801079,0.0005654153304174542,-0.006825548300016089
1761129466663548700,0.131548583984375,-0.005944587618112564,-0.00047300835620844736,-0.00870826819052163
1761129466683394600,0.15139453125,-0.009086977297067641,0.0025751408677664586,0.012711591826792573
1761129466703239700,0.17123974609375,0.002435702714323997,-0.0006723417370347306,0.01930716672501294
1761129466723085600,0.19108544921875,-0.0035498014360666272,-0.0012775639214552938,-0.008185981899066245
1761129466742930700,0.2109306640625,-0.0065425535112619395,0.006680080552119761,-0.012114719628897729
1761129466762776600,0.230776611328125,-0.008038929548859595,-0.006117517049203161,-0.0016599439852987416
1761129466782621700,0.25062158203125,-0.0039987142473459246,-0.0027860071394708937,0.013092338197620118
1761129466802466600,0.270466552734375,-0.008784779480099678,0.0047361319936695505,0.005247832388206734
1761129466822312700,0.290312744140625,-0.008345219019055366,-0.0018584736485267057,0.0002701395883472287
1761129466842157600,0.310157470703125,-0.0037029461711645126,-0.0039014667012379502,-0.00509159836359031
1761129466862004000,0.33000390625,-0.007588847693800926,-0.0009513915738556533,0.0021077071607520335
1761129466881849000,0.34984912109375,-0.0077402388632297515,0.003655766578170005,0.014988623105885926
1761129466901695000,0.369695068359375,0.0034808278530836104,0.004857249039132148,0.01991847844021395
1761129466921540000,0.3895400390625,-0.002653144857287407,-0.012528103327425197,-0.00923128855927207
1761129466941386000,0.409385986328125,0.00019172317981719968,-0.005514386357169132,0.0010245763973085558
1761129466961231000,0.429231201171875,0.005578676915168762,0.0003363603814737871,0.012263333177706226
1761129466981077000,0.449076904296875,-0.006544307076930999,0.02213736234937096,-0.03215294171646237
1761129467000921900,0.468921875,0.0012409399718046187,-0.012762124429142567,0.0008884201858629239
1761129467020767000,0.48876708984375,-0.017013678643107412,0.008728704194596502,0.0014226249585641197
1761129467040612900,0.50861279296875,-0.005041501298546791,0.007314131538802757,0.0020559998064010867
1761129467060458000,0.5284580078125,-0.0030997195810079574,-0.003566387244686484,-0.0001185700369940605
1761129467080304000,0.54830419921875,-0.00459317300915718,-0.01690277703098254,0.0012596178436331683
1761129467100149200,0.568149169921875,0.005284077882766723,0.0022939515894977373,-0.005104794630236574
1761129467119995100,0.5879951171875,-0.002497662034630775,0.0087775094890967,0.004340233719482785
1761129467139840000,0.607840087890625,-0.007584756040573119,-0.018777781689201946,-0.00043075781254738103
1761129467159686100,0.62768603515625,-0.0007002572238445281,0.02164297099512769,-0.0037242218546336514
1761129467179531000,0.647531005859375,0.0013940847069025038,0.027992018078151156,-0.015289820842433254
1761129467199377200,0.667377197265625,0.00004617722928524017,-0.022818985654693095,0.008361507429330959
1761129467219222000,0.687221923828125,-0.0032446810096502304,0.00062282862305874,-0.0036205479926720726
1761129467239068000,0.70706787109375,0.005883212819695473,0.024046830966195556,0.011840694168710615
1761129467258913000,0.7269130859375,-0.010578677159547805,0.0010106931461952627,-0.02091528234166326
1761129467278758100,0.746758056640625,-0.008034253373742103,-0.02250271136331139,-0.018660242557025048
1761129467298604000,0.76660400390625,0.0006447276443243027,-0.011505884140217675,0.016594109515676973
1761129467318449000,0.786448974609375,-0.013421207109093666,0.04693088349702302,0.004931656849058345
1761129467338295000,0.806294921875,-0.0035457097828388213,-0.0017871003291918895,0.022078919293556827
1761129467358140000,0.826139892578125,-0.0013017302483320236,-0.0181036681201891,-0.026581406928133218
1761129467377986000,0.845986083984375,0.0037859482795000073,0.0072753156320657575,-0.0012702145861723693
1761129467397831000,0.865830810546875,0.0012409399718046187,0.012445993984944653,0.024408435386780183
1761129467417677000,0.885677001953125,0.006626724663376808,0.002625076390139293,0.00845373402373807
1761129467437522200,0.905522216796875,0.0046820203363895415,-0.02809377968588378,-0.0016827717342152027
1761129467457368000,0.9253681640625,-0.003547463348507881,0.0005530673054978251,-0.021500484651362055
1761129467477213200,0.945213134765625,0.007525719329714775,0.003101368115399964,0.015995102442911593
1761129467497059000,0.96505908203125,-0.002500584644079208,-0.011686467154801356,0.024004176851268856
1761129467516904200,0.984904296875,0.005282324317097664,-0.002332491218310315,-0.001373074455736787
1761129467536750000,1.00475,0.010969137781858443,0.009657461528247221,-0.005029439826350426
1761129467556595200,1.02459521484375,0.0012415244936943054,-0.04679533378412015,-0.11180800464637577
1761129467576440000,1.044440185546875,0.005431377398967743,-0.008254291615879629,0.0015289933865220518
1761129467596286000,1.064285888671875,0.008872457763552666,0.038669748865114525,0.08068749298388138
1761129467616131000,1.084131103515625,0.004682604858279228,0.015506507216859608,0.0427681880267337
1761129467635977000,1.10397705078125,-0.012077391284704208,-0.03000151300334837,-0.03410177422929555
1761129467655822000,1.123822021484375,0.003037175738811493,-0.01182051674707327,-0.06395029776117299
1761129467675668000,1.14366796875,0.009022095367312431,0.011126591082604135,0.024862597478623502
1761129467695513000,1.16351318359375,0.0016904373049736023,0.020482407349732237,0.07396828599777072
1761129467715359000,1.18335888671875,-0.0011526771664619444,0.010642805604054593,0.021340805144200566
1761129467735204000,1.2032041015625,0.00348608855009079,-0.012125968250341247,-0.04709244443401694
1761129467755050000,1.223050048828125,0.0010918868899345397,-0.011255306912632658,-0.05218710982506163
1761129467774894800,1.242894775390625,-0.0008545710027217865,-0.00003062118383822962,0.0336384881160804
1761129467794741200,1.2627412109375,-0.01462181507050991,0.029787237781716974,0.05302092116754502
1761129467814586000,1.282586181640625,-0.0007055179208517074,0.009922064997896086,0.006160340127488598
1761129467834431200,1.30243115234375,-0.00220247848033905,-0.024152266385336404,-0.05404344174885191
1761129467854277000,1.322277099609375,0.0006406359910964965,-0.013169944894919171,-0.03276475803845096
1761129467874122000,1.3421220703125,-0.0045972646623849865,0.0004684280792134814,0.027017076665349304
1761129467893968000,1.3619677734375,-0.003251110750436783,0.019709646578680257,0.02871983002920169
1761129467913813000,1.38181298828125,0.005277648141980171,-0.0015544560505193657,-0.012101694608898832
1761129467933659000,1.401658935546875,-0.00040741175711154934,0.021700722214486448,-0.04240821844080928
1761129467953503700,1.421503662109375,-0.0022030630022287366,0.00015600341246463356,0.02875947705300059
1761129467973350100,1.44135009765625,0.009768529820442198,-0.040389841522835195,0.04437093334852252
1761129467993194800,1.46119482421875,0.002883446481823921,-0.009143995580775662,-0.008334654242557008
1761129468013041000,1.481041015625,-0.0004091653227806091,0.015357675613986793,-0.059107419740688054
1761129468032886000,1.500885986328125,-0.0059451721400022505,-0.00345346948869992,-0.027542379181087016
1761129468052732000,1.52073193359375,-0.0036994390398263927,-0.011390237854316365,0.03867729285075329
1761129468072577000,1.540576904296875,0.0015378770917654036,0.02616200333912857,0.036956496940134094
1761129468092423000,1.5604228515625,0.0049801265001296995,0.024495588513847904,0.007598258838718175
1761129468112268000,1.58026806640625,0.004082300877571106,-0.02757884786711074,-0.007906486250140005
1761129468132113000,1.60011279296875,-0.006691022071242332,-0.022032166675536428,-0.018474613474565558
1761129468151959000,1.619958984375,-0.009534721064567566,0.006141747308161575,-0.003776484048122074
1761129468171804000,1.639803955078125,-0.007290741530060768,0.024845036705757956,0.023201900008076336
1761129468191649800,1.65964990234375,-0.0019037877947092054,-0.005238695237925276,0.015385789746907538
1761129468211495000,1.679494873046875,-0.007589432215690612,-0.0016546147896326145,-0.01743778238176019
1761129468231340800,1.6993408203125,-0.005045592951774597,0.00708514737180667,-0.026911568180972244
1761129468251186000,1.71918603515625,0.0033329438149929044,-0.004636710756784305,0.012943093319504986
1761129468271031800,1.73903173828125,-0.0007066869646310806,-0.0028859010171028783,0.016457515198225154
1761129468290877000,1.758876953125,0.0004898293435573578,-0.005759638955665287,0.01644067594456719
1761129468310722800,1.778722900390625,-0.0007078560084104537,-0.0016075721939560026,-0.027055365132412405
1761129468330568000,1.79856787109375,-0.0007084405303001403,-0.00849405062192818,-0.012112349575298139
1761129468350414000,1.8184140625,-0.0041501054167747495,-0.00021097815284738315,0.006569684688426787
1761129468370259000,1.838259033203125,0.007371990072727203,0.0048012605185969726,0.028387769080221184
1761129468390103800,1.858103759765625,-0.00549684385061264,-0.0007866317494888789,0.003520271664194297
1761129468409950000,1.877949951171875,-0.005196984121203422,-0.006531890553352422,-0.024567660519503987
1761129468429795000,1.897795166015625,0.004080547311902046,-0.011733160407317336,-0.0024112361349922138
1761129468449641000,1.917640869140625,0.014554595053195953,0.012502126352663618,0.007738076588895637
1761129468469486000,1.937486083984375,0.0031821371674537655,0.013814003535674418,0.0226466201958945
1761129468489332000,1.95733203125,-0.0065437225550413125,-0.005063044126785826,0.009933951798512135
1761129468509177000,1.977177001953125,0.003332359293103218,-0.008222834748402238,-0.027105837227613665
1761129468529023000,1.99702294921875,-0.012379589101672172,0.006019513734558131,-0.014121262261894299
1761129468548867800,2.016867919921875,-0.0008580781340599059,0.0027306373901548795,0.019753478870540856
1761129468568714000,2.0367138671875,0.001985036337375641,0.004273784312081989,0.010996827223093714
1761129468588558800,2.056558837890625,-0.002054594442248344,0.004300359508465044,-0.016689020115870517
1761129468608404000,2.076404052734375,0.0006382979035377502,-0.005695062986586708,-0.015157214288576505
1761129468628249900,2.096249755859375,-0.0025040917754173275,-0.003576773924671579,-0.0009852030827343695
1761129468648095000,2.116094970703125,-0.005346037203073501,-0.005026187281694729,0.026031061302684247
1761129468667940900,2.13594091796875,0.0024351181924343107,0.0016344145351089537,0.020195080591621808
1761129468687786000,2.155785888671875,0.001986205381155014,0.0018509867451037278,-0.014416243745142127
1761129468707631900,2.1756318359375,0.006325695890188217,-0.015485596859571522,-0.027362734598130916
1761129468727476700,2.195476806640625,-0.0016050971090793608,-0.0004452755324891768,-0.008789383731625276
1761129468747323100,2.2153232421875,0.008870119675993918,0.011052605681074782,0.022333668089471757
1761129468767168000,2.23516796875,-0.01357610540986061,0.016934526159404776,0.015392283419775776
1761129468787014000,2.255013916015625,-0.0010065466940402984,-0.0006167527920100837,-0.011396297702344599
1761129468806859000,2.27485888671875,0.004680266770720482,-0.007875368451024406,-0.023651390491379425
1761129468826705000,2.294704833984375,-0.0008563245683908462,0.003453921579848975,-0.005887178321226383
1761129468846550000,2.314550048828125,0.006326280412077903,0.0017734964955248868,0.026610706087853757
1761129468866395600,2.334395751953125,0.0018365677773952483,0.005402790625300258,0.028167566441302187
1761129468886240800,2.35424072265625,0.004380407041311264,0.0020084377625607885,-0.016404636516806202
1761129468906085600,2.374085693359375,0.001388239488005638,-0.01768617107719183,-0.014405382141121663
1761129468925931800,2.393931884765625,-0.007889876466989517,-0.007196754520118702,0.009931592019711388
1761129468945776600,2.413776611328125,0.0049789574563503265,0.014715815780183765,0.012092256635340163
1761129468965622800,2.433622802734375,-0.0013058219015598296,0.009707451849547214,0.011617096279596444
1761129468985468000,2.453468017578125,0.007074468430876731,-0.02185652241426287,-0.012158580461866221
1761129469005313800,2.473313720703125,-0.0023521160840988156,-0.0061114983003702945,-0.008476514965237584
1761129469025159000,2.493158935546875,-0.00025777415335178375,0.016834250972571317,0.0004863142207090277
1761129469045004800,2.5130048828125,0.001986205381155014,0.0004258767122752033,0.00945931374504289
1761129469064850000,2.532849853515625,-0.005794365492463111,-0.01566187587508466,0.01016957576884888
1761129469084695800,2.55269580078125,0.0009404957205057144,0.009080883199709932,-0.01337160837179399
1761129469104541000,2.572541015625,0.0018377368211746215,0.011745974223117808,-0.02767180511387996
1761129469124385800,2.5923857421875,-0.008487257838249206,-0.012764336935826577,0.011773538083478342
1761129469144231700,2.612231689453125,0.008422375908493995,-0.006873420300288126,0.03622219131621532
1761129469164076800,2.632076904296875,-0.0005552957952022552,0.01985421984825516,-0.008701918364837182
1761129469183922700,2.651922607421875,0.0045329672545194625,-0.014112534391100051,-0.018632680979953145
1761129469203767800,2.671767822265625,0.007824994537234306,-0.019256676363502628,-0.002114719710961799
1761129469223613700,2.69161376953125,0.01111702181994915,-0.0016455341507447883,0.03923571675138082
1761129469243458800,2.711458740234375,0.004831657940149307,0.017034673482074866,0.023606553552520927
1761129469263304700,2.7313046875,-0.008485504272580146,0.003810614646587055,-0.01268718232967658
1761129469283149800,2.75114990234375,-0.0017518121033906935,-0.010749990022287237,-0.042590977429458866
1761129469302996000,2.770995849609375,0.007526303851604461,-0.011026432343490886,-0.0012855725563305895
1761129469322840600,2.790840576171875,-0.014170564171671866,0.019060176543868147,0.0009336390047450549
1761129469342687000,2.81068701171875,0.00483282698392868,0.02496701226774603,0.01395493724317057
1761129469362531800,2.83053173828125,-0.00040448914766311644,0.01164978383964626,0.010044266605458688
1761129469382377000,2.850376953125,0.0030377602607011794,-0.017581938951159826,0.00027106974305352195
1761129469402222800,2.870222900390625,0.005730068084597587,0.006590123546612449,-0.0020057646023953564
1761129469422068000,2.89006787109375,0.003634557110071182,0.01166133956341073,-0.010295517403190024
1761129469441913900,2.909913818359375,-0.0004056581914424896,-0.01885924257771112,0.0066185864518716695
1761129469461759000,2.929759033203125,-0.0029489129334688184,-0.0011449276848463342,0.006591088806881452
1761129469481604900,2.94960498046875,-0.010580430725216866,0.008385146887355949,0.001143375619399012
1761129469501449700,2.96944970703125,0.010666355443000793,0.01156356914420612,-0.0019052901986287905
1761129469521296000,2.9892958984375,-0.000855155524611473,-0.01344400117950281,-0.013267420769890305
1761129469541140700,3.009140625,0.0004921674311161041,0.05681386544341221,0.02217495897997869
1761129469560987000,3.02898681640625,-0.002051671832799911,0.058467500702221877,0.016183127836789934
1761129469580831700,3.048831787109375,-0.0014531214177608488,-0.08080291779078543,-0.05488395226018037
1761129469600677600,3.068677734375,0.0010913023680448532,-0.0878226420934312,-0.0365409795083804
1761129469620522800,3.088522705078125,0.006178396373987197,0.0303261304313899,0.07764889247296378
1761129469640367900,3.108367919921875,0.00677694678902626,0.06907173699471168,0.07692379306880756
1761129469660213800,3.1282138671875,-0.000405073669552803,-0.021643866044271272,-0.05677880782976281
1761129469680058600,3.14805859375,0.00019406126737594602,-0.05495764311747625,-0.09643732570363209
1761129469699905000,3.167905029296875,0.0007920271605253219,0.03126927476670826,0.01146015900208149
1761129469719749600,3.18774951171875,0.005281155273318291,0.04775027358850929,0.07991084605557844
1761129469739595800,3.207595703125,-0.003397241222858429,-0.012980100861645768,0.020484734020847824
1761129469759441000,3.22744091796875,0.0004939209967851639,-0.031209699199732856,-0.07875049703931436
1761129469779286800,3.247286865234375,0.0034866730719804763,-0.014507593556714708,-0.041895656675635835
1761129469799132000,3.2671318359375,0.00034369887113571166,0.03958088149381801,0.03598952877123374
1761129469818976800,3.286976806640625,0.007975801184773444,0.01346779533033259,0.06625652431035414
1761129469838823000,3.306822998046875,-0.0024988310784101486,-0.0036466197239118626,-0.012530674310424364
1761129469858668000,3.32666796875,-0.011776362511515617,-0.0023325003514648415,-0.06492952719002495
1761129469878514200,3.34651416015625,-0.0029477438896894454,0.0022074332166695967,-0.011138010950695025
1761129469898359000,3.366359130859375,0.007825579059123993,0.024198329450190067,0.03915676519707777
1761129469918205000,3.386204833984375,-0.010878536888957024,-0.001794388586503919,0.015056240415421779
1761129469938050000,3.406050048828125,0.00902384893298149,-0.02693288039705949,-0.03119923717122292
1761129469957896000,3.42589599609375,0.007078560084104538,-0.011435323671635706,-0.016665287613833787
1761129469977741000,3.445740966796875,0.003487257593870163,0.017584927775978577,0.018991600253107026
1761129469997587000,3.4655869140625,0.006629062750935554,0.015827078657445964,-0.0004952772702323272
1761129470017432000,3.48543212890625,-0.005641220757365227,-0.01073436547818128,-0.01749685220030369
1761129470037278000,3.50527783203125,0.0066296472728252405,-0.019576782013208137,-0.007489454427201417
1761129470057123000,3.525123046875,0.009023264411091804,0.00877932013698155,0.013886210255359764
1761129470076968000,3.544968017578125,0.007376666247844696,0.016256617764686232,0.00527975219245418
1761129470096814000,3.56481396484375,-0.005042670342326164,-0.01120251956275897,-0.013093044875451596
1761129470116659200,3.5846591796875,-0.00040273558199405667,0.0008208171468810178,-0.029745855458558068
1761129470136505000,3.604505126953125,0.011418050593137741,0.01737513921650825,0.010424865704169495
1761129470156350200,3.62435009765625,0.005732406172156333,0.011140201766137033,0.01611946518316399
1761129470176196000,3.644196044921875,0.0034878421157598493,-0.008571017998410388,-0.009782279784581623
1761129470196041200,3.664041259765625,-0.0005523731857538223,-0.0038242961120675315,-0.02855353811816312
1761129470215887000,3.68388720703125,-0.007136427751183509,-0.0015509260862949304,-0.009636660768813454
1761129470235732000,3.70373193359375,0.0007937807261943817,0.012637322155828587,0.01846301893489435
1761129470255578000,3.723578125,-0.001301145726442337,-0.0035078323077294042,0.004025393904183875
1761129470275423000,3.743423095703125,0.009174071058630943,-0.011664513334608636,-0.018649662939150585
1761129470295268000,3.76326806640625,0.0007943652480840683,-0.009256943019514437,-0.02030911715903785
1761129470315114000,3.783114013671875,-0.004741641569137573,0.002507740470650606,0.016347188974835444
1761129470334959000,3.802958984375,-0.008930909952521323,0.013748970908869522,0.006865771854194463
1761129470354805000,3.822804931640625,0.005583937612175941,0.000010866170597728341,-0.01833763898955658
1761129470374650000,3.842650146484375,0.0009451718956232071,-0.01731658427955117,-0.010742156058992258
1761129470394496000,3.86249609375,0.00393792397081852,0.01637645388522651,-0.009685893038287758
1761129470414340900,3.8823408203125,0.00289046074450016,0.016473788196302484,0.010219255562894977
1761129470434187300,3.902187255859375,-0.007135843229293823,-0.010857624248380306,-0.006386388556126621
1761129470454032000,3.922031982421875,-0.0007008417457342147,-0.004812037640938069,-0.009607311376743017
1761129470473878300,3.941878173828125,-0.0017488894939422606,0.006284309000452049,0.0011329250073322328
1761129470493723100,3.96172314453125,-0.004293313279747963,0.003677715831785463,0.004513467398783541
1761129470513568300,3.981568359375,-0.004143675675988197,-0.0008913433661335147,0.008072823826951207
1761129470533414100,4.0014140625,-0.009531213933229445,0.0042030708631617016,-0.013317705635423772
1761129470553259000,4.021259033203125,0.0036374797195196148,0.008663564253225921,-0.004274369404793833
1761129470573104000,4.041104248046875,0.007079144605994224,0.0018914945687167346,0.004762783680221764
1761129470592950000,4.060949951171875,0.00244037888944149,-0.003768424039252568,-0.000531985701562371
1761129470612795100,4.080795166015625,-0.00953062941133976,0.0004885963676963002,-0.009605582927248906
1761129470632641000,4.10064111328125,-0.005939326921105385,-0.0037152508136001415,-0.008242053188814316
1761129470652486100,4.120486083984375,0.00004617722928524017,-0.004552868398232385,-0.0027094501841202143
1761129470672332000,4.14033203125,0.003188566908240318,0.0014506486161728388,0.00810550967453455
1761129470692177200,4.16017724609375,-0.003993453550338745,0.0019918930531363003,0.004575929042589268
1761129470712023000,4.18002294921875,0.0010942249774932862,-0.00576598421477247,-0.0056786843864101684
1761129470731868000,4.199867919921875,0.0027396540969610215,0.004088986346684396,-0.005272128291713306
1761129470751714000,4.219714111328125,0.0015425532668828963,0.00595826908359304,-0.0008406760497542563
1761129470771559000,4.239558837890625,-0.00653729281425476,0.00005840652319602668,0.002870493385416921
1761129470791404000,4.259404052734375,-0.0011497545570135115,0.0020419084906112403,-0.0064883522349031405
1761129470811250000,4.27925,-0.001897358053922653,0.005707646190235391,-0.006325405341709847
1761129470831095000,4.299094970703125,0.0018435820400714872,-0.0017499672061763703,0.011321492600196506
1761129470850941000,4.31894091796875,0.003339373555779457,0.004703716144966893,-0.004380420170220895
1761129470870786000,4.3387861328125,-0.006835398977994918,0.008722507349250373,0.0014483773148065665
1761129470890632200,4.358632080078125,0.0009457564175128936,0.0016081110500730574,-0.0036418916039780013
1761129470910477000,4.37847705078125,0.0012444471031427384,-0.006620808662532363,0.005215264700810076
1761129470930323200,4.3983232421875,-0.0038426469027996062,0.006570594578946475,-0.0025873393372807182
1761129470950168000,4.41816796875,-0.004441197317838669,0.007144362179178279,-0.005569635092187672
1761129470970014200,4.43801416015625,0.002592354580760002,0.0028003484753658992,-0.004202055370542803
1761129470989859000,4.457859130859375,-0.0005500350981950759,-0.0012528290557092987,0.005075135281734401
1761129471009704200,4.4777041015625,-0.00040098201632499694,0.007053770419431385,-0.002565372959000524
1761129471029550000,4.497550048828125,-0.0032440964877605435,-0.006000457407638896,0.0020477719758171587
1761129471049395200,4.517395263671875,-0.012222352713346481,0.0016058528776164167,-0.0042572698562318686
1761129471069241000,4.537240966796875,-0.007584171518683433,0.007568827819079161,0.004966118524374906
1761129471089086000,4.5570859375,-0.004591419443488121,0.0011475762996589764,0.005420798922737595
1761129471108932000,4.57693212890625,0.0043862522602081296,0.002166359137475956,-0.0033219098226807543
1761129471128777000,4.59677685546875,0.007678279542922974,-0.0033603113125311207,0.0008198935566295403
1761129471148623000,4.616623046875,0.0066308163166046135,0.009000842516729607,-0.0009416704725066665
1761129471168468000,4.636468017578125,-0.004592003965377807,0.0013383930138894356,0.0001834085842652712
1761129471188313900,4.65631396484375,-0.005339607462286949,0.0015645733024459332,0.004174300284759374
1761129471208159000,4.676158935546875,0.007379588857293128,0.01284415842309827,-0.007978598784169299
1761129471228004000,4.696004150390625,-0.0027957681983709335,0.007086501361965201,0.0011174391730106436
1761129471247850000,4.71585009765625,-0.007135843229293823,0.0005376756568322889,-0.0016531175231124507
1761129471267694800,4.73569482421875,0.0046855274677276605,-0.00346384931881912,0.004158151155090308
1761129471287541200,4.755541259765625,-0.000702010789513588,0.00749467345419107,-0.001417827483738074
1761129471307386000,4.77538623046875,-0.00863221926689148,0.007156616589264013,-0.0017468128429318313
1761129471327232000,4.79523193359375,0.0009440028518438339,0.0008705654395860619,-0.00958959648189484
1761129471347077000,4.8150771484375,-0.00519055438041687,0.0032589355805772353,-0.003909038086340297
1761129471366923000,4.834923095703125,0.005882628297805786,-0.003942826191510539,0.005699316753307357
1761129471386768100,4.85476806640625,-0.007585340562462807,-0.0042756337758735755,0.002258693046448752
1761129471406614000,4.874614013671875,0.006031681379675865,0.001870791990694124,-0.0013499013594147982
1761129471426459100,4.894459228515625,0.0006447276443243027,0.00887276829080656,0.004087150582624599
1761129471446304000,4.914303955078125,0.00812719235420227,0.002009389893920161,-0.00613794848670077
1761129471466150100,4.934150146484375,-0.009828735575079918,0.003409041258506477,0.00023292797728499863
1761129471485995000,4.9539951171875,-0.0005517886638641358,-0.005110716910124756,-0.004755601025008945
1761129471505841000,4.9738408203125,0.0004962590843439102,0.0010773172251763753,-0.0018461718602018663
1761129471525686000,4.99368603515625,-0.002347439908981323,0.006075182594684884,-0.002301361431929399
1761129471545532000,5.013531982421875,-0.0018991116195917128,-0.002319871482043527,0.003650217615973088
1761129471565377000,5.033376953125,0.007378419813513755,-0.00005798868137644604,0.001020732766308356
1761129471585223000,5.053222900390625,-0.004143091154098511,0.011882761478458997,0.00623230367693468
1761129471605068000,5.073068115234375,0.003039513826370239,-0.004467201692063827,-0.0077851825458317755
1761129471624914200,5.0929140625,0.0004962590843439102,0.0007508822993841022,-0.0000610391549882479
1761129471644759000,5.112759033203125,-0.00563888266980648,0.0050797966154757885,0.006411691960741882
1761129471664604000,5.13260400390625,0.001693359914422035,-0.0004694007601705379,0.00023284178313915616
1761129471684450000,5.152449951171875,0.00797813927233219,-0.0010747987578157334,0.004774039151531178
1761129471704295200,5.172295166015625,0.0013940847069025038,0.00618709798696218,-0.021542003971838856
1761129471724141000,5.19214111328125,0.004835749593377113,0.0011106258397339842,-0.004125086852416279
1761129471743986200,5.211986083984375,-0.010128010782599449,-0.005587241530825849,0.00014697072263807057
1761129471763832000,5.23183203125,0.0031897359520196913,0.0036885888522490856,0.0018106889840448274
1761129471783677200,5.25167724609375,-0.004143091154098511,0.003574390171340201,0.00663525274641579
1761129471803523000,5.271523193359375,0.0003454524368047714,-0.0019897421952453443,0.006209271002863534
1761129471823368200,5.2913681640625,-0.006837737065553665,-0.003263810401805676,-0.0003927507608081214
1761129471843213000,5.311213134765625,-0.001600420933961868,-0.002259814141166862,0.0023240459044842282
1761129471863058700,5.33105859375,-0.008633388310670852,-0.0005831108173122629,-0.0013403355216927593
1761129471882903600,5.350903564453125,0.0004939209967851639,-0.0019285911591141484,-0.00369555288257543
1761129471902749400,5.37074951171875,0.000045008185505867,0.0002726954445592128,0.002543475650201435
1761129471922594600,5.390594482421875,0.0033370354682207104,0.005424721612606663,-0.005798605559451971
1761129471942440400,5.4104404296875,0.008723404681682586,0.0055262137922807595,0.007325111873832065
1761129471962285600,5.43028564453125,0.0009422492861747741,-0.0027439443962997754,0.0014358340687089365
1761129471982131500,5.45013134765625,0.004682604858279228,0.005921654267096892,-0.0024963183192710857
1761129472001976600,5.4699765625,0.00632861849963665,-0.0010079395001055672,-0.005547118441347265
1761129472021822500,5.489822509765625,-0.008336451190710067,-0.0027176226449548264,0.0026309918201615798
1761129472041667600,5.50966748046875,-0.011029928058385848,-0.0029317015037639066,0.0022534072332666254
1761129472061512400,5.529512451171875,-0.005343699115514755,-0.008023615532007533,-0.00001341546235489659
1761129472081358300,5.5493583984375,-0.0045960956186056135,0.010198591800779104,0.004113830239462549
1761129472101203500,5.569203369140625,-0.0005552957952022552,0.009393303299881518,0.006118703788469429
1761129472121049300,5.58904931640625,0.0019891279906034467,0.001724972045526374,-0.006394813891177182
1761129472140894500,5.60889453125,-0.001004208606481552,0.001662585750245489,0.0005314308624248951
1761129472160740400,5.628740234375,0.0034849195063114164,0.004543189537723083,0.0016511316328251268
1761129472180585500,5.64858544921875,0.009918751946091651,0.004674496900348458,0.00002994590122543741
1761129472200431600,5.668431640625,0.004831657940149307,-0.0016562564741587264,-0.0015144887954898875
1761129472220276500,5.6882763671875,-0.0023509470403194426,0.003669228847941849,-0.002468867481697816
1761129472240121300,5.708121337890625,-0.004894786304235458,0.00895541648940416,-0.009898576807742938
1761129472259967500,5.727967529296875,-0.005644143366813659,0.002093348700192291,0.006173002675417229
1761129472279812600,5.7478125,0.006775777745246887,0.0056242353732348415,0.004400706618890399
1761129472299658500,5.767658447265625,-0.002351531562209129,0.000044005821796599774,-0.0014957635454222325
1761129472319503600,5.787503662109375,0.00722527507841587,0.0018968945463304406,-0.003356179701752262
1761129472339349500,5.807349609375,0.0000415010541677475,0.0009490443531423807,-0.0002735785064374795
1761129472359194600,5.827194580078125,-0.00010755202770233153,0.0003037230537738651,0.006934851610098849
1761129472379040500,5.84704052734375,-0.0059440030962228775,0.0057094134556362405,-0.0014788906132569535
1761129472398885400,5.866885498046875,0.005727729997038841,0.003809616849455051,0.005960149942603311
1761129472418730500,5.88673046875,0.005278232663869857,-0.0066300879475311375,-0.009903167359536747
1761129472438576400,5.906576416015625,-0.010583937856554985,0.00021954733508173374,0.002936244106496451
1761129472458421500,5.92642138671875,0.006774608701467514,0.00016556354196509346,0.005666091478784801
1761129472478267400,5.946267333984375,0.0006388824254274368,-0.004931184208311606,-0.0068672753997583635
1761129472498112500,5.966112548828125,-0.002354454171657562,0.0006183579439180903,-0.0015296817980444757
1761129472517958400,5.98595849609375,0.0030330840855836865,-0.0047427786468761035,0.001950994216345134
1761129472537803500,6.005803466796875,-0.004897708913683891,-0.0004058705372852273,0.005120810758342849
1761129472557649400,6.0256494140625,-0.0007072714865207671,-0.004810861747292801,0.0028432988469925475
1761129472577494300,6.045494384765625,0.0013876549661159514,0.008228812398039735,-0.006582656051142839
1761129472597339400,6.06533935546875,0.0036316345006227493,0.0012501804408966562,-0.003159534322467516
1761129472617185300,6.085185302734375,0.0034819968968629834,-0.003745860580995213,0.009252305089481523
1761129472637030400,6.105030517578125,0.0034819968968629834,0.01226457528672181,0.007314885594873339
1761129472656876500,6.12487646484375,-0.011032850667834281,-0.0004992479091626592,-0.0015480508550856028
1761129472676721700,6.1447216796875,0.00871931302845478,-0.009298087880655658,-0.006008354732193402
1761129472696567600,6.164567626953125,-0.005645896932482719,-0.00924784639760619,-0.006490592141050728
1761129472716412700,6.18441259765625,-0.0039998832911252976,0.015546327770594507,0.0043703845458629076
1761129472736258600,6.204258544921875,0.00348258141875267,0.004421467420773114,0.0077402577003609615
1761129472756103400,6.224103515625,0.003183306211233139,-0.002846738050493877,-0.009811810698098269
1761129472775949600,6.243949462890625,-0.004298573976755142,-0.004006950069440063,-0.014190018932457313
1761129472795794400,6.26379443359375,-0.0005570493608713149,0.010721373565867543,-0.0027009660543873904
1761129472815639600,6.2836396484375,-0.009983633875846862,0.0051895953991916025,0.00788454156310181
1761129472835485400,6.3034853515625,0.0004915829092264175,-0.0005265446247532964,0.009475351564391166
1761129472855330600,6.32333056640625,-0.0035486323922872542,0.0008632337997900322,-0.00809896576931642
1761129472875177000,6.343177001953125,-0.0008557400465011596,0.00830316084246151,-0.0030736969404737465
1761129472895021800,6.363021728515625,0.004531213688850402,0.005934751210687682,-0.008993197495568893
1761129472914868000,6.382867919921875,-0.0032487726628780363,0.002177654566336423,0.003099120788564323
1761129472934712800,6.402712890625,-0.02330021156668663,-0.002628302676975727,0.006121984874233021
1761129472954558000,6.422557861328125,-0.003099135059118271,0.004971751397429034,-0.002167001883225748
1761129472974403800,6.44240380859375,-0.0038473230779170987,-0.002256818466482218,0.0031054420731408752
1761129472994249000,6.4622490234375,0.0003425298273563385,0.0006195292709860951,-0.006603280997351976
1761129473014095000,6.48209521484375,-0.0017523966252803802,-0.0034281615175073966,-0.0017694145462737651
1761129473033940000,6.50193994140625,-0.0005552957952022552,-0.0073475634509464725,-0.0025631627356051466
1761129473053786000,6.5217861328125,0.010667524486780166,-0.001276050101092551,0.008326405862375395
1761129473073631000,6.541630859375,0.004980711022019386,0.0004247670340002514,-0.0061726744526764375
1761129473093477000,6.56147705078125,-0.00040624271333217617,0.005185567678045481,-0.002661151208874071
1761129473113322000,6.581322021484375,0.0025870938837528226,0.0023583220625994724,-0.003965522651330684
1761129473133167900,6.60116796875,-0.003996376159787178,-0.002046344920422416,0.0026320769530837423
1761129473153013000,6.621012939453125,-0.0007037643551826477,0.001980389845010359,-0.00000799950172076933
1761129473172858000,6.640858154296875,0.0064782561033964155,-0.003286896733159665,-0.0005976696364494273
1761129473192704000,6.6607041015625,0.01141629702746868,-0.00849009596601827,-0.007720128798607038
1761129473212548900,6.680548828125,-0.017912088787555694,0.003400115883245598,-0.006858059476019115
1761129473232395000,6.70039501953125,-0.0007037643551826477,0.003042568866559304,-0.004726288736378773
1761129473252240000,6.720239990234375,-0.0011532616883516312,-0.008846094913012347,-0.000647021207754733
1761129473272086000,6.7400859375,0.002288403198122978,-0.004398566035798285,0.003399003350859857
1761129473291931000,6.759930908203125,0.008872457763552666,0.005872065804596058,-0.004174611953657586
1761129473311776800,6.77977685546875,0.0030360066950321195,-0.003972597991977818,-0.0004153627389488974
1761129473331622000,6.799621826171875,0.0009410802423954009,-0.0000678616214194335,0.0018135956104728393
1761129473351467000,6.819467041015625,-0.003398410266637802,0.00023964027503971009,0.006450369728516671
1761129473371313000,6.83931298828125,0.007375497204065323,0.003376607143494766,0.0008528117288311478
1761129473391157800,6.85915771484375,-0.0016027590215206145,0.0016779591326019725,-0.005653983199171489
1761129473411004200,6.879004150390625,0.009021510845422744,0.004284566001000348,-0.002810658665181836
1761129473430849000,6.89884912109375,-0.003249357184767723,-0.0006084165052161551,-0.007210011293913703
1761129473450695000,6.91869482421875,-0.0014531214177608488,-0.008662650937773287,0.007014873455947963
1761129473470540000,6.9385400390625,0.001689268261194229,-0.0034756151051376946,0.0024597314730606737
1761129473490386000,6.958385986328125,0.0015396306574344634,-0.005604841119598131,-0.008888841501128626
1761129473510231000,6.97823095703125,-0.0013034838140010834,0.0027926241099252365,0.005886900330835487
1761129473530076000,6.998075927734375,0.00722527507841587,-0.007612831357587129,0.0056654236168600615
1761129473549922000,7.017922119140625,0.011714403191208839,-0.001476015952869784,0.004877799207638599
1761129473569767000,7.037766845703125,-0.00010638298392295837,0.005280413204513024,0.00520533696183993
1761129473589613000,7.057613037109375,-0.012377251014113426,-0.007047760803753044,-0.005206593341409461
1761129473609458000,7.0774580078125,0.019496143108606336,-0.0029795112844207324,0.04229346035418566
1761129473629303800,7.0973037109375,-0.06489888089001178,0.023070553829544222,-0.03716118691609008
1761129473649149000,7.11714892578125,0.0512169770181179,-0.002529468245268799,-0.00891179882667493
1761129473668994000,7.136994140625,0.007225859600305556,-0.02566048355777748,-0.0015015859314327826
1761129473688840000,7.15683984375,0.04433423176705837,-0.02229018057419453,0.027516970745194703
1761129473708684800,7.176684814453125,0.00348258141875267,0.06776325734518468,-0.04661744276683311
1761129473728531000,7.196531005859375,-0.018363924208283422,-0.04522426680880599,0.03154588148469338
1761129473748375800,7.216375732421875,0.002734393399953842,-0.0036243371101561932,-0.006347299796398147
1761129473768222000,7.236221923828125,-0.02300385896861553,0.014761116226634476,-0.0006402969227347056
1761129473788066800,7.25606689453125,0.018146482065320015,-0.007865751239308156,-0.003866789825967862
1761129473807913000,7.275912841796875,0.011562427499890327,0.002561968575650826,-0.01722822557608597
1761129473827758000,7.295758056640625,-0.0031026421904563903,-0.00892417653434677,0.007866781002481001
1761129473847603200,7.315603271484375,0.006174889242649078,0.0499101596027147,-0.019029881870304233
1761129473867449000,7.335448974609375,-0.006394084951281547,-0.029711615262238773,0.008771610042094835
1761129473887293700,7.355293701171875,0.00901858823597431,-0.019934479726944117,-0.009852009136101696
1761129473907140000,7.37514013671875,-0.008040098592638968,0.008198200347356032,-0.016309206468448974
1761129473926985000,7.39498486328125,0.014105682241916656,0.005820237435947638,-0.0013858671511174179
1761129473946831000,7.4148310546875,-0.002503507253527641,0.010904477331100497,0.0077574320266256104
1761129473966676000,7.434676025390625,-0.004000467813014984,-0.010720501349610275,0.008152974107785848
1761129473986521900,7.45452197265625,0.006474164450168609,0.017132471300743055,-0.016673434387671295
1761129474006367000,7.474366943359375,-0.0019061258822679519,-0.01749098643180914,0.005554556254064664
1761129474026212000,7.494212158203125,0.007521043154597282,-0.025696486452920362,-0.009179228436827542
1761129474046058000,7.51405810546875,0.0009375731110572815,0.0056473673703614615,0.0039924860067811095
1761129474065902800,7.53390283203125,0.002732639834284782,0.012903147184895351,0.006373174023171304
1761129474085749000,7.5537490234375,-0.010884382107853889,0.011678055519482585,-0.0011211706374568166
1761129474105593900,7.57359375,0.0037806875824928283,-0.022859057370177467,-0.009030701082164886
1761129474125440000,7.59343994140625,0.0025830022305250167,0.005811579205456655,-0.02648093081190018
1761129474145284900,7.613284912109375,0.01066343283355236,-0.0173611129744444,-0.009364649740021559
1761129474165130800,7.633130859375,-0.0011579378634691238,-0.00019320503413910046,0.007317017615633085
1761129474184976000,7.652975830078125,-0.004749824875593185,0.009797048095450737,-0.00663169138697267
1761129474204821000,7.672821044921875,0.00003799392282962799,0.013784478330379352,-0.011091896511847152
1761129474224667000,7.6926669921875,-0.001757072800397873,-0.018528451137209776,-0.0038132330078253286
1761129474244511700,7.71251171875,0.008417699733376503,-0.014645661736978217,0.002143332171626389
1761129474264358100,7.732358154296875,-0.0029559271961450573,0.008429689281980972,-0.004046994385460857
1761129474284202800,7.75220263671875,0.0031792145580053326,-0.004629977338609751,-0.005626335998775903
1761129474304049000,7.772048828125,-0.0020581015735864636,-0.005808117739891167,0.007317005628367769
1761129474323894000,7.79189404296875,0.013353987091779708,0.0013980051134829408,0.0049661122453311685
1761129474343740000,7.811739990234375,0.0010837035834789276,-0.006935107909247744,-0.0017330594538594595
1761129474363585000,7.8315849609375,-0.0014595511585474012,-0.00337930142408004,-0.007237730417901184
1761129474383430000,7.851429931640625,0.005123918884992599,-0.015481712985609191,-0.009322524206413073
1761129474403276000,7.871276123046875,-0.004902385088801383,0.0024263024150277487,-0.016040335532347672
1761129474423121000,7.891120849609375,0.005272971966862678,0.00034897555116331205,-0.0026064818583457963
1761129474442967000,7.910967041015625,0.0018313070803880691,-0.006095613461360335,0.001222279795462964
1761129474462812000,7.93081201171875,0.0018313070803880691,-0.010715078539110254,-0.0014142039046797434
1761129474482657800,7.95065771484375,0.0009334814578294754,-0.007804798849287908,-0.006740849137405166
1761129474502503000,7.9705029296875,-0.008344049975275993,-0.006719471847591921,-0.008857585563050815
1761129474522348000,7.99034814453125,-0.010589198553562164,-0.013541760182264261,0.00021257131749007383
1761129474542194000,8.01019384765625,-0.0035562311768531796,0.006352903557522222,-0.005587406498429481
1761129474562038800,8.030038818359374,-0.006399930170178413,0.0013026412804960272,0.0019903792327735574
1761129474581885000,8.049885009765624,0.010359481450915337,-0.009979464590805582,-0.0069757418845576465
1761129474601729800,8.069729736328124,-0.00684884298145771,-0.015514779571571852,-0.005857698781703948
1761129474621576000,8.089575927734375,-0.007746668604016304,-0.002654918972554151,-0.0008544311512931016
1761129474641420800,8.1094208984375,-0.00011515081226825714,-0.00013580772451823577,0.00029692170776252167
1761129474661267000,8.129266845703125,-0.0014624737679958342,-0.002150695777463261,0.011157906386186368
1761129474681111800,8.14911181640625,0.008861936369538307,-0.005279383441340178,-0.003718014163666521
1761129474700957000,8.16895703125,-0.011637830823659896,-0.003142526676272973,-0.0009585005930101033
1761129474720803000,8.188802978515625,-0.0017617489755153656,-0.004394830575597006,0.0011566529427916976
1761129474740648000,8.20864794921875,-0.0008639233529567718,-0.0033450338282971642,0.005552496156896814
1761129474760494000,8.228494140625,-0.007896890729665755,-0.004463662594684865,-0.005044859445301699
1761129474780339000,8.2483388671875,0.004074117571115494,0.008159373024175874,0.0004735786075441865
1761129474800185000,8.26818505859375,-0.0026589900761842724,-0.0035299916238989678,0.003466950024780817
1761129474820030000,8.288030029296875,-0.003257540491223335,-0.00480300951768877,-0.009134168877327466
1761129474839875000,8.307875,0.0003343465209007263,-0.01429316992132226,-0.004301409821235574
1761129474859721000,8.327720947265625,-0.005501520025730133,-0.00003169661278370768,0.005412784008818562
1761129474879565600,8.347565673828125,0.0006336217284202575,0.003635767253045924,0.006481150742559111
1761129474899411500,8.367411376953125,0.009162380620837211,0.0023756659230450166,-0.001321794647182105
1761129474919256600,8.387256591796875,-0.005801379755139351,-0.005695412329747341,0.00180664927563339
1761129474939102500,8.4071025390625,-0.0017605799317359924,-0.0014836558366310782,0.002294879746326478
1761129474958947300,8.426947265625,-0.008045943811535835,-0.007408447342307772,0.0010114232277352129
1761129474978793500,8.44679345703125,0.003326514074206352,-0.005451034230797086,-0.006364449577310006
1761129474998638300,8.466638427734376,-0.004603694403171539,-0.0075813174078939475,0.0003389370726945344
1761129475018483500,8.4864833984375,-0.002808043158054352,0.0028660364060080607,0.004493903040143778
1761129475038329300,8.506329345703126,0.0025789105772972107,0.0034594836709555235,0.0041598202390799996
1761129475058174500,8.526174560546876,0.0072176762938499445,-0.010547877879196312,0.007627917045576032
1761129475078020400,8.546020263671876,-0.00011515081226825714,0.00033428258881904185,-0.005445309455375536
1761129475097865200,8.565865234375,-0.006998480585217476,-0.0016843706070794723,-0.008238369102607248
1761129475117711600,8.585711669921874,-0.004305003717541694,0.00869093403405277,0.010044510917342268
1761129475137556200,8.60555615234375,0.00452303038239479,0.008677818824152927,0.0005765726203157101
1761129475157402600,8.625402587890624,-0.004903554132580757,0.0035113554220879447,0.011001373250759207
1761129475177247500,8.64524755859375,0.006169628545641899,-0.0060639990469673645,-0.011178341819439082
1761129475197092600,8.665092529296874,0.00407470209300518,-0.003911714100616518,-0.007620447266817791
1761129475216938500,8.6849384765625,0.005571078130602836,-0.005257256091211457,0.002385679856161005
1761129475236783600,8.70478369140625,-0.0032569559693336487,-0.006297965349757578,0.0030202811154042136
1761129475256629500,8.72462939453125,0.008264554998278618,0.004188814008946064,0.01126052080222289
1761129475276474400,8.744474365234375,-0.00026478841602802275,0.0037684537220047786,-0.012430418531544273
1761129475296320500,8.764320556640625,-0.004305003717541694,-0.0017609726573806256,-0.011961315740540157
1761129475316165400,8.784165283203125,0.0034761516779661175,-0.0101007277667406,0.002983521880902117
1761129475336011500,8.804011474609375,-0.002210077264904976,-0.006440262180566788,-0.0028403528338356407
1761129475355856400,8.8238564453125,-0.006250292566418647,-0.010196322211879305,0.0027640053702169096
1761129475375701500,8.843701416015625,-0.004604278925061225,0.008801347022410482,-0.0059141490973648615
1761129475395547400,8.86354736328125,-0.0059510173588991164,-0.00403190413089469,-0.005783054080582223
1761129475415392500,8.883392578125,-0.006399930170178413,-0.014079127595131285,0.003621381393022602
1761129475435238400,8.90323828125,0.0016805004328489302,-0.002063611149054486,0.002663153653003974
1761129475455083300,8.923083251953125,0.0018307225584983824,-0.003472256387560628,0.0015778517674829345
1761129475474929400,8.942929443359375,0.0013818097472190856,-0.0047792975652497256,-0.0010373071584850548
1761129475494774300,8.962774169921875,0.00736731389760971,-0.0035532332188799045,-0.0014728707227797712
1761129475514619400,8.982619384765625,-0.004155366113781929,-0.004911609574873,-0.004599097001511837
1761129475534465300,9.00246533203125,-0.004604278925061225,-0.005850169066619127,-0.0017712577310216146
1761129475554310400,9.022310302734375,-0.0008633388310670852,-0.006855763629300054,0.001358003038301831
1761129475574156500,9.042156494140626,0.0070674541682004925,-0.0011512318447581492,-0.006679159245156915
1761129475594001400,9.06200146484375,-0.003855506384372711,-0.006515654087893199,-0.004525715529825538
1761129475613847600,9.08184765625,0.009760931035876273,-0.002978353657084517,0.0018835943900514392
1761129475633692400,9.1016923828125,-0.006250292566418647,-0.006476105245505459,-0.00500068523096852
1761129475653538600,9.12153857421875,-0.00026420389413833614,-0.014688747393456287,-0.0026350121206196488
1761129475673383400,9.141383544921876,-0.004305003717541694,0.001505292279704008,-0.010451220563199604
1761129475693228500,9.161228515625,0.008114332872629165,-0.006010458211845252,-0.005507796786178369
1761129475713074400,9.181074462890624,-0.002360299390554428,-0.0012663963567581958,0.005989601511840009
1761129475732919600,9.20091943359375,0.006917816564440727,0.00004020642951363697,-0.0018386215955193618
1761129475752765400,9.220765380859374,-0.016276012018322943,-0.0033085263263667,-0.015593727700941962
1761129475772610300,9.2406103515625,-0.0028086276799440383,-0.008773682697350158,0.0053257342005614185
1761129475792456400,9.26045654296875,-0.001312251642346382,-0.006316560452373232,-0.004875712852651486
1761129475812301300,9.28030126953125,0.0003337619990110397,-0.0010991203483194112,-0.0037576902993954717
1761129475832146400,9.300146484375,0.01604571039378643,0.0022209571352344937,0.0009383117549296002
1761129475851992300,9.319992431640625,0.0012315876215696334,0.00195449963521678,-0.004809998664190061
1761129475871838000,9.339837890625,-0.004903554132580757,-0.0032665046823909505,-0.008949519896513084
1761129475891683800,9.359683837890625,0.014249474626779555,-0.0072557661148020995,-0.013938148221862501
1761129475911528700,9.37952880859375,-0.005502689069509506,-0.005713564474368467,-0.0019382586031802928
1761129475931375000,9.399375,0.00407470209300518,-0.0040653428929043,-0.004337980113603407
1761129475951220000,9.419219970703125,0.004673252508044242,0.004049012812611181,-0.005537450997281121
1761129475971066000,9.439066162109375,0.009162965142726898,-0.009428936302266083,-0.0055789429182943415
1761129475990911000,9.458910888671875,0.0070674541682004925,-0.011252165107475592,-0.010605379078449913
1761129476010756000,9.478756103515625,-0.007447977918386459,-0.002536710836808197,0.0009864366294175851
1761129476030602000,9.49860205078125,0.0034749826341867445,-0.008376842566602863,-0.0008225946870807092
1761129476050447000,9.518447021484375,0.0015291092634201048,-0.0019472890097182243,-0.004888968484802171
1761129476070293000,9.53829296875,-0.0040080665975809095,-0.004367940285382792,-0.00849932501866715
1761129476090137900,9.558137939453125,0.008261047866940497,-0.009056936068541835,-0.004820797477773158
1761129476109984000,9.57798388671875,-0.0014653963774442671,-0.010882151334860828,-0.0026677110971126236
1761129476129828900,9.597828857421876,0.0010784428864717482,-0.003619368674093857,0.009364159403787925
1761129476149674000,9.617674072265626,-0.005056114345788955,-0.0030970960823702622,0.004669119755621068
1761129476169519900,9.637519775390626,0.007213584640622139,-0.0030210077720112167,0.0007460748351702932
1761129476189365000,9.657364990234376,-0.0061047466158866874,-0.0121611377451336,0.0013777146690583321
1761129476209211000,9.6772109375,-0.0028121348112821578,-0.002441671230806969,-0.006079093868110794
1761129476229056000,9.697055908203126,-0.0059545244902372355,-0.00019529652652563526,-0.0033539089712081474
