time,seconds_elapsed,z,y,x
1761132565466439700,0.093439697265625,2.8444252014160156,-0.25690484046936035,-1.8268063068389893
1761132565496439800,0.123439697265625,2.864767074584961,-0.3444547653198242,-1.7012827396392822
1761132565506439700,0.133439697265625,2.871851921081543,-0.3726389408111572,-1.6598763465881348
1761132565516439800,0.143439697265625,2.8888940811157227,-0.43880152702331543,-1.6450905799865723
1761132565526439700,0.153439697265625,2.90360164642334,-0.4944186210632324,-1.6366615295410156
1761132565536439800,0.163439697265625,2.9162979125976562,-0.5413661003112793,-1.628753662109375
1761132565546440000,0.17343994140625,2.9277477264404297,-0.5827810764312744,-1.6160439252853394
1761132565556439800,0.183439697265625,2.938492774963379,-0.6207435131072998,-1.5967549085617065
1761132565566440000,0.19343994140625,2.948763847351074,-0.6560933589935303,-1.5712988376617432
1761132565576437200,0.203437255859375,2.958672523498535,-0.6892328262329102,-1.5413957834243774
1761132565586437400,0.213437255859375,2.9684200286865234,-0.7209060192108154,-1.508838415145874
1761132565596437200,0.223437255859375,2.978156089782715,-0.7517728805541992,-1.4764530658721924
1761132565606437400,0.233437255859375,2.9879541397094727,-0.7826097011566162,-1.4502196311950684
1761132565616437200,0.243437255859375,2.9980573654174805,-0.8144104480743408,-1.4303706884384155
1761132565626437400,0.253437255859375,3.0089502334594727,-0.8484859466552734,-1.4130985736846924
1761132565636437200,0.263437255859375,3.020627975463867,-0.8846874237060547,-1.397321343421936
1761132565646437400,0.273437255859375,3.0326919555664062,-0.9216930866241455,-1.3831899166107178
1761132565656437500,0.2834375,3.044133186340332,-0.9562735557556152,-1.3698596954345703
1761132565666437400,0.293437255859375,3.0541038513183594,-0.9858953952789307,-1.3572561740875244
1761132565676437500,0.3034375,3.0631370544433594,-1.0114867687225342,-1.337450385093689
1761132565686437400,0.313437255859375,3.072066307067871,-1.0347728729248047,-1.3041157722473145
1761132565696437500,0.3234375,-1.1953115463256836,0.8096332550048828,-0.5861493945121765
1761132565706437400,0.333437255859375,-0.9758920669555664,0.8856475353240967,-0.725303053855896
1761132565716437500,0.3434375,-0.9622097015380859,0.8030202388763428,-0.5566282272338867
1761132565726437400,0.353437255859375,-1.000828742980957,0.7275395393371582,-0.2559783458709717
1761132565736437000,0.36343701171875,-0.9122753143310547,0.7501652240753174,0.02553689479827881
1761132565746437000,0.37343701171875,-0.6524524688720703,0.704456090927124,0.27865758538246155
1761132565756437000,0.38343701171875,-0.2567014694213867,0.4972093105316162,0.4878028631210327
1761132565766437000,0.39343701171875,-0.25493621826171875,0.4877166748046875,0.4602949619293213
1761132565776436200,0.403436279296875,0.5766839981079102,0.3120460510253906,0.05367949604988098
1761132565786436400,0.413436279296875,0.7286300659179688,0.41608309745788574,-0.6187613010406494
1761132565796436200,0.423436279296875,0.6794624328613281,0.5728392601013184,-1.2317984104156494
1761132565806436400,0.433436279296875,0.34010887145996094,0.7637975215911865,-1.5628196001052856
1761132565816436200,0.443436279296875,0.26651859283447266,0.9039099216461182,-1.6532468795776367
1761132565826436400,0.453436279296875,0.5574655532836914,1.0174353122711182,-1.510205864906311
1761132565836436200,0.463436279296875,1.1020231246948242,1.0333738327026367,-1.5006904602050781
1761132565846436400,0.473436279296875,2.046839714050293,0.7802431583404541,-1.518298625946045
1761132565856436200,0.483436279296875,3.093965530395508,0.3931081295013428,-1.4935531616210938
1761132565866436400,0.493436279296875,4.051159858703613,0.0002651214599609375,-1.5412094593048096
1761132565876437200,0.503437255859375,4.820253372192383,-0.22515058517456055,-1.6425855159759521
1761132565886437000,0.51343701171875,5.071233749389648,-0.3289484977722168,-1.871403694152832
1761132565896437200,0.523437255859375,4.898578643798828,-0.22052001953125,-2.0573861598968506
1761132565906437000,0.53343701171875,4.37049674987793,0.049750566482543945,-2.1506309509277344
1761132565916437200,0.543437255859375,3.8567419052124023,0.3027942180633545,-2.0924830436706543
1761132565926437000,0.55343701171875,3.6678380966186523,0.4304158687591553,-1.914414644241333
1761132565936437200,0.563437255859375,3.697476387023926,0.33886122703552246,-1.7326183319091797
1761132565946437000,0.57343701171875,3.9316892623901367,0.07361030578613281,-1.39687979221344
1761132565956437200,0.583437255859375,4.1980791091918945,-0.22903752326965332,-0.8245079517364502
1761132565966437000,0.59343701171875,4.222984313964844,-0.41759181022644043,-0.29382771253585815
1761132565976436200,0.603436279296875,3.968233108520508,-0.6531729698181152,0.32367077469825745
1761132565986436400,0.613436279296875,3.3139724731445312,-0.7847385406494141,1.0478332042694092
1761132565996436200,0.623436279296875,2.4769153594970703,-0.8360886573791504,1.6363142728805542
1761132566006436400,0.633436279296875,1.528914451599121,-0.8571856021881104,1.8644355535507202
1761132566016436200,0.643436279296875,0.4334259033203125,-0.8657863140106201,1.9805525541305542
1761132566026436400,0.653436279296875,-0.7600812911987305,-0.8291106224060059,2.118535280227661
1761132566036436500,0.6634365234375,-1.975954532623291,-0.766303539276123,2.1588077545166016
1761132566046436600,0.6734365234375,-3.248960018157959,-0.6687626838684082,1.9178318977355957
1761132566056436500,0.6834365234375,-4.098875999450684,-0.709014892578125,1.6672687530517578
1761132566066436600,0.6934365234375,-4.690637111663818,-0.7585916519165039,1.331271767616272
1761132566076437200,0.703437255859375,-5.165462970733643,-0.8300235271453857,0.9599456787109375
1761132566086437400,0.713437255859375,-5.552515506744385,-0.9792177677154541,0.7260721325874329
1761132566096437200,0.723437255859375,-5.849885940551758,-1.1076116561889648,0.7162582278251648
1761132566106437400,0.733437255859375,-6.141502380371094,-1.172614336013794,0.768833577632904
1761132566116437200,0.743437255859375,-6.341520309448242,-1.183713674545288,0.6806631088256836
1761132566126437400,0.753437255859375,-6.515244483947754,-1.2118065357208252,0.583726167678833
1761132566136436500,0.7634365234375,-6.514716148376465,-1.1796226501464844,0.46011418104171753
1761132566146436400,0.773436279296875,-6.06772518157959,-1.083315372467041,0.46182718873023987
1761132566156436500,0.7834365234375,-5.53669548034668,-1.0499012470245361,0.6011970043182373
1761132566166436400,0.793436279296875,-5.069642066955566,-1.2547903060913086,0.7343131899833679
1761132566176435700,0.803435791015625,-4.707451820373535,-1.3463399410247803,0.8712337017059326
1761132566186435600,0.813435546875,-4.340665340423584,-1.2829289436340332,0.8022156357765198
1761132566196435500,0.823435546875,-3.9828310012817383,-1.0485293865203857,0.6893093585968018
1761132566206435600,0.833435546875,-3.543570041656494,-0.874950647354126,0.6103122234344482
1761132566216435500,0.843435546875,-2.946073055267334,-0.7737174034118652,0.5290125012397766
1761132566226435600,0.853435546875,-2.123382091522217,-0.7159285545349121,0.25552091002464294
1761132566236435500,0.863435546875,-1.3432555198669434,-0.6641383171081543,-0.031092405319213867
1761132566246435600,0.873435546875,-1.3708090782165527,-0.5895047187805176,-0.058643847703933716
1761132566256435500,0.883435546875,-0.040686607360839844,-0.4008972644805908,-0.5949006676673889
1761132566266435600,0.893435546875,0.39481639862060547,-0.23875141143798828,-0.6687204837799072
1761132566276436500,0.9034365234375,0.8360528945922852,-0.07734799385070801,-0.6787082552909851
1761132566286436400,0.913436279296875,1.3468046188354492,0.0993046760559082,-0.5440606474876404
1761132566296436500,0.9234365234375,2.165708541870117,0.2563645839691162,-0.3165108263492584
1761132566306436400,0.933436279296875,3.000790596008301,0.3473670482635498,-0.07256770133972168
1761132566316436500,0.9434365234375,3.6468734741210938,0.3926243782043457,0.09289133548736572
1761132566326436400,0.953436279296875,3.965238571166992,0.5660064220428467,-0.01871323585510254
1761132566336436500,0.9634365234375,3.924715995788574,0.8719844818115234,-0.27469009160995483
1761132566346436600,0.9734365234375,3.651350975036621,1.1106820106506348,-0.4811782240867615
1761132566356436500,0.9834365234375,3.419194221496582,1.326186180114746,-0.6125744581222534
1761132566366436600,0.9934365234375,3.5504684448242188,1.5460951328277588,-0.7807963490486145
1761132566376435700,1.003435791015625,4.023517608642578,1.7078893184661865,-1.032118558883667
1761132566386435600,1.013435546875,4.7604169845581055,1.707078218460083,-1.2635645866394043
1761132566396435700,1.023435791015625,5.689313888549805,1.48236083984375,-1.3513846397399902
1761132566406435600,1.033435546875,6.524468421936035,1.2431292533874512,-1.2797191143035889
1761132566416435700,1.043435791015625,7.26780891418457,0.9610720872879028,-1.070892333984375
1761132566426435600,1.053435546875,7.242889404296875,1.099841833114624,-1.0487464666366577
1761132566436436500,1.0634365234375,8.03765869140625,0.474837064743042,-1.1080961227416992
1761132566446436600,1.0734365234375,7.957184791564941,0.30973124504089355,-1.138616681098938
1761132566456436500,1.0834365234375,7.286133766174316,0.149405837059021,-0.9573367834091187
1761132566466436400,1.093436279296875,6.014556884765625,0.11140298843383789,-0.6340172290802002
1761132566476437200,1.103437255859375,4.407611846923828,0.3010371923446655,-0.20151352882385254
1761132566486437400,1.113437255859375,2.927898406982422,0.6346358060836792,0.29195210337638855
1761132566496437200,1.123437255859375,1.8620586395263672,0.9582260847091675,0.7924076914787292
1761132566506437400,1.133437255859375,1.0079879760742188,1.1198246479034424,1.3063417673110962
1761132566516437200,1.143437255859375,0.5725088119506836,0.9653686285018921,1.9477880001068115
1761132566526437400,1.153437255859375,0.2314929962158203,0.7940659523010254,2.5541322231292725
1761132566536437200,1.163437255859375,-0.10117244720458984,0.6334574222564697,2.945871353149414
1761132566546437400,1.173437255859375,-0.5494499206542969,0.47461605072021484,3.0440971851348877
1761132566556437200,1.183437255859375,-1.0745916366577148,0.2952289581298828,2.9095029830932617
1761132566566437400,1.193437255859375,-1.8489570617675781,0.04798388481140137,2.4979822635650635
1761132566576436500,1.2034365234375,-2.616921901702881,-0.1978001594543457,1.9710018634796143
1761132566586436600,1.2134365234375,-3.353074073791504,-0.4125208854675293,1.4487128257751465
1761132566596436500,1.2234365234375,-3.885939121246338,-0.61244797706604,0.9816403388977051
1761132566606436600,1.2334365234375,-4.326174259185791,-0.7248342037200928,0.6453996300697327
1761132566616436500,1.2434365234375,-4.636379718780518,-0.7713260650634766,0.4165421426296234
1761132566626436600,1.2534365234375,-4.775734901428223,-0.7025837898254395,0.23514394462108612
1761132566636436500,1.2634365234375,-4.7711920738220215,-0.6929798126220703,0.20378655195236206
1761132566646436400,1.273436279296875,-4.70908784866333,-0.6926603317260742,0.25059980154037476
1761132566656436500,1.2834365234375,-4.560627460479736,-0.7075536251068115,0.28917306661605835
1761132566666436600,1.2934365234375,-4.2369384765625,-0.6833322048187256,0.35449522733688354
1761132566676437200,1.303437255859375,-3.731360912322998,-0.6712493896484375,0.4447648227214813
1761132566686437400,1.313437255859375,-3.2466182708740234,-0.7164270877838135,0.5470433235168457
1761132566696437500,1.3234375,-3.0210018157958984,-0.8438301086425781,0.5353835821151733
1761132566706437400,1.333437255859375,-2.935914993286133,-0.9036581516265869,0.4318637251853943
1761132566716437200,1.343437255859375,-2.9404006004333496,-0.8855156898498535,0.24044080078601837
1761132566726437400,1.353437255859375,-2.99918270111084,-0.8978555202484131,0.05352327227592468
1761132566736437500,1.3634375,-2.979282855987549,-0.9426364898681641,-0.11331146955490112
1761132566746437400,1.373437255859375,-2.837772846221924,-0.9798474311828613,-0.14675059914588928
1761132566756437500,1.3834375,-2.522378921508789,-1.025277853012085,-0.16554975509643555
1761132566766437400,1.393437255859375,-2.189304828643799,-0.9840214252471924,-0.1408960223197937
1761132566776436500,1.4034365234375,-1.816798210144043,-0.8732380867004395,-0.15037986636161804
1761132566786436600,1.4134365234375,-1.8206701278686523,-0.8645002841949463,-0.17858107388019562
1761132566796436500,1.4234365234375,-0.8931846618652344,-0.6570782661437988,-0.26526379585266113
1761132566806436600,1.4334365234375,-0.5562686920166016,-0.6311588287353516,-0.4842943549156189
1761132566816436500,1.4434365234375,-0.30115795135498047,-0.6270411014556885,-0.8374974727630615
1761132566826436600,1.4534365234375,-0.2584953308105469,-0.5685539245605469,-1.2849993705749512
1761132566836436500,1.4634365234375,-0.34586143493652344,-0.38675618171691895,-1.5869383811950684
1761132566846436600,1.4734365234375,-0.5051975250244141,-0.13358497619628906,-1.760407567024231
1761132566856436500,1.4834365234375,-0.6750659942626953,0.19040775299072266,-1.8214197158813477
1761132566866436600,1.4934365234375,-0.7058181762695312,0.3506042957305908,-1.7728509902954102
1761132566879472400,1.506472412109375,-0.5964212417602539,0.4121081829071045,-1.5313295125961304
1761132566889472500,1.516472412109375,-0.6019039154052734,0.4280836582183838,-1.532294750213623
1761132566899472400,1.526472412109375,-0.0022840499877929688,0.40068531036376953,-0.9588048458099365
1761132566909472500,1.536472412109375,0.3977079391479492,0.6023292541503906,-0.9767675399780273
1761132566919472400,1.546472412109375,0.8857936859130859,0.9136006832122803,-1.1293429136276245
1761132566929472500,1.556472412109375,1.228764533996582,0.9655814170837402,-1.1495640277862549
1761132566939472600,1.56647265625,1.2120599746704102,1.017181634902954,-1.1579984426498413
1761132566949472800,1.57647265625,2.0537633895874023,1.0340900421142578,-1.1940793991088867
1761132566959472600,1.58647265625,2.0339393615722656,1.1002464294433594,-1.1778277158737183
1761132566969472800,1.59647265625,3.0727319717407227,1.1796257495880127,-1.3651540279388428
1761132566979472100,1.60647216796875,3.668102264404297,1.0566554069519043,-1.305976390838623
1761132566989472300,1.61647216796875,4.192683219909668,0.9697690010070801,-1.2780331373214722
1761132566999472000,1.62647216796875,4.437200546264648,0.9085638523101807,-1.344565510749817
1761132567009472000,1.636471923828125,4.3965606689453125,0.9370219707489014,-1.3789032697677612
1761132567019472100,1.64647216796875,4.088753700256348,1.1459815502166748,-1.443889856338501
1761132567029472000,1.656471923828125,3.4897565841674805,1.4130089282989502,-1.5293697118759155
1761132567039472000,1.66647216796875,2.8834285736083984,1.669924259185791,-1.413775086402893
1761132567049472000,1.676471923828125,2.4401979446411133,1.8567726612091064,-1.222843885421753
1761132567059472100,1.68647216796875,2.337038040161133,2.009148120880127,-1.0032639503479004
1761132567069472000,1.696471923828125,2.566875457763672,1.9314167499542236,-0.6488620042800903
1761132567079473000,1.706472900390625,3.0854082107543945,1.6254816055297852,-0.1016017496585846
1761132567089473000,1.71647314453125,3.6558666229248047,1.127345323562622,0.5088526010513306
1761132567099473000,1.726472900390625,3.650254249572754,1.1460788249969482,0.4315943121910095
1761132567109473000,1.73647314453125,4.432768821716309,0.5504441261291504,1.298976182937622
1761132567119473000,1.746472900390625,4.640263557434082,0.2727968692779541,1.43416166305542
1761132567129473000,1.75647314453125,4.369751930236816,-0.11452412605285645,1.4420599937438965
1761132567139473000,1.766472900390625,3.6201391220092773,-0.4341285228729248,1.2408366203308105
1761132567149473000,1.77647314453125,2.342435836791992,-0.6058095693588257,0.9417392015457153
1761132567159473000,1.786472900390625,1.0715818405151367,-0.689599871635437,0.6183459162712097
1761132567169473000,1.79647314453125,-0.31854724884033203,-0.7206592559814453,0.45639127492904663
1761132567179473000,1.806472900390625,-1.6410818099975586,-0.7236361503601074,0.3967590630054474
1761132567189473000,1.81647314453125,-2.772439479827881,-0.7301270961761475,0.47095543146133423
1761132567199473000,1.826472900390625,-3.723585605621338,-0.7743790149688721,0.641215443611145
1761132567209473000,1.83647314453125,-4.6729559898376465,-0.8340599536895752,0.912512481212616
1761132567219473000,1.846472900390625,-5.313234329223633,-0.9317574501037598,1.0350518226623535
1761132567229473000,1.85647314453125,-5.73460578918457,-0.9635086059570312,1.097267746925354
1761132567239472600,1.86647265625,-6.029229164123535,-1.0169000625610352,1.0434316396713257
1761132567249472500,1.876472412109375,-6.151188373565674,-1.1460387706756592,1.0221707820892334
1761132567259472600,1.88647265625,-6.163547515869141,-1.3430707454681396,1.0208005905151367
1761132567269472500,1.896472412109375,-6.181972980499268,-1.5523693561553955,0.8450835943222046
1761132567279473200,1.90647314453125,-6.175640106201172,-1.6999504566192627,0.6339898109436035
1761132567289473300,1.916473388671875,-5.976685523986816,-1.7105281352996826,0.4779825806617737
1761132567299473200,1.92647314453125,-5.542145252227783,-1.6922070980072021,0.3832530379295349
1761132567309473300,1.936473388671875,-5.186361312866211,-1.7566227912902832,0.35309329628944397
1761132567319473200,1.94647314453125,-4.924835681915283,-1.887394905090332,0.2279820293188095
1761132567329473300,1.956473388671875,-4.774542808532715,-1.880687952041626,0.13601671159267426
1761132567339473200,1.96647314453125,-4.605137348175049,-1.695648193359375,-0.058146774768829346
1761132567349473300,1.976473388671875,-4.383341312408447,-1.5043063163757324,-0.4130138158798218
1761132567359473200,1.98647314453125,-4.090766429901123,-1.3865439891815186,-0.7963407635688782
1761132567369473300,1.996473388671875,-3.7728185653686523,-1.2893154621124268,-1.0560364723205566
1761132567379472400,2.006472412109375,-3.3224129676818848,-1.1023402214050293,-1.2189112901687622
1761132567399472400,2.026472412109375,-2.1004605293273926,-0.6913676261901855,-1.3406139612197876
1761132567409472300,2.03647216796875,-1.5154271125793457,-0.5430712699890137,-1.3751014471054077
1761132567419472400,2.046472412109375,-0.7042884826660156,-0.3620421886444092,-1.2218654155731201
1761132567429472300,2.05647216796875,0.4108905792236328,-0.24486851692199707,-0.9727860689163208
1761132567439472400,2.066472412109375,1.8805255889892578,-0.27501916885375977,-0.6382480263710022
1761132567449472300,2.07647216796875,3.1425046920776367,-0.40708279609680176,-0.4418976902961731
1761132567459472400,2.086472412109375,4.345876693725586,-0.5434653759002686,-0.5840953588485718
1761132567469472300,2.09647216796875,5.282492637634277,-0.6940650939941406,-0.9492655992507935
1761132567479473200,2.10647314453125,5.978245735168457,-0.7335786819458008,-1.467326283454895
1761132567499473200,2.12647314453125,6.515628814697266,-0.6097507476806641,-2.5533852577209473
1761132567509473000,2.13647314453125,6.352278709411621,-0.559319257736206,-2.9905762672424316
1761132567519473200,2.14647314453125,6.039586067199707,-0.4870396852493286,-3.112450122833252
1761132567529473000,2.15647314453125,5.730439186096191,-0.4800621271133423,-2.903984308242798
1761132567539473200,2.16647314453125,5.484189987182617,-0.4828230142593384,-2.5047595500946045
1761132567549473000,2.17647314453125,5.2522687911987305,-0.6067172288894653,-2.0186853408813477
1761132567559473200,2.18647314453125,4.950198173522949,-0.745019793510437,-1.5936594009399414
1761132567569473000,2.19647314453125,4.4565229415893555,-0.8264498710632324,-1.3793402910232544
1761132567579472400,2.206472412109375,3.8791608810424805,-0.8733905553817749,-1.3922163248062134
1761132567589472300,2.21647216796875,3.607110023498535,-0.8786941766738892,-1.772120475769043
1761132567599472400,2.226472412109375,3.689718246459961,-0.787367045879364,-2.559741258621216
1761132567609472300,2.23647216796875,4.084543228149414,-1.0010899305343628,-3.1832518577575684
1761132567619472400,2.246472412109375,4.456435203552246,-1.3327457904815674,-3.023902654647827
1761132567629472300,2.25647216796875,4.675258636474609,-1.4268741607666016,-2.4612669944763184
1761132567639472400,2.266472412109375,4.763201713562012,-1.1676850318908691,-1.5602232217788696
1761132567649472300,2.27647216796875,4.598821640014648,-0.7940472364425659,-0.3978259563446045
1761132567659472400,2.286472412109375,4.1086626052856445,-0.49304449558258057,0.5912405848503113
1761132567669472300,2.29647216796875,3.1739282608032227,-0.3331814408302307,1.4803438186645508
1761132567679473200,2.30647314453125,2.148919105529785,-0.15949875116348267,1.9722262620925903
1761132567689473300,2.316473388671875,1.0165185928344727,0.03978538513183594,2.1677117347717285
1761132567699473200,2.32647314453125,-0.16968154907226562,0.20606786012649536,2.2624056339263916
1761132567709473300,2.336473388671875,-1.2347030639648438,0.36347854137420654,2.2977006435394287
1761132567719473200,2.34647314453125,-2.205094814300537,0.4812525510787964,2.2567923069000244
1761132567729473300,2.356473388671875,-3.1341891288757324,0.6185030937194824,2.188770294189453
1761132567739473000,2.366472900390625,-3.8083672523498535,0.6477080583572388,2.1362428665161133
1761132567749472800,2.37647265625,-4.305174827575684,0.6644331216812134,2.1335983276367188
1761132567759473000,2.386472900390625,-4.655900955200195,0.7007137537002563,2.1478304862976074
1761132567769472800,2.39647265625,-4.897880554199219,0.8203849792480469,2.183065891265869
1761132567779472000,2.406471923828125,-5.0402045249938965,0.9181362390518188,2.295640707015991
1761132567789472000,2.416471923828125,-5.000416278839111,1.0423545837402344,2.381305694580078
1761132567799471900,2.426471923828125,-4.786986827850342,1.1222105026245117,2.435002088546753
1761132567809472000,2.436471923828125,-4.5074310302734375,1.0967950820922852,2.4126648902893066
1761132567819472000,2.446471923828125,-4.1621599197387695,0.9771171808242798,2.3699610233306885
1761132567829472000,2.456471923828125,-3.6526412963867188,0.8226501941680908,2.2018184661865234
1761132567839471900,2.466471923828125,-3.062265396118164,0.6534442901611328,2.015671491622925
1761132567849472000,2.476471923828125,-2.6588850021362305,0.43300938606262207,1.7931275367736816
1761132567859472000,2.486471923828125,-2.514288902282715,0.25165700912475586,1.5744729042053223
1761132567869472000,2.496471923828125,-2.347975730895996,0.20406699180603027,1.3029448986053467
1761132567879473000,2.506472900390625,-1.9079465866088867,0.38824987411499023,1.0048496723175049
1761132567889472800,2.51647265625,-1.3236937522888184,0.43247246742248535,0.8505045175552368
1761132567899473000,2.526472900390625,-0.7718610763549805,0.1766970157623291,0.9134738445281982
1761132567909472800,2.53647265625,-0.45994091033935547,-0.0006289482116699219,1.0220812559127808
1761132567919473000,2.546472900390625,-0.038249969482421875,0.0044634342193603516,1.0277032852172852
1761132567929472800,2.55647265625,0.5779838562011719,0.09138631820678711,0.9731347560882568
1761132567939473000,2.566472900390625,1.187607765197754,0.10239124298095703,0.7701910734176636
1761132567949472800,2.57647265625,1.528585433959961,-0.014455795288085938,0.6653783321380615
1761132567959473000,2.586472900390625,1.3645315170288086,-0.06248068809509277,0.5416216850280762
1761132567969472800,2.59647265625,0.8912420272827148,0.09710049629211426,0.3264005184173584
1761132567979472000,2.606471923828125,0.5460729598999023,0.45369458198547363,0.09373247623443604
1761132567989472000,2.616471923828125,0.3709878921508789,0.7068612575531006,0.0049239397048950195
1761132567999471900,2.626471923828125,0.3122100830078125,0.7215313911437988,0.0856698751449585
1761132568009472000,2.636471923828125,0.3522005081176758,0.6917376518249512,0.13161134719848633
1761132568019472000,2.646471923828125,0.49732398986816406,0.7892656326293945,0.05956864356994629
1761132568029472000,2.656471923828125,0.8255281448364258,0.8365890979766846,0.1277374029159546
1761132568039472400,2.666472412109375,1.2189273834228516,0.8684792518615723,0.3417106866836548
1761132568049472300,2.67647216796875,1.5217132568359375,0.8728852272033691,0.4529547691345215
1761132568059472400,2.686472412109375,1.6565732955932617,0.9489467144012451,0.4264819622039795
1761132568069472300,2.69647216796875,1.5124893188476562,1.1694538593292236,0.28725922107696533
1761132568079473200,2.70647314453125,1.099715232849121,1.3566741943359375,0.0926436185836792
1761132568089473300,2.716473388671875,0.5886306762695312,1.5586206912994385,0.002522706985473633
1761132568099473200,2.72647314453125,0.3237276077270508,1.7924647331237793,-0.006409645080566406
1761132568109473300,2.736473388671875,0.3245353698730469,1.7862677574157715,-0.01168966293334961
1761132568119473200,2.74647314453125,0.9610729217529297,2.0236573219299316,0.19774341583251953
1761132568129473300,2.756473388671875,1.9093923568725586,1.7461514472961426,0.1713346242904663
1761132568139473200,2.76647314453125,2.7871150970458984,1.471019983291626,0.21102499961853027
1761132568149473300,2.776473388671875,3.570941925048828,1.241668701171875,0.0946418046951294
1761132568159473200,2.78647314453125,4.162442207336426,0.9587826728820801,-0.04986560344696045
1761132568169473300,2.796473388671875,4.460420608520508,0.6855413913726807,-0.19120371341705322
1761132568179472400,2.806472412109375,4.202874183654785,0.48583388328552246,-0.46171140670776367
1761132568189472500,2.816472412109375,3.361086845397949,0.6562380790710449,-0.8391952514648438
1761132568199472400,2.826472412109375,2.3682661056518555,0.9560081958770752,-0.9666805267333984
1761132568209472300,2.83647216796875,1.324660301208496,1.14028000831604,-0.8735278844833374
1761132568219472400,2.846472412109375,0.47577953338623047,1.2409892082214355,-0.5935438871383667
1761132568229472300,2.85647216796875,-0.03815460205078125,1.3796765804290771,-0.30290138721466064
1761132568239472400,2.866472412109375,-0.2254323959350586,1.368835210800171,0.08426618576049805
1761132568249472300,2.87647216796875,-0.0710000991821289,1.1075372695922852,0.6983093023300171
1761132568259472400,2.886472412109375,0.40574073791503906,0.873986005783081,1.1104168891906738
1761132568269472300,2.89647216796875,1.1978998184204102,0.6687967777252197,1.1903371810913086
1761132568279473200,2.90647314453125,1.9805965423583984,0.36055707931518555,0.9985631108283997
1761132568289473300,2.916473388671875,2.4950456619262695,-0.1003270149230957,0.8153627514839172
1761132568299472600,2.92647265625,2.595749855041504,-0.777724027633667,0.6771639585494995
1761132568309472800,2.93647265625,2.2315540313720703,-1.2428483963012695,0.48433008790016174
1761132568319472600,2.94647265625,1.6393547058105469,-1.4631627798080444,0.14132457971572876
1761132568329472800,2.95647265625,0.8921775817871094,-1.483974814414978,-0.153567373752594
1761132568339472600,2.96647265625,0.019163131713867188,-1.4338881969451904,-0.24950164556503296
1761132568349472800,2.97647265625,-0.908177375793457,-1.4270377159118652,-0.15161150693893433
1761132568359472600,2.98647265625,-1.9246554374694824,-1.420552134513855,0.16752755641937256
1761132568369472800,2.99647265625,-2.838595390319824,-1.4429066181182861,0.4978167414665222
1761132568379472000,3.006471923828125,-3.6480040550231934,-1.4712330102920532,0.7331557869911194
1761132568389471700,3.0164716796875,-4.334997177124023,-1.4373812675476074,0.9610258340835571
1761132568399471900,3.026471923828125,-4.905873775482178,-1.4085934162139893,1.123302698135376
1761132568409471700,3.0364716796875,-5.360894203186035,-1.426870584487915,1.190252423286438
1761132568419472000,3.046471923828125,-5.685825824737549,-1.4850409030914307,1.2372959852218628
1761132568429471700,3.0564716796875,-5.731418132781982,-1.5564327239990234,1.2135493755340576
1761132568439471900,3.066471923828125,-5.685732841491699,-1.6705937385559082,1.1064012050628662
1761132568449471700,3.0764716796875,-5.642619609832764,-1.75838303565979,1.0370793342590332
1761132568459472000,3.086471923828125,-5.421995162963867,-1.8553028106689453,0.9182323217391968
1761132568469471700,3.0964716796875,-5.069428443908691,-1.9163661003112793,0.6725845336914062
1761132568479472600,3.10647265625,-4.824629306793213,-2.0300817489624023,0.43439802527427673
1761132568489472500,3.116472412109375,-4.606707572937012,-2.090137243270874,0.2563605010509491
1761132568499472600,3.12647265625,-4.210230827331543,-1.9782155752182007,0.052550703287124634
1761132568509472500,3.136472412109375,-3.8355917930603027,-1.8341996669769287,-0.18765872716903687
1761132568519472600,3.14647265625,-3.5765676498413086,-1.8050117492675781,-0.5284237861633301
1761132568529472500,3.156472412109375,-3.4099273681640625,-1.8050165176391602,-0.8200010657310486
1761132568539472400,3.166472412109375,-3.1338400840759277,-1.6614527702331543,-1.266284704208374
1761132568569472300,3.19647216796875,-2.3634419441223145,-1.1397781372070312,-1.829298973083496
1761132568579471400,3.206471435546875,-1.531364917755127,-0.9774501323699951,-1.8404332399368286
1761132568589471500,3.216471435546875,-0.8181133270263672,-0.7139430046081543,-1.7508853673934937
1761132568599471900,3.226471923828125,-0.1997833251953125,-0.3753933906555176,-1.4810950756072998
1761132568609471700,3.2364716796875,0.4537315368652344,-0.05861496925354004,-1.2145638465881348
1761132568619472000,3.246471923828125,1.220224380493164,0.18619203567504883,-1.0718793869018555
1761132568629471700,3.2564716796875,2.1463632583618164,0.3216402530670166,-1.0774352550506592
1761132568639471900,3.266471923828125,3.225858688354492,0.3009355068206787,-1.2673707008361816
1761132568649471700,3.2764716796875,4.497038841247559,0.29273152351379395,-1.6477118730545044
1761132568659472000,3.286471923828125,5.490903854370117,0.239304780960083,-2.1008429527282715
1761132568669471700,3.2964716796875,6.252730369567871,0.16529083251953125,-2.5273993015289307
1761132568679472600,3.30647265625,6.210079193115234,0.35318851470947266,-2.563638210296631
1761132568689472800,3.31647265625,7.113679885864258,0.42146599292755127,-3.189770460128784
1761132568699472600,3.32647265625,7.112807273864746,0.570787787437439,-3.3478808403015137
1761132568709472800,3.33647265625,6.925454139709473,0.5792144536972046,-3.24477481842041
1761132568719472600,3.34647265625,6.804858207702637,0.5830272436141968,-3.058668851852417
1761132568729472800,3.35647265625,6.86757755279541,0.6007659435272217,-2.896771192550659
1761132568739472000,3.366471923828125,6.935805320739746,0.5025755167007446,-2.7776246070861816
1761132568749472000,3.376471923828125,6.75316047668457,0.3777261972427368,-2.608628034591675
1761132568759471900,3.386471923828125,6.061131477355957,0.3818930387496948,-2.5675206184387207
1761132568769472000,3.396471923828125,6.027594566345215,0.4082643389701843,-2.5436251163482666
1761132568809471700,3.4364716796875,3.6448440551757812,0.7465678453445435,1.1641277074813843
1761132568819472000,3.446471923828125,3.5202484130859375,0.8208142518997192,1.8427495956420898
1761132568829471700,3.4564716796875,3.3379411697387695,0.720740795135498,2.1211225986480713
1761132568839471900,3.466471923828125,2.9673357009887695,0.5076603889465332,2.433377265930176
1761132568849472000,3.476471923828125,2.320100784301758,0.25457191467285156,2.621596574783325
1761132568859472000,3.486471923828125,1.4757843017578125,0.11810970306396484,2.704432487487793
1761132568869472300,3.49647216796875,0.6029233932495117,-0.028737425804138184,2.6767807006835938
1761132568879473200,3.50647314453125,-0.3789796829223633,-0.17942917346954346,2.446049451828003
1761132568889473000,3.51647314453125,-1.2754631042480469,-0.31926143169403076,2.0737640857696533
1761132568909473000,3.53647314453125,-2.9626989364624023,-0.543677568435669,1.389348030090332
1761132568919473200,3.54647314453125,-2.9284753799438477,-0.6881192922592163,1.4453370571136475
1761132568929473000,3.55647314453125,-4.4413042068481445,-0.6344770193099976,0.7911987900733948
1761132568939473200,3.56647314453125,-4.401721000671387,-0.7719355821609497,0.8654578328132629
1761132568949473300,3.576473388671875,-5.465345859527588,-0.6320255994796753,0.5991954207420349
1761132568959473200,3.58647314453125,-5.775442123413086,-0.6180222034454346,0.6514861583709717
1761132568969473000,3.59647314453125,-5.948491096496582,-0.5536034107208252,0.7043209075927734
1761132568979472100,3.60647216796875,-5.985831260681152,-0.48244404792785645,0.6116467118263245
1761132568989472300,3.61647216796875,-5.822047233581543,-0.4121100902557373,0.3652380704879761
1761132568999472000,3.62647216796875,-5.441760063171387,-0.4399545192718506,0.12171566486358643
1761132569009472300,3.63647216796875,-5.029900550842285,-0.5867471694946289,0.1719909906387329
1761132569019472100,3.64647216796875,-4.641388893127441,-0.6115190982818604,0.513197660446167
1761132569029472300,3.65647216796875,-4.215098857879639,-0.5250053405761719,0.8731436729431152
1761132569039473200,3.66647314453125,-3.8175888061523438,-0.4476041793823242,1.1359443664550781
1761132569049473000,3.67647314453125,-3.450730800628662,-0.4339733123779297,1.129254698753357
1761132569059473200,3.68647314453125,-2.8162646293640137,-0.43704819679260254,0.8843571543693542
1761132569069473000,3.69647314453125,-2.409986972808838,-0.49486637115478516,0.4324221611022949
1761132569079473200,3.70647314453125,-2.2355141639709473,-0.8993484973907471,0.6637449860572815
1761132569089473000,3.71647314453125,-1.7427358627319336,-1.1630688905715942,0.4834357500076294
1761132569099473200,3.72647314453125,-1.1192760467529297,-1.2442808151245117,0.17842918634414673
1761132569109473000,3.73647314453125,-0.494476318359375,-1.3209227323532104,-0.24406450986862183
1761132569119473200,3.74647314453125,0.017157554626464844,-1.4011452198028564,-0.6264327168464661
1761132569129473000,3.75647314453125,0.44144153594970703,-1.4430854320526123,-0.9423088431358337
1761132569139473200,3.76647314453125,0.668736457824707,-1.3409143686294556,-1.1276144981384277
1761132569149473000,3.77647314453125,0.725255012512207,-1.246586799621582,-1.0151104927062988
1761132569159473200,3.78647314453125,0.6894979476928711,-0.9674801826477051,-0.7923265099525452
1761132569169473000,3.79647314453125,0.4309873580932617,-0.3669891357421875,-0.8078363537788391
1761132569179472400,3.806472412109375,0.024870872497558594,0.0505523681640625,-0.6783145666122437
1761132569189472300,3.81647216796875,-0.3315420150756836,0.2694239616394043,-0.30982980132102966
1761132569199472400,3.826472412109375,-0.3168611526489258,0.21868085861206055,-0.32805898785591125
1761132569209472300,3.83647216796875,-0.7118949890136719,0.6050288677215576,0.25854507088661194
1761132569219472400,3.846472412109375,-0.7027683258056641,0.7152066230773926,0.31639212369918823
1761132569229472300,3.85647216796875,-0.45842742919921875,0.759742021560669,0.33030226826667786
1761132569239472400,3.866472412109375,-0.07997417449951172,0.7173764705657959,0.1858171820640564
1761132569249472300,3.87647216796875,0.26967906951904297,0.7235949039459229,-0.15758506953716278
1761132569259472400,3.886472412109375,0.2612905502319336,0.6563534736633301,-0.48866838216781616
1761132569269472300,3.89647216796875,0.23706817626953125,0.7375583648681641,-0.4883214235305786
1761132569279473200,3.90647314453125,0.30707550048828125,0.8967633247375488,-1.0026673078536987
1761132569289473300,3.916473388671875,0.6635627746582031,1.2135376930236816,-1.0808451175689697
1761132569299473200,3.92647314453125,0.6366968154907227,1.3255906105041504,-1.0052435398101807
1761132569309473300,3.936473388671875,1.5830421447753906,1.7452714443206787,-0.9584431648254395
1761132569319473200,3.94647314453125,2.441777229309082,1.7407927513122559,-0.8672150373458862
1761132569329473300,3.956473388671875,3.450124740600586,1.4625091552734375,-0.6389663815498352
1761132569339473200,3.96647314453125,3.419508934020996,1.6123913526535034,-0.6338303685188293
1761132569349473300,3.976473388671875,5.777177810668945,0.6844174861907959,-0.8412247896194458
1761132569359473200,3.98647314453125,6.360822677612305,0.46368253231048584,-1.245813012123108
1761132569369473300,3.996473388671875,6.358405113220215,0.2338188886642456,-1.4001325368881226
1761132569379472400,4.006472412109375,5.743242263793945,0.024365544319152832,-1.4122810363769531
1761132569389472300,4.01647216796875,4.819802284240723,0.0833292007446289,-1.3677194118499756
1761132569399472400,4.026472412109375,3.602972984313965,0.47973382472991943,-1.109947681427002
1761132569409472300,4.03647216796875,2.59713077545166,0.8871430158615112,-0.8972554206848145
1761132569419472400,4.046472412109375,1.9585914611816406,1.3295938968658447,-0.7901331782341003
1761132569429472300,4.05647216796875,1.5817089080810547,1.6322110891342163,-0.6943641304969788
1761132569439472400,4.066472412109375,1.2811222076416016,1.6994132995605469,-0.39090001583099365
1761132569449472300,4.07647216796875,1.116241455078125,1.382076382637024,0.1343274712562561
1761132569459472400,4.086472412109375,1.0000638961791992,0.8026878833770752,0.6994889974594116
1761132569469472300,4.09647216796875,0.9458227157592773,0.44777023792266846,0.9289262294769287
1761132569479473200,4.10647314453125,0.8620176315307617,0.22909224033355713,0.9929057359695435
1761132569489473000,4.11647314453125,0.5680141448974609,0.0018041133880615234,1.0260629653930664
1761132569499473200,4.12647314453125,0.1555938720703125,-0.0877695083618164,0.9425992965698242
1761132569509473000,4.13647314453125,-0.32708263397216797,-0.1309361457824707,0.6990066766738892
1761132569519473200,4.14647314453125,-0.8959054946899414,-0.16488385200500488,0.41217541694641113
1761132569529473000,4.15647314453125,-1.3766918182373047,-0.20128917694091797,0.19042785465717316
1761132569539473200,4.16647314453125,-1.8965420722961426,-0.29994869232177734,0.0354749858379364
1761132569549473000,4.17647314453125,-2.3861427307128906,-0.3581838607788086,-0.012038886547088623
1761132569559473200,4.18647314453125,-2.3663883209228516,-0.4347255229949951,-0.000751107931137085
1761132569569473000,4.19647314453125,-3.398135185241699,-0.3886549472808838,0.2595769464969635
1761132569579472100,4.20647216796875,-3.9085206985473633,-0.35259270668029785,0.5435469746589661
1761132569589472300,4.21647216796875,-4.288571357727051,-0.3394432067871094,0.6273127198219299
1761132569599472000,4.22647216796875,-4.511058330535889,-0.3109097480773926,0.5695762038230896
1761132569609472300,4.23647216796875,-4.600827217102051,-0.38187408447265625,0.3766309916973114
1761132569619472100,4.24647216796875,-4.432497978210449,-0.46456241607666016,0.14248204231262207
1761132569629472300,4.25647216796875,-4.117936611175537,-0.5996494293212891,-0.03831839561462402
1761132569639472000,4.26647216796875,-3.78173828125,-0.6647491455078125,-0.1533922702074051
1761132569649472300,4.27647216796875,-3.464046001434326,-0.7647144794464111,-0.1889704465866089
1761132569659472100,4.28647216796875,-3.4605202674865723,-0.7783405780792236,-0.24814212322235107
1761132569669472300,4.29647216796875,-3.271822452545166,-0.8721330165863037,-0.20805174112319946
1761132569679473200,4.30647314453125,-2.830124855041504,-0.902543306350708,-0.2859000563621521
1761132569689473000,4.31647314453125,-2.558870792388916,-0.7848803997039795,-0.6288993954658508
1761132569699440600,4.326440673828125,-2.4578981399536133,-0.6229805946350098,-0.9306114315986633
1761132569709407200,4.3364072265625,-2.3115744590759277,-0.5276246070861816,-1.2791296243667603
1761132569719374000,4.3463740234375,-2.0025534629821777,-0.47019410133361816,-1.6009489297866821
1761132569729340700,4.356340576171875,-1.5886344909667969,-0.4447650909423828,-1.9265602827072144
1761132569739307500,4.3663076171875,-0.9454679489135742,-0.36920809745788574,-2.168363571166992
1761132569749274400,4.3762744140625,-0.3194103240966797,-0.258303165435791,-2.189926862716675
1761132569759241000,4.386240966796875,0.17060184478759766,-0.2052137851715088,-2.058323860168457
1761132569769207600,4.39620751953125,0.5733451843261719,-0.1818704605102539,-1.790196418762207
1761132569779173400,4.40617333984375,0.7335367202758789,-0.17827510833740234,-1.4622703790664673
1761132569789140200,4.41614013671875,0.8641548156738281,-0.11809682846069336,-1.2367510795593262
1761132569799106800,4.42610693359375,1.2392005920410156,0.08854913711547852,-1.1122878789901733
1761132569809073400,4.436073486328125,1.7009038925170898,0.38762426376342773,-1.2233140468597412
1761132569819040000,4.4460400390625,2.2189836502075195,0.6510884761810303,-1.3876127004623413
1761132569829006800,4.4560068359375,2.5922651290893555,0.6440424919128418,-1.2307748794555664
1761132569838973400,4.465973388671875,2.780745506286621,0.45996665954589844,-0.8709483742713928
1761132569848940000,4.47593994140625,2.8591089248657227,0.38308024406433105,-0.6314678192138672
1761132569858906600,4.48590673828125,2.8821287155151367,0.475801944732666,-0.44989514350891113
1761132569868873500,4.49587353515625,2.7732019424438477,0.6812057495117188,-0.2194519340991974
1761132569878841000,4.505841064453125,2.802988052368164,0.8258156776428223,-0.09115380048751831
1761132569888807700,4.5158076171875,3.2208900451660156,1.0055897235870361,-0.08937603235244751
1761132569898774300,4.525774169921875,3.824190139770508,1.0121030807495117,-0.04763329029083252
1761132569908741000,4.5357412109375,4.4870500564575195,0.636390209197998,0.057333946228027344
1761132569918708700,4.545708740234375,4.736384391784668,0.2607240676879883,0.18415367603302002
1761132569928700000,4.555699951171875,4.8054304122924805,-0.13672351837158203,0.33257758617401123
1761132569938666500,4.56566650390625,4.562990188598633,-0.4830518960952759,0.3237283229827881
1761132569948633000,4.575633056640625,4.547679901123047,-0.4118393659591675,0.2953522801399231
1761132569958600000,4.585599853515625,3.5405616760253906,-0.6598280668258667,-0.0018252730369567871
1761132569968566500,4.59556640625,2.7344179153442383,-0.32830822467803955,-0.14708182215690613
1761132569978532400,4.605532470703125,2.0277252197265625,0.06641316413879395,-0.17381006479263306
1761132569988499000,4.6154990234375,1.4289007186889648,0.28436803817749023,0.16408321261405945
1761132569998498000,4.625498046875,0.8376598358154297,0.47878122329711914,0.7245727777481079
1761132570008498000,4.635497802734375,0.28433704376220703,0.5950698852539062,1.4166042804718018
1761132570018498000,4.645498046875,-0.1463756561279297,0.5448460578918457,2.0858960151672363
1761132570028498000,4.655497802734375,-0.2835845947265625,0.3620271682739258,2.5700762271881104
1761132570038497800,4.665497802734375,-0.24402523040771484,0.20004868507385254,2.6617345809936523
1761132570048497700,4.67549755859375,-0.28937625885009766,0.010979175567626953,2.479008197784424
1761132570058497800,4.685497802734375,-0.3071870803833008,-0.21782588958740234,2.142460346221924
1761132570068497700,4.69549755859375,-0.5199317932128906,-0.4933891296386719,1.721767783164978
1761132570078498600,4.70549853515625,-0.8025302886962891,-0.7616856098175049,1.3469265699386597
1761132570088498700,4.715498779296875,-1.1879501342773438,-0.855133056640625,0.9030776023864746
1761132570098498600,4.72549853515625,-1.6541376113891602,-0.803480863571167,0.5534715056419373
1761132570108498700,4.735498779296875,-2.071232318878174,-0.6726853847503662,0.3424087166786194
1761132570118498600,4.74549853515625,-2.438751220703125,-0.5760247707366943,0.17551015317440033
1761132570128498700,4.755498779296875,-2.740018844604492,-0.5095493793487549,0.08037015795707703
1761132570138498600,4.76549853515625,-2.8918118476867676,-0.40114498138427734,-0.0610455684363842
1761132570148498700,4.775498779296875,-2.933121681213379,-0.3156702518463135,-0.18418210744857788
1761132570158498600,4.78549853515625,-3.041541576385498,-0.2739396095275879,-0.19713886082172394
1761132570168498700,4.795498779296875,-3.138190269470215,-0.33373546600341797,-0.0686456710100174
1761132570178497800,4.805497802734375,-3.239659309387207,-0.36431241035461426,0.1747235357761383
1761132570188497700,4.81549755859375,-3.2551488876342773,-0.2837798595428467,0.4236648380756378
1761132570198497800,4.825497802734375,-3.1758575439453125,-0.10648441314697266,0.6231807470321655
1761132570208497700,4.83549755859375,-2.995795249938965,0.022650480270385742,0.7017371654510498
1761132570218496800,4.845496826171875,-2.73016357421875,0.05331087112426758,0.7436842918395996
1761132570228496600,4.85549658203125,-2.4510107040405273,-0.0019752979278564453,0.8222153186798096
1761132570238496800,4.865496826171875,-2.1891236305236816,-0.17299771308898926,0.8259061574935913
1761132570248496600,4.87549658203125,-2.005913257598877,-0.2898707389831543,0.7461663484573364
1761132570258496800,4.885496826171875,-1.85023832321167,-0.31693196296691895,0.7122578024864197
1761132570268496600,4.89549658203125,-1.7395086288452148,-0.2856779098510742,0.7038105726242065
1761132570278497500,4.90549755859375,-1.7069978713989258,-0.2781987190246582,0.6628575921058655
1761132570288497700,4.91549755859375,-1.7071046829223633,-0.27797842025756836,0.6300060153007507
1761132570298497500,4.92549755859375,-1.5200133323669434,-0.38646721839904785,0.478891521692276
1761132570308497700,4.93549755859375,-1.258957862854004,-0.31409406661987305,0.30765944719314575
1761132570318497500,4.94549755859375,-1.1157464981079102,-0.2514488697052002,0.05205072462558746
1761132570328497700,4.95549755859375,-1.058741569519043,-0.25282740592956543,-0.14329421520233154
1761132570338497500,4.96549755859375,-1.0368499755859375,-0.2278289794921875,-0.2547277808189392
1761132570348497700,4.97549755859375,-1.035090446472168,-0.23142552375793457,-0.2799844443798065
1761132570358497500,4.98549755859375,-1.1298503875732422,0.09481120109558105,-0.5521347522735596
1761132570368497700,4.99549755859375,-1.055851936340332,0.3431248664855957,-0.6912509799003601
1761132570378496800,5.005496826171875,-1.0554742813110352,0.44609618186950684,-0.8542426228523254
1761132570388496600,5.01549658203125,-1.0574407577514648,0.5420284271240234,-0.8823475241661072
1761132570398496800,5.025496826171875,-0.8205127716064453,0.6802983283996582,-0.8185574412345886
1761132570408496600,5.03549658203125,-0.4990577697753906,0.8165180683135986,-0.7265864610671997
1761132570418496800,5.045496826171875,-0.17562198638916016,1.0025889873504639,-0.6577962636947632
1761132570428496600,5.05549658203125,0.2377796173095703,1.233628749847412,-0.7300695180892944
1761132570438496800,5.065496826171875,0.7283535003662109,1.3685073852539062,-0.8182597756385803
1761132570448496600,5.07549658203125,1.0945415496826172,1.3244500160217285,-0.7290705442428589
1761132570458496800,5.085496826171875,1.5545768737792969,1.2797739505767822,-0.5413293838500977
1761132570468496600,5.09549658203125,2.0476131439208984,1.3990435600280762,-0.41707101464271545
1761132570478497500,5.10549755859375,2.526063919067383,1.5993402004241943,-0.46154606342315674
1761132570488497700,5.11549755859375,3.2998437881469727,1.7078614234924316,-0.40224945545196533
1761132570498497500,5.12549755859375,4.2607011795043945,1.5884928703308105,-0.2241472601890564
1761132570508497700,5.13549755859375,5.242810249328613,1.348249912261963,-0.13614219427108765
1761132570518497500,5.14549755859375,6.027582168579102,1.074544906616211,-0.18592208623886108
1761132570528497700,5.15549755859375,6.44533634185791,0.7249741554260254,-0.3567064106464386
1761132570538496800,5.165496826171875,6.341889381408691,0.32713449001312256,-0.6638599038124084
1761132570548496600,5.17549658203125,5.582763671875,-0.0688399076461792,-0.9773464202880859
1761132570558496800,5.185496826171875,4.508857727050781,-0.030265092849731445,-1.2145923376083374
1761132570568496600,5.19549658203125,3.4242801666259766,0.42052996158599854,-1.390662670135498
1761132570578495700,5.205495849609375,2.401620864868164,0.9255983829498291,-1.5412828922271729
1761132570598495700,5.225495849609375,0.6831645965576172,1.910749077796936,-1.5591604709625244
1761132570608495900,5.235495849609375,0.2876424789428711,2.013021230697632,-1.3061410188674927
1761132570618495700,5.245495849609375,0.10725688934326172,1.8910106420516968,-1.167181372642517
1761132570628496000,5.255495849609375,0.14426422119140625,1.5549378395080566,-0.9922670125961304
1761132570638495700,5.265495849609375,0.5094757080078125,1.0362472534179688,-0.8188879489898682
1761132570648495900,5.275495849609375,0.9368391036987305,0.5869266986846924,-0.6297072172164917
1761132570658495700,5.285495849609375,1.2596969604492188,0.3033440113067627,-0.3642159402370453
1761132570668496000,5.295495849609375,1.285202980041504,0.09368586540222168,-0.13897758722305298
1761132570678496800,5.305496826171875,1.0258560180664062,-0.1218109130859375,0.21303921937942505
1761132570688496600,5.31549658203125,0.7905979156494141,-0.22240674495697021,0.3736734986305237
1761132570698496800,5.325496826171875,0.684849739074707,-0.20107436180114746,0.048100173473358154
1761132570708496600,5.33549658203125,0.46972179412841797,-0.14799737930297852,-0.43890148401260376
1761132570718496800,5.345496826171875,-0.023507118225097656,-0.269681453704834,-0.768558144569397
1761132570728496600,5.35549658203125,-0.5572490692138672,-0.4756786823272705,-0.7535923719406128
1761132570738496500,5.36549658203125,-1.1373281478881836,-0.6329443454742432,-0.6473893523216248
1761132570748496600,5.37549658203125,-1.6849079132080078,-0.7036817073822021,-0.5482268333435059
1761132570758496500,5.38549658203125,-2.255558967590332,-0.6489306688308716,-0.5468904972076416
1761132570768496600,5.39549658203125,-2.755697727203369,-0.6595747470855713,-0.5452978610992432
1761132570778495700,5.405495849609375,-3.2630653381347656,-0.7021198272705078,-0.5594227313995361
1761132570788496000,5.415495849609375,-3.621316432952881,-0.8066918849945068,-0.5279407501220703
1761132570798495700,5.425495849609375,-3.861114978790283,-0.9484779834747314,-0.41982778906822205
1761132570808495900,5.435495849609375,-3.9648098945617676,-1.042342185974121,-0.346391499042511
1761132570818495700,5.445495849609375,-3.906949043273926,-1.1367741823196411,-0.31281715631484985
1761132570828496000,5.455495849609375,-3.6665539741516113,-1.2070640325546265,-0.3167152404785156
1761132570838496500,5.46549658203125,-3.547633647918701,-1.2920912504196167,-0.4150126278400421
1761132570848496600,5.47549658203125,-3.37703275680542,-1.406726598739624,-0.42745524644851685
1761132570858496500,5.48549658203125,-3.17551326751709,-1.5307997465133667,-0.48188894987106323
1761132570868496600,5.49549658203125,-3.169754981994629,-1.545040488243103,-0.4950101971626282
1761132570878497500,5.50549755859375,-2.827627182006836,-1.5301978588104248,-0.9537426233291626
1761132570888497700,5.51549755859375,-2.606015682220459,-1.4635276794433594,-1.2526590824127197
1761132570898497500,5.52549755859375,-2.4328017234802246,-1.3862236738204956,-1.4582557678222656
1761132570908497700,5.53549755859375,-2.360520362854004,-1.3339852094650269,-1.6814160346984863
1761132570918497500,5.54549755859375,-2.238400459289551,-1.2466518878936768,-1.8102877140045166
1761132570928497400,5.555497314453125,-2.0665555000305176,-1.1193263530731201,-1.886857032775879
1761132570938497500,5.56549755859375,-1.9099230766296387,-0.9777772426605225,-1.9194409847259521
1761132570948497400,5.575497314453125,-1.678135871887207,-0.8633718490600586,-1.9893465042114258
1761132570958497500,5.58549755859375,-1.3250246047973633,-0.7181055545806885,-1.990799903869629
1761132570968497400,5.595497314453125,-0.8691720962524414,-0.5671069622039795,-2.018838882446289
1761132570978496800,5.605496826171875,-0.45174694061279297,-0.4387016296386719,-1.9632078409194946
1761132570988496600,5.61549658203125,-0.048331260681152344,-0.47020697593688965,-1.7531986236572266
1761132570998496500,5.62549658203125,0.3869132995605469,-0.48032617568969727,-1.4630234241485596
1761132571008496600,5.63549658203125,0.9113492965698242,-0.3765566349029541,-1.3280121088027954
1761132571018496500,5.64549658203125,1.5579538345336914,-0.19165754318237305,-1.4513124227523804
1761132571028496600,5.65549658203125,2.311337471008301,-0.15286684036254883,-1.6009771823883057
1761132571038496800,5.665496826171875,3.0518970489501953,-0.19106197357177734,-1.6815085411071777
1761132571048497000,5.675496826171875,3.5042715072631836,-0.2390151023864746,-1.6341989040374756
1761132571058496800,5.685496826171875,3.5416603088378906,-0.27005863189697266,-1.3888188600540161
1761132571068497000,5.695496826171875,3.3008594512939453,-0.2780795097351074,-0.9973277449607849
1761132571078497500,5.70549755859375,2.78326416015625,-0.17387151718139648,-0.7506179809570312
1761132571088497700,5.71549755859375,1.9831228256225586,-0.15424489974975586,-0.26051414012908936
1761132571098497500,5.72549755859375,1.4495515823364258,0.0164794921875,0.21078336238861084
1761132571108497700,5.73549755859375,1.4251365661621094,0.10199761390686035,0.25022411346435547
1761132571118497500,5.74549755859375,1.8634710311889648,0.2858872413635254,0.4202249050140381
1761132571128497700,5.75549755859375,2.5520401000976562,0.057393431663513184,-0.058072566986083984
1761132571138497800,5.765497802734375,2.5176820755004883,0.2193748950958252,-0.026555299758911133
1761132571148497700,5.77549755859375,3.5624446868896484,-0.720543384552002,-0.9942559599876404
1761132571158497800,5.785497802734375,3.863374710083008,-0.8814406394958496,-1.3223036527633667
1761132571168497700,5.79549755859375,3.8408403396606445,-0.7398136854171753,-1.5169658660888672
1761132571178496800,5.805496826171875,3.726581573486328,-0.4433858394622803,-1.5617114305496216
1761132571188497000,5.815496826171875,3.4844532012939453,-0.054863154888153076,-1.074514627456665
1761132571198496800,5.825496826171875,3.2986717224121094,0.2361011505126953,-0.3620111346244812
1761132571208496600,5.83549658203125,3.1877975463867188,0.4742685556411743,0.36950716376304626
1761132571218496800,5.845496826171875,3.18886661529541,0.5696521997451782,1.0203192234039307
1761132571228496600,5.85549658203125,3.178433418273926,0.4268902540206909,1.5764163732528687
1761132571238496800,5.865496826171875,3.0214710235595703,0.11727249622344971,1.9536892175674438
1761132571248496600,5.87549658203125,3.0215835571289062,0.11734437942504883,1.9442970752716064
1761132571258496800,5.885496826171875,2.3286943435668945,-0.24181395769119263,2.0560572147369385
1761132571268496600,5.89549658203125,1.823781967163086,-0.2511800229549408,2.0055525302886963
1761132571278497500,5.90549755859375,1.0041427612304688,-0.2294403314590454,1.7941089868545532
1761132571288497700,5.91549755859375,0.18604087829589844,-0.15722566843032837,1.4722000360488892
1761132571298497500,5.92549755859375,-0.7425527572631836,-0.07685863971710205,0.9684194922447205
1761132571308497700,5.93549755859375,-1.4433975219726562,-0.1081383228302002,0.5315507650375366
1761132571318497500,5.94549755859375,-2.0717692375183105,-0.17271870374679565,0.23068290948867798
1761132571328497700,5.95549755859375,-2.0558457374572754,-0.30013972520828247,0.29317349195480347
1761132571338497500,5.96549755859375,-2.9742956161499023,-0.18539738655090332,-0.003807544708251953
1761132571348497700,5.97549755859375,-3.3596549034118652,-0.15646231174468994,0.24098533391952515
1761132571358497500,5.98549755859375,-3.7705259323120117,-0.13567864894866943,0.5925586223602295
1761132571368497700,5.99549755859375,-3.947615146636963,-0.04336428642272949,0.7015212774276733
1761132571378496800,6.005496826171875,-3.8778653144836426,0.07330238819122314,0.699425458908081
1761132571388496600,6.01549658203125,-3.677170753479004,0.0594942569732666,0.6151752471923828
1761132571398496800,6.025496826171875,-3.3653526306152344,-0.04545152187347412,0.5666794776916504
1761132571408496600,6.03549658203125,-3.0240769386291504,-0.16792941093444824,0.5820682048797607
1761132571418496800,6.045496826171875,-2.827183246612549,-0.30690813064575195,0.7615925073623657
1761132571428496600,6.05549658203125,-2.5947046279907227,-0.3938937187194824,0.9890525341033936
1761132571438496800,6.065496826171875,-2.0916638374328613,-0.3198826313018799,1.144335389137268
1761132571448496600,6.07549658203125,-1.5886821746826172,-0.1895434856414795,1.1093827486038208
1761132571458496800,6.085496826171875,-1.0663785934448242,-0.1543412208557129,0.9711464047431946
1761132571468496600,6.09549658203125,-0.34459877014160156,-0.338947057723999,0.8889228701591492
1761132571478497500,6.10549755859375,0.13693523406982422,-0.5484931468963623,0.7463135719299316
1761132571488497700,6.11549755859375,0.4271736145019531,-0.7070673704147339,0.5775225162506104
1761132571498497500,6.12549755859375,0.7163581848144531,-0.7133931517601013,0.3780803382396698
1761132571508497700,6.13549755859375,0.9622049331665039,-0.5800290107727051,0.1827835887670517
1761132571518497500,6.14549755859375,1.0884952545166016,-0.41785120964050293,-0.05316763371229172
1761132571528497400,6.155497314453125,0.9109878540039062,-0.3289602994918823,-0.18119148910045624
1761132571538497500,6.16549755859375,0.5639152526855469,-0.26474225521087646,-0.08847308903932571
1761132571548497400,6.175497314453125,0.14790058135986328,-0.13951611518859863,0.011136861518025398
1761132571558497500,6.18549755859375,-0.24638652801513672,-0.008208513259887695,0.07175638526678085
1761132571568497400,6.195497314453125,-0.5739107131958008,0.1902930736541748,0.08338764309883118
1761132571578496800,6.205496826171875,-0.8448123931884766,0.335573673248291,0.09863555431365967
1761132571588496600,6.21549658203125,-1.121891975402832,0.42643749713897705,0.1279643028974533
1761132571598496800,6.225496826171875,-1.2094478607177734,0.3851374387741089,0.13304054737091064
1761132571608496600,6.23549658203125,-1.0746088027954102,0.3445185422897339,0.08517448604106903
1761132571618496800,6.245496826171875,-0.6870326995849609,0.3324859142303467,-0.013999080285429955
1761132571628496600,6.25549658203125,-0.2865762710571289,0.2651768922805786,0.027048859745264053
1761132571638496800,6.265496826171875,-0.0070858001708984375,0.1227647066116333,0.07603976130485535
1761132571648496600,6.27549658203125,0.24493408203125,-0.0737224817276001,0.12040667235851288
1761132571658496800,6.285496826171875,0.4366025924682617,-0.15428030490875244,0.03308075666427612
1761132571668496600,6.29549658203125,0.4984121322631836,-0.0487058162689209,-0.34154126048088074
1761132571678497500,6.30549755859375,0.5335903167724609,0.20365333557128906,-0.9015004634857178
1761132571688497700,6.31549755859375,0.5307140350341797,0.37923145294189453,-1.3000404834747314
1761132571698497500,6.32549755859375,0.5412359237670898,0.6303980350494385,-1.3591841459274292
1761132571708497700,6.33549755859375,0.6638078689575195,0.8791041374206543,-1.323595643043518
1761132571718497500,6.34549755859375,0.6728324890136719,0.8369715213775635,-1.2836096286773682
1761132571728497700,6.35549755859375,0.5314865112304688,1.0295476913452148,-0.8585599660873413
1761132571738497500,6.36549755859375,0.9280891418457031,0.7741384506225586,-0.1897062063217163
1761132571748497700,6.37549755859375,0.9344806671142578,0.7474699020385742,-0.1940802037715912
1761132571758497500,6.38549755859375,2.349611282348633,0.6015214920043945,0.311599999666214
1761132571768497700,6.39549755859375,2.970669746398926,0.45764613151550293,-0.04507482796907425
1761132571778496800,6.405496826171875,3.3070220947265625,-0.04268622398376465,-0.26776137948036194
1761132571788496600,6.41549658203125,3.3135786056518555,-0.5125703811645508,-0.26690271496772766
1761132571798496800,6.425496826171875,3.050093650817871,-0.6706186532974243,-0.13059696555137634
1761132571808496600,6.43549658203125,2.4964981079101562,-0.5216498374938965,0.0445728600025177
1761132571818496800,6.445496826171875,1.7736873626708984,-0.08545637130737305,0.22143018245697021
1761132571828497000,6.455496826171875,1.2103767395019531,0.28716135025024414,0.37895506620407104
1761132571838496800,6.465496826171875,0.6095561981201172,0.4996623992919922,0.6212196350097656
1761132571848497000,6.475496826171875,0.1822376251220703,0.5109696388244629,0.9954223036766052
1761132571858496800,6.485496826171875,-0.16518783569335938,0.2617788314819336,1.5759737491607666
1761132571868497000,6.495496826171875,-0.29631805419921875,-0.13001680374145508,2.181882381439209
1761132571878497800,6.505497802734375,-0.1211557388305664,-0.4008958339691162,2.5349183082580566
1761132571888497700,6.51549755859375,0.4287710189819336,-0.7337524890899658,2.4244868755340576
1761132571898497800,6.525497802734375,1.059647560119629,-1.0567150115966797,2.1760096549987793
1761132571908497700,6.53549755859375,1.8773956298828125,-1.4800679683685303,2.0793347358703613
1761132571918497800,6.545497802734375,2.546384811401367,-1.951432228088379,2.029587745666504
1761132571928497700,6.55549755859375,2.7962732315063477,-2.435056447982788,1.9125877618789673
1761132571938497500,6.56549755859375,2.596609115600586,-2.7261643409729004,1.8070881366729736
1761132571948497700,6.57549755859375,2.125293731689453,-2.8244314193725586,1.7128305435180664
1761132571958497500,6.58549755859375,1.4931259155273438,-2.637761354446411,1.3942625522613525
1761132571968497700,6.59549755859375,0.6838245391845703,-2.3686647415161133,1.1036198139190674
1761132571978496800,6.605496826171875,-0.2435760498046875,-2.094794988632202,0.9457228183746338
1761132571988497000,6.615496826171875,-1.2581682205200195,-1.7752445936203003,0.9198901057243347
1761132571998496800,6.625496826171875,-2.14438533782959,-1.555637240409851,1.0647648572921753
1761132572008496600,6.63549658203125,-3.0099687576293945,-1.4535598754882812,1.2945657968521118
1761132572018496800,6.645496826171875,-3.625493049621582,-1.3177964687347412,1.4567415714263916
1761132572028496600,6.65549658203125,-4.095276832580566,-1.1886438131332397,1.5933095216751099
1761132572038496800,6.665496826171875,-4.612024784088135,-1.1624326705932617,1.6689878702163696
1761132572048496600,6.67549658203125,-4.928117275238037,-1.1077286005020142,1.8604909181594849
1761132572058496800,6.685496826171875,-4.856480598449707,-1.0662386417388916,1.8805159330368042
1761132572068496600,6.69549658203125,-4.559179782867432,-1.0186741352081299,1.6653043031692505
1761132572078497500,6.70549755859375,-3.99867582321167,-1.012744665145874,1.4072768688201904
1761132572088497700,6.71549755859375,-3.244870662689209,-1.034895658493042,1.1219590902328491
1761132572098497500,6.72549755859375,-2.334630012512207,-1.0933283567428589,0.9126512408256531
1761132572108497700,6.73549755859375,-1.103306770324707,-1.188435673713684,0.69118332862854
1761132572118497500,6.74549755859375,-0.18559741973876953,-1.3775514364242554,0.7171300649642944
1761132572128497700,6.75549755859375,0.6215610504150391,-1.6283440589904785,0.9479008316993713
1761132572138497800,6.765497802734375,1.3660497665405273,-1.945459008216858,1.4412121772766113
1761132572148497700,6.77549755859375,2.135538101196289,-2.082404375076294,2.0354769229888916
1761132572158497800,6.785497802734375,3.123537063598633,-1.9302151203155518,2.2060062885284424
1761132572168497700,6.79549755859375,4.047628402709961,-1.619988203048706,2.0109877586364746
1761132572178496800,6.805496826171875,4.647373199462891,-1.6096333265304565,2.0068295001983643
1761132572188497000,6.815496826171875,4.907835960388184,-1.893559217453003,2.3151025772094727
1761132572198496800,6.825496826171875,5.012446403503418,-2.2484066486358643,2.831943988800049
1761132572208497000,6.835496826171875,5.143048286437988,-2.4849672317504883,3.283724784851074
1761132572218496800,6.845496826171875,5.370269775390625,-2.582077741622925,3.5104758739471436
1761132572228497000,6.855496826171875,5.449889183044434,-2.6071090698242188,3.3350601196289062
1761132572238496800,6.865496826171875,5.276354789733887,-2.730414867401123,2.8565521240234375
1761132572248497000,6.875496826171875,4.796375274658203,-3.0016367435455322,2.2407352924346924
1761132572258496800,6.885496826171875,3.883544921875,-3.1552796363830566,1.4790513515472412
1761132572268497000,6.895496826171875,2.736665725708008,-3.110640287399292,0.8012139797210693
1761132572278497800,6.905497802734375,1.4165849685668945,-2.9649689197540283,0.3206254243850708
1761132572288497700,6.91549755859375,1.4161348342895508,-2.9946444034576416,0.4086325168609619
1761132572298497800,6.925497802734375,-0.514857292175293,-2.4738121032714844,-0.18655367195606232
1761132572308497700,6.93549755859375,-0.5066957473754883,-2.547098398208618,-0.06895817816257477
1761132572318497800,6.945497802734375,-1.580998420715332,-1.8983920812606812,-0.24698439240455627
1761132572328497700,6.95549755859375,-2.003023624420166,-1.7322094440460205,-0.07913702726364136
1761132572338497800,6.965497802734375,-2.3329033851623535,-1.7084169387817383,0.3182479739189148
1761132572348497700,6.97549755859375,-2.4963560104370117,-1.7575976848602295,0.7464895248413086
1761132572358497800,6.985497802734375,-2.531099796295166,-1.7959918975830078,1.1239806413650513
1761132572368497700,6.99549755859375,-2.387336254119873,-1.8150395154953003,1.4766042232513428
1761132572378496800,7.005496826171875,-2.1306848526000977,-1.8181768655776978,1.7536866664886475
1761132572388497000,7.015496826171875,-1.7528557777404785,-1.9128309488296509,1.9379870891571045
1761132572398496800,7.025496826171875,-1.1180095672607422,-2.106192111968994,2.0266544818878174
1761132572408497000,7.035496826171875,-0.5234251022338867,-2.3631513118743896,1.9090957641601562
1761132572418496800,7.045496826171875,0.1794872283935547,-2.5598151683807373,1.7720186710357666
1761132572428496600,7.05549658203125,0.9051780700683594,-2.6635587215423584,1.602548599243164
1761132572438496800,7.065496826171875,1.4529781341552734,-2.6965999603271484,1.3804166316986084
1761132572448496600,7.07549658203125,1.7333593368530273,-2.688992977142334,1.1282446384429932
1761132572458496800,7.085496826171875,1.6284942626953125,-2.6038589477539062,0.9022465944290161
1761132572468496600,7.09549658203125,1.2229423522949219,-2.2692887783050537,0.5949116945266724
1761132572478497500,7.10549755859375,0.7007551193237305,-1.9239190816879272,0.3038657605648041
1761132572488497400,7.115497314453125,0.1561298370361328,-1.6006965637207031,0.0888589471578598
1761132572498497500,7.12549755859375,-0.34889793395996094,-1.2642241716384888,-0.05860409140586853
1761132572508497400,7.135497314453125,-0.7895030975341797,-0.8926777839660645,-0.1752878874540329
1761132572518497500,7.14549755859375,-1.1505489349365234,-0.6907190084457397,-0.1256353110074997
1761132572528497700,7.15549755859375,-1.4952869415283203,-0.6861439943313599,0.08717457205057144
1761132572538497500,7.16549755859375,-1.4753656387329102,-0.7663203477859497,0.08337590843439102
1761132572548497700,7.17549755859375,-2.033123016357422,-0.9014667272567749,0.8290614485740662
1761132572558497500,7.18549755859375,-1.9828577041625977,-0.938754677772522,1.0382575988769531
1761132572568497700,7.19549755859375,-1.426290512084961,-0.8930389881134033,1.1787068843841553
1761132572578496800,7.205496826171875,-0.8126201629638672,-0.9078717231750488,1.0938879251480103
1761132572588497000,7.215496826171875,-0.15427207946777344,-1.0775508880615234,0.8854238986968994
1761132572598496800,7.225496826171875,0.6813220977783203,-1.2463839054107666,0.6170558333396912
1761132572608497000,7.235496826171875,1.4661083221435547,-1.4671564102172852,0.4635952115058899
1761132572618496800,7.245496826171875,2.013443946838379,-1.5749561786651611,0.29349493980407715
1761132572628497000,7.255496826171875,2.3334474563598633,-1.6396039724349976,0.17291021347045898
1761132572638496800,7.265496826171875,2.3196258544921875,-1.5388516187667847,0.1011771634221077
1761132572648497000,7.275496826171875,2.278580665588379,-1.3866360187530518,-0.008903950452804565
1761132572658496800,7.285496826171875,2.0458736419677734,-1.2204761505126953,0.010790765285491943
1761132572668497000,7.295496826171875,1.7364320755004883,-1.0542705059051514,0.16180720925331116
1761132572678497800,7.305497802734375,1.3732271194458008,-0.8245236873626709,0.37521231174468994
1761132572688497700,7.31549755859375,1.0837278366088867,-0.6946128606796265,0.563755452632904
1761132572698497800,7.325497802734375,0.7729177474975586,-0.6575500965118408,0.6675764918327332
1761132572708497700,7.33549755859375,0.35817623138427734,-0.7180428504943848,0.8694828748703003
1761132572718497800,7.345497802734375,-0.15606021881103516,-0.7639491558074951,1.0345052480697632
1761132572728497700,7.35549755859375,-0.5834665298461914,-0.768020510673523,1.0678045749664307
1761132572738497800,7.365497802734375,-0.5659952163696289,-0.8286758661270142,1.0960673093795776
1761132572748497700,7.37549755859375,-0.8739347457885742,-0.6538434028625488,0.7713215351104736
1761132572758497800,7.385497802734375,-0.788050651550293,-0.5773996114730835,0.597919225692749
1761132572768497700,7.39549755859375,-0.5886211395263672,-0.5479533672332764,0.5916417837142944
1761132572778497000,7.4054970703125,-0.34736156463623047,-0.4906628131866455,0.6567001342773438
1761132572788497000,7.415496826171875,-0.12602710723876953,-0.4846343994140625,0.6580507755279541
1761132572798497000,7.4254970703125,-0.12724685668945312,-0.46731114387512207,0.6873501539230347
1761132572808497000,7.435496826171875,0.09851551055908203,-0.43042731285095215,0.23123812675476074
1761132572818497000,7.4454970703125,0.20234394073486328,-0.3356297016143799,0.0568084716796875
1761132572828497000,7.455496826171875,0.4881429672241211,-0.25547242164611816,-0.039855241775512695
1761132572838496800,7.465496826171875,0.4710397720336914,-0.24402594566345215,-0.0767827033996582
1761132572848497000,7.475496826171875,0.4733905792236328,-0.244612455368042,-0.05935811996459961
1761132572858496800,7.485496826171875,0.15335369110107422,-0.14528465270996094,0.22419559955596924
1761132572868497000,7.495496826171875,0.21056747436523438,-0.07941174507141113,0.4394863247871399
1761132572878497500,7.50549755859375,0.34766292572021484,0.004174470901489258,0.47170591354370117
1761132572888497700,7.51549755859375,0.35744667053222656,0.028339147567749023,0.35756945610046387
1761132572898497800,7.525497802734375,0.3548393249511719,-0.06611967086791992,0.2516345977783203
1761132572908497700,7.53549755859375,0.3478555679321289,-0.19184660911560059,0.25606799125671387
1761132572918497800,7.545497802734375,0.3056354522705078,-0.19652843475341797,0.16507840156555176
1761132572928497700,7.55549755859375,0.3499164581298828,-0.08982515335083008,0.016312360763549805
1761132572938497500,7.56549755859375,0.35588741302490234,-0.11087512969970703,0.018607020378112793
1761132572948497700,7.57549755859375,0.26846790313720703,-0.020697355270385742,-0.14751887321472168
1761132572958497500,7.58549755859375,0.27443408966064453,0.023216962814331055,-0.1647777557373047
1761132572968497700,7.59549755859375,0.4649620056152344,0.017144203186035156,-0.1396028995513916
1761132572978497000,7.6054970703125,0.5910558700561523,0.05066251754760742,-0.13447391986846924
1761132572988497000,7.615496826171875,0.5760917663574219,0.04895806312561035,-0.05014944076538086
1761132572998496800,7.625496826171875,0.5090923309326172,0.022251605987548828,-0.023570775985717773
1761132573008497000,7.635496826171875,0.3259086608886719,-0.05770158767700195,0.00459134578704834
1761132573018496800,7.645496826171875,0.27797603607177734,0.014073371887207031,0.006098628044128418
1761132573028497000,7.655496826171875,0.4286527633666992,0.1459650993347168,-0.03215956687927246
1761132573038496800,7.665496826171875,0.5084047317504883,0.07497739791870117,0.02390754222869873
1761132573048497000,7.675496826171875,0.5322980880737305,-0.0901482105255127,0.06143200397491455
1761132573058496800,7.685496826171875,0.5916862487792969,-0.3275916576385498,-0.13637816905975342
1761132573068497000,7.695496826171875,0.699066162109375,-0.5302455425262451,-0.2763681411743164
1761132573078497800,7.705497802734375,0.6615180969238281,-0.7450821399688721,-0.43720686435699463
1761132573088497700,7.71549755859375,0.7627830505371094,-0.8172602653503418,-0.5561414957046509
1761132573098497800,7.725497802734375,0.8601293563842773,-0.7548410892486572,-0.6690108776092529
1761132573108497700,7.73549755859375,0.94952392578125,-0.6594288349151611,-0.7659240961074829
1761132573118497800,7.745497802734375,0.8898105621337891,-0.5790607929229736,-0.862462043762207
1761132573128497700,7.75549755859375,0.7456960678100586,-0.5734829902648926,-0.8498769998550415
1761132573138497800,7.765497802734375,0.5463285446166992,-0.6367664337158203,-0.8482661247253418
1761132573148498000,7.775497802734375,0.22221660614013672,-0.6628952026367188,-0.780737578868866
1761132573158497800,7.785497802734375,-0.08821773529052734,-0.6830136775970459,-0.8036172389984131
1761132573168498000,7.795497802734375,-0.3113555908203125,-0.6725943088531494,-0.9048029184341431
1761132573178497000,7.8054970703125,-0.5432643890380859,-0.6727535724639893,-0.9373663067817688
1761132573188497000,7.815496826171875,-0.6764984130859375,-0.6345493793487549,-0.9508598446846008
1761132573198497000,7.8254970703125,-0.8862123489379883,-0.6007683277130127,-0.9460485577583313
1761132573208497000,7.835496826171875,-1.0408411026000977,-0.510157585144043,-0.7854277491569519
1761132573218497000,7.8454970703125,-1.1121530532836914,-0.4497971534729004,-0.6283215284347534
1761132573228497000,7.855496826171875,-0.9930791854858398,-0.4435689449310303,-0.4928702712059021
1761132573238496800,7.865496826171875,-0.7562217712402344,-0.524742841720581,-0.3827641010284424
1761132573248497000,7.875496826171875,-0.5219154357910156,-0.6363441944122314,-0.2552187740802765
1761132573258496800,7.885496826171875,-0.14410972595214844,-0.7589817047119141,-0.021572530269622803
1761132573268497000,7.895496826171875,0.09132671356201172,-0.8653762340545654,0.10158836841583252
1761132573278497500,7.90549755859375,0.16307353973388672,-1.031522274017334,0.1768423169851303
1761132573288497700,7.91549755859375,0.10584735870361328,-1.1651520729064941,0.12794658541679382
1761132573298497500,7.92549755859375,0.056484222412109375,-1.1410479545593262,-0.03636377304792404
1761132573308497700,7.93549755859375,-0.047196388244628906,-1.0199589729309082,-0.28796130418777466
1761132573318497500,7.94549755859375,-0.24320411682128906,-0.829535961151123,-0.5382016897201538
1761132573328497700,7.95549755859375,-0.49994564056396484,-0.6503715515136719,-0.6432350277900696
1761132573338497500,7.96549755859375,-0.4962587356567383,-0.6607422828674316,-0.6451206207275391
1761132573348497700,7.97549755859375,-1.0987730026245117,-0.2694685459136963,-0.6062742471694946
1761132573358497500,7.98549755859375,-1.4028525352478027,-0.06439924240112305,-0.6294111609458923
1761132573368497700,7.99549755859375,-1.5310053825378418,0.12091326713562012,-0.697248101234436
1761132573378497000,8.0054970703125,-1.6153059005737305,0.40253663063049316,-0.634989321231842
1761132573388497000,8.015496826171875,-1.617912769317627,0.5781993865966797,-0.5587612390518188
1761132573398497000,8.0254970703125,-1.7502517700195312,0.6403021812438965,-0.4039725959300995
1761132573408497000,8.035496826171874,-1.8381071090698242,0.5568315982818604,-0.1434917449951172
1761132573418497000,8.0454970703125,-1.7791194915771484,0.48262858390808105,-0.06816036999225616
1761132573428497000,8.055496826171876,-1.5597963333129883,0.39606595039367676,-0.03425082564353943
1761132573438496800,8.065496826171875,-1.3028755187988281,0.27962756156921387,-0.12600532174110413
1761132573448497000,8.075496826171875,-1.0874414443969727,0.23409438133239746,-0.2428339719772339
1761132573458496800,8.085496826171875,-0.803135871887207,0.1631619930267334,-0.20237456262111664
1761132573468497000,8.095496826171875,-0.5238885879516602,0.14998197555541992,-0.12862838804721832
1761132573478497800,8.105497802734375,-0.27571582794189453,0.07902383804321289,-0.05180564522743225
1761132573488497700,8.11549755859375,-0.06979846954345703,0.03207683563232422,-0.03718796372413635
1761132573498497800,8.125497802734374,0.08431529998779297,-0.03198981285095215,-0.1117931455373764
1761132573508497700,8.13549755859375,0.20714759826660156,-0.057260751724243164,-0.1926615685224533
1761132573518497800,8.145497802734376,0.2827482223510742,-0.08690810203552246,-0.2958269715309143
1761132573528497700,8.15549755859375,0.3381385803222656,-0.07270574569702148,-0.4627922773361206
1761132573538497800,8.165497802734375,0.3117685317993164,-0.014244318008422852,-0.5832751989364624
1761132573548497700,8.17549755859375,0.3335838317871094,0.0651545524597168,-0.6344654560089111
1761132573558497800,8.185497802734375,0.35593223571777344,0.1697697639465332,-0.7350683212280273
1761132573568497700,8.19549755859375,0.3665151596069336,0.23144888877868652,-0.7679948210716248
1761132573578496800,8.205496826171874,0.47491931915283203,0.1681652069091797,-0.766582727432251
1761132573588497000,8.215496826171876,0.6013154983520508,0.0804600715637207,-0.8205104470252991
1761132573598496800,8.225496826171875,0.737971305847168,0.003489971160888672,-0.8593035340309143
1761132573608497000,8.235496826171875,0.8031797409057617,-0.1076207160949707,-0.8600512742996216
1761132573618496800,8.245496826171875,0.8496341705322266,-0.10237503051757812,-0.8436605930328369
1761132573628497000,8.255496826171875,0.9441261291503906,-0.03750777244567871,-0.7648135423660278
1761132573638497000,8.2654970703125,1.1676607131958008,-0.002507925033569336,-0.6451629400253296
1761132573648497000,8.275496826171874,1.4001541137695312,0.011277914047241211,-0.5589150190353394
1761132573658497000,8.2854970703125,1.4547452926635742,-0.09393310546875,-0.5294288992881775
1761132573668497000,8.295496826171876,1.3366889953613281,-0.22712063789367676,-0.473305881023407
1761132573678497500,8.30549755859375,1.1305503845214844,-0.30808329582214355,-0.3712892532348633
1761132573688497700,8.31549755859375,0.9755115509033203,-0.20616674423217773,-0.2024824023246765
1761132573698497500,8.32549755859375,0.9501056671142578,-0.009486198425292969,-0.08583492040634155
1761132573708497700,8.33549755859375,1.141310691833496,0.2072153091430664,0.020612239837646484
1761132573718497500,8.34549755859375,1.6476240158081055,0.23770451545715332,0.19243431091308594
1761132573738497500,8.36549755859375,3.1458139419555664,-0.27918100357055664,0.02263164520263672
1761132573748497700,8.37549755859375,3.8979625701904297,-0.5602962970733643,-0.013931572437286377
1761132573758497500,8.38549755859375,4.431613922119141,-0.7919750213623047,0.12130779027938843
1761132573768497700,8.39549755859375,4.63883113861084,-0.9476730823516846,0.33972448110580444
1761132573778496800,8.405496826171875,4.6237640380859375,-0.8896965980529785,0.31349384784698486
1761132573788497000,8.415496826171875,4.025252342224121,-1.1753596067428589,0.7793658375740051
1761132573798496800,8.425496826171875,3.7388439178466797,-1.0532617568969727,0.5957097411155701
1761132573808497000,8.435496826171875,3.2177934646606445,-0.9510809183120728,0.36257219314575195
1761132573818496800,8.445496826171874,2.3994626998901367,-1.0238944292068481,0.4719252586364746
1761132573828497000,8.455496826171874,1.4713916778564453,-1.1445651054382324,0.805786669254303
1761132573838496800,8.465496826171876,0.4353952407836914,-1.1542609930038452,1.0818586349487305
1761132573848497000,8.475496826171875,-0.3917264938354492,-1.0419752597808838,1.1888511180877686
1761132573858496800,8.485496826171875,-1.0745058059692383,-0.9057965278625488,1.183156967163086
1761132573868496600,8.49549658203125,-1.615607738494873,-0.8342564105987549,1.114247441291809
1761132573878497500,8.50549755859375,-1.9798040390014648,-0.8982985019683838,0.9437649250030518
1761132573888497700,8.51549755859375,-2.225090980529785,-0.9613332748413086,0.7437591552734375
1761132573898497800,8.525497802734375,-2.4143166542053223,-1.0087852478027344,0.5558844804763794
1761132573908497700,8.53549755859375,-2.4066967964172363,-1.0354177951812744,0.6034845113754272
1761132573918497800,8.545497802734374,-2.5363869667053223,-1.0465095043182373,0.38634374737739563
1761132573928497700,8.55549755859375,-2.5174379348754883,-0.9197072982788086,0.3721179664134979
1761132573938497500,8.56549755859375,-2.453899383544922,-0.7796831130981445,0.34025949239730835
1761132573948497700,8.57549755859375,-2.4857120513916016,-0.5264983177185059,0.37745213508605957
1761132573958497500,8.58549755859375,-2.453550338745117,-0.37896203994750977,0.401182621717453
1761132573968497700,8.59549755859375,-2.4704127311706543,-0.2498157024383545,0.45464420318603516
1761132573978496800,8.605496826171875,-2.503291606903076,-0.20488500595092773,0.4066658020019531
1761132573988496600,8.61549658203125,-2.512289524078369,-0.1633620262145996,0.2907247841358185
1761132573998496800,8.625496826171876,-2.490859031677246,-0.10479331016540527,0.15683898329734802
1761132574008496600,8.63549658203125,-2.3628835678100586,-0.006655216217041016,0.06709477305412292
1761132574018496800,8.645496826171875,-2.138803482055664,0.0995035171508789,0.033627986907958984
1761132574028496600,8.65549658203125,-1.9678926467895508,0.12220025062561035,-0.0015848875045776367
1761132574038496800,8.665496826171875,-1.7139439582824707,0.10018396377563477,0.003973186016082764
1761132574048496600,8.67549658203125,-1.457735538482666,0.02756214141845703,0.021627843379974365
1761132574058496800,8.685496826171875,-1.1243057250976562,0.012828826904296875,-0.023416727781295776
1761132574068496600,8.69549658203125,-0.7203445434570312,0.07638144493103027,-0.08524858951568604
1761132574078497500,8.70549755859375,-0.47974491119384766,0.16605234146118164,-0.1398986577987671
1761132574088497400,8.715497314453126,-0.3630809783935547,0.2140345573425293,-0.09467250108718872
1761132574098497500,8.72549755859375,-0.35231876373291016,0.21698403358459473,0.008921027183532715
1761132574108497700,8.73549755859375,-0.41069889068603516,0.29454660415649414,0.13995081186294556
1761132574118497500,8.74549755859375,-0.4591693878173828,0.4174349308013916,0.19642359018325806
1761132574128497700,8.75549755859375,-0.5747413635253906,0.5669677257537842,0.14476382732391357
1761132574138497500,8.76549755859375,-0.8038158416748047,0.6347181797027588,-0.04473310708999634
1761132574148497700,8.77549755859375,-0.8020153045654297,0.6333866119384766,-0.028239727020263672
1761132574158497500,8.78549755859375,-1.2297043800354004,0.5432479381561279,-0.5064000487327576
1761132574168497700,8.79549755859375,-1.0092277526855469,0.5748872756958008,-0.5834567546844482
1761132574178496800,8.805496826171876,-1.1081762313842773,0.814810037612915,-0.46569889783859253
1761132574188497000,8.815496826171875,-1.356917381286621,1.2290232181549072,-0.34478676319122314
1761132574198496800,8.825496826171875,-1.5613436698913574,1.4549529552459717,-0.1543598771095276
1761132574208496600,8.83549658203125,-1.4786162376403809,1.3849091529846191,0.3565997779369354
1761132574218496800,8.845496826171875,-1.261322021484375,1.2401275634765625,0.8434346318244934
