time,seconds_elapsed,z,y,x
1761132565466439700,0.093439697265625,-0.28787025809288025,0.3687335252761841,0.3038291037082672
1761132565496439800,0.123439697265625,-0.28787025809288025,0.3687335252761841,0.3038291037082672
1761132565506439700,0.133439697265625,-0.3263547718524933,0.09140071272850037,0.7149413824081421
1761132565516439800,0.143439697265625,-0.3214678466320038,0.04069889709353447,0.6141486167907715
1761132565526439700,0.153439697265625,-0.3251330256462097,0.051083605736494064,0.5316818356513977
1761132565536439800,0.163439697265625,-0.3306308090686798,0.11278099566698074,0.47853657603263855
1761132565546440000,0.17343994140625,-0.33918291330337524,0.18791742622852325,0.444938987493515
1761132565556439800,0.183439697265625,-0.3507893681526184,0.2569451928138733,0.4198935031890869
1761132565566440000,0.19343994140625,-0.3556762933731079,0.3082578778266907,0.3991240859031677
1761132565576437200,0.203437255859375,-0.3452915847301483,0.34368807077407837,0.3856850564479828
1761132565586437400,0.213437255859375,-0.3019201457500458,0.3583488166332245,0.37835466861724854
1761132565596437200,0.223437255859375,-0.24816401302814484,0.3119230568408966,0.3789655268192291
1761132565606437400,0.233437255859375,-0.17791450023651123,0.2673299014568329,0.3893502354621887
1761132565616437200,0.243437255859375,-0.1082758679986,0.263053834438324,0.41378483176231384
1761132565626437400,0.253437255859375,-0.062460970133543015,0.263053834438324,0.4369977116584778
1761132565636437200,0.263437255859375,-0.05268712714314461,0.24961480498313904,0.4473824203014374
1761132565646437400,0.273437255859375,-0.0887281745672226,0.23006711900234222,0.42416954040527344
1761132565656437500,0.2834375,-0.15653422474861145,0.19891299307346344,0.3740786015987396
1761132565666437400,0.293437255859375,-0.21334469318389893,0.2563343346118927,0.33315062522888184
1761132565676437500,0.3034375,-0.2396118938922882,0.391946405172348,0.3099377453327179
1761132565686437400,0.313437255859375,-0.24144448339939117,0.49212831258773804,0.28244882822036743
1761132565696437500,0.3234375,-0.21151208877563477,0.5067890882492065,0.25618159770965576
1761132565706437400,0.333437255859375,-0.16142113506793976,0.4493677318096161,0.2500729560852051
1761132565716437500,0.3434375,-0.10522153973579407,0.3326924741268158,0.26351198554039
1761132565726437400,0.353437255859375,-0.07040221989154816,0.1964695304632187,0.2781727612018585
1761132565736437000,0.36343701171875,-0.06490442901849747,0.036422841250896454,0.2592359483242035
1761132565746437000,0.37343701171875,-0.09056077152490616,-0.14133894443511963,0.18959729373455048
1761132565756437000,0.38343701171875,-0.1333213448524475,-0.30627256631851196,0.09491318464279175
1761132565766437000,0.39343701171875,-0.18280142545700073,-0.40706533193588257,0.0014508049935102463
1761132565776436200,0.403436279296875,-0.22861631214618683,-0.39851322770118713,-0.07246389240026474
1761132565786436400,0.413436279296875,-0.24205535650253296,-0.2384665161371231,-0.10178542137145996
1761132565796436200,0.423436279296875,-0.20112738013267517,0.05597052723169327,-0.07857254147529602
1761132565806436400,0.433436279296875,-0.12049316614866257,0.3638466000556946,-0.05841398984193802
1761132565816436200,0.443436279296875,0.009621127508580685,0.643622875213623,-0.16898059844970703
1761132565826436400,0.453436279296875,0.08231408894062042,0.6191883087158203,-0.33513593673706055
1761132565836436200,0.463436279296875,0.13484850525856018,0.47685667872428894,-0.5293911099433899
1761132565846436400,0.473436279296875,0.17333301901817322,0.2111303061246872,-0.7236462235450745
1761132565856436200,0.483436279296875,0.22159136831760406,-0.13156510889530182,-0.8617017865180969
1761132565866436400,0.493436279296875,0.29856038093566895,-0.3508657217025757,-0.8873581290245056
1761132565876437200,0.503437255859375,0.4024074673652649,-0.35208746790885925,-0.7822893261909485
1761132565886437000,0.51343701171875,0.5196936130523682,-0.1938733607530594,-0.5721516609191895
1761132565896437200,0.523437255859375,0.660192608833313,0.01687515154480934,-0.3125339448451996
1761132565906437000,0.53343701171875,0.7976372838020325,0.18913915753364563,-0.0846811980009079
1761132565916437200,0.543437255859375,0.9130908250808716,0.2764928936958313,0.0466548316180706
1761132565926437000,0.55343701171875,1.0065531730651855,0.21723894774913788,0.08147415518760681
1761132565936437200,0.563437255859375,1.0725266933441162,0.016264287754893303,0.06864598393440247
1761132565946437000,0.57343701171875,1.1281154155731201,-0.25068381428718567,0.06131559982895851
1761132565956437200,0.583437255859375,1.1763737201690674,-0.525573194026947,0.10163270682096481
1761132565966437000,0.59343701171875,1.2136365175247192,-0.7350999712944031,0.20547980070114136
1761132565976436200,0.603436279296875,1.2435688972473145,-0.8365035653114319,0.3606395721435547
1761132565986436400,0.613436279296875,1.2533427476882935,-0.820010244846344,0.5420665740966797
1761132565996436200,0.623436279296875,1.2264647483825684,-0.7076110243797302,0.7204391956329346
1761132566006436400,0.633436279296875,1.1714868545532227,-0.506636381149292,0.8817076086997986
1761132566016436200,0.643436279296875,1.108567714691162,-0.25740334391593933,1.0228174924850464
1761132566026436400,0.653436279296875,1.0438159704208374,0.01992947794497013,1.1358275413513184
1761132566036436500,0.6634365234375,0.9485210180282593,0.2709950804710388,1.2042444944381714
1761132566046436600,0.6734365234375,0.7512115240097046,0.5232824683189392,1.2066879272460938
1761132566056436500,0.6834365234375,0.6217080950737,0.5672647356987,1.1339949369430542
1761132566066436600,0.6934365234375,0.49037206172943115,0.4939609169960022,1.0160980224609375
1761132566076437200,0.703437255859375,0.37980547547340393,0.3736204504966736,0.8872054219245911
1761132566086437400,0.713437255859375,0.31261029839515686,0.25938865542411804,0.7638106346130371
1761132566096437200,0.723437255859375,0.2802344262599945,0.17081318795681,0.6465244889259338
1761132566106437400,0.733437255859375,0.2551889419555664,0.1146135926246643,0.5274057984352112
1761132566116437200,0.743437255859375,0.22220222651958466,0.08407033234834671,0.39729148149490356
1761132566126437400,0.753437255859375,0.19593502581119537,0.0694095641374588,0.2592359483242035
1761132566136436500,0.7634365234375,0.17638733983039856,0.04375322163105011,0.10468703508377075
1761132566146436400,0.773436279296875,0.154396191239357,-0.05948300287127495,-0.07551821321249008
1761132566156436500,0.7834365234375,0.1238529309630394,-0.19631682336330414,-0.24839307367801666
1761132566166436400,0.793436279296875,0.09147707372903824,-0.2482403665781021,-0.36445748805999756
1761132566176435700,0.803435791015625,0.048105638474226,-0.26717719435691833,-0.4371504485607147
1761132566186435600,0.813435546875,-0.00015271631127689034,-0.32276591658592224,-0.501902163028717
1761132566196435500,0.823435546875,-0.050854530185461044,-0.39240455627441406,-0.5715407729148865
1761132566206435600,0.833435546875,-0.10522153973579407,-0.43883031606674194,-0.6460663676261902
1761132566216435500,0.843435546875,-0.17241671681404114,-0.444938987493515,-0.7230353951454163
1761132566226435600,0.853435546875,-0.2542726695537567,-0.435165137052536,-0.7908414006233215
1761132566236435500,0.863435546875,-0.3306308090686798,-0.4296673536300659,-0.8336020112037659
1761132566246435600,0.873435546875,-0.3819434940814972,-0.4314999282360077,-0.8507062196731567
1761132566256435500,0.883435546875,-0.4008803069591522,-0.4302782118320465,-0.8488736152648926
1761132566266435600,0.893435546875,-0.39538252353668213,-0.406454473733902,-0.8390997648239136
1761132566276436500,0.9034365234375,-0.37888917326927185,-0.3337614834308624,-0.8464301824569702
1761132566286436400,0.913436279296875,-0.3776674270629883,-0.3343723714351654,-0.8916341662406921
1761132566296436500,0.9234365234375,-0.3966042697429657,-0.42416954040527344,-0.9600511193275452
1761132566306436400,0.933436279296875,-0.44180828332901,-0.5500078201293945,-1.0235810279846191
1761132566316436500,0.9434365234375,-0.5157229900360107,-0.6037639379501343,-1.0571786165237427
1761132566326436400,0.953436279296875,-0.593302845954895,-0.5078580975532532,-1.0614547729492188
1761132566336436500,0.9634365234375,-0.6537785530090332,-0.27084237337112427,-1.0614547729492188
1761132566346436600,0.9734365234375,-0.6885978579521179,0.015653422102332115,-1.0938305854797363
1761132566356436500,0.9834365234375,-0.7136433124542236,0.25999951362609863,-1.1872929334640503
1761132566366436600,0.9934365234375,-0.7374670505523682,0.44570255279541016,-1.3253484964370728
1761132566376435700,1.003435791015625,-0.7698429226875305,0.5544365644454956,-1.470123529434204
1761132566386435600,1.013435546875,-0.8016079068183899,0.5813146233558655,-1.5727488994598389
1761132566396435700,1.023435791015625,-0.8089383244514465,0.5055673718452454,-1.6100116968154907
1761132566406435600,1.033435546875,-0.7900014519691467,0.3284164369106293,-1.5770249366760254
1761132566416435700,1.043435791015625,-0.7612907886505127,0.09689849615097046,-1.4640148878097534
1761132566426435600,1.053435546875,-0.7185302376747131,-0.08513934165239334,-1.2599859237670898
1761132566436436500,1.0634365234375,-0.6452264189720154,-0.13950635492801666,-0.9612728357315063
1761132566446436600,1.0734365234375,-0.5285511612892151,-0.057039543986320496,-0.586201548576355
1761132566456436500,1.0834365234375,-0.36483925580978394,0.14821118116378784,-0.16287194192409515
1761132566466436400,1.093436279296875,-0.17180584371089935,0.43592870235443115,0.26106852293014526
1761132566476437200,1.103437255859375,0.024892758578062057,0.7462482452392578,0.6336963176727295
1761132566486437400,1.113437255859375,0.1843285858631134,0.966770589351654,0.8878162503242493
1761132566496437200,1.123437255859375,0.2845104932785034,0.9521098136901855,1.0032697916030884
1761132566506437400,1.133437255859375,0.32788193225860596,0.5739842653274536,1.0277043581008911
1761132566516437200,1.143437255859375,0.3162754774093628,0.23739750683307648,1.0295369625091553
1761132566526437400,1.153437255859375,0.2496911734342575,-0.08575020730495453,1.0448086261749268
1761132566536437200,1.163437255859375,0.12507465481758118,-0.32276591658592224,1.0796279907226562
1761132566546437400,1.173437255859375,-0.035582900047302246,-0.43760859966278076,1.1217776536941528
1761132566556437200,1.183437255859375,-0.20112738013267517,-0.44310638308525085,1.1572078466415405
1761132566566437400,1.193437255859375,-0.3459024429321289,-0.3612504303455353,1.1682034730911255
1761132566576436500,1.2034365234375,-0.46441030502319336,-0.20547980070114136,1.1498774290084839
1761132566586436600,1.2134365234375,-0.5419901609420776,-0.00022907447419129312,1.107116937637329
1761132566596436500,1.2234365234375,-0.5761986374855042,0.18730655312538147,1.0374782085418701
1761132566606436600,1.2334365234375,-0.5755877494812012,0.30337095260620117,0.9464593529701233
1761132566616436500,1.2434365234375,-0.5493205785751343,0.3785073757171631,0.8468883037567139
1761132566626436600,1.2534365234375,-0.5077817440032959,0.40477457642555237,0.7418195009231567
1761132566636436500,1.2634365234375,-0.4662429094314575,0.38033998012542725,0.6404158473014832
1761132566646436400,1.273436279296875,-0.4308127164840698,0.3271946907043457,0.5500078201293945
1761132566656436500,1.2834365234375,-0.41493022441864014,0.25816693902015686,0.4669301211833954
1761132566666436600,1.2934365234375,-0.413097620010376,0.1653154045343399,0.39362630248069763
1761132566676437200,1.303437255859375,-0.42042800784111023,0.05902485549449921,0.34170275926589966
1761132566686437400,1.313437255859375,-0.44180828332901,-0.016111571341753006,0.32643112540245056
1761132566696437500,1.3234375,-0.47479501366615295,-0.03810271993279457,0.34842225909233093
1761132566706437400,1.333437255859375,-0.5145012736320496,-0.02038762718439102,0.38751763105392456
1761132566716437200,1.343437255859375,-0.5474879741668701,-0.036880988627672195,0.40889793634414673
1761132566726437400,1.353437255859375,-0.5670356750488281,-0.08758280426263809,0.3991240859031677
1761132566736437500,1.3634375,-0.5597052574157715,-0.1981494128704071,0.31787899136543274
1761132566746437400,1.373437255859375,-0.5401576161384583,-0.2934443950653076,0.2244166135787964
1761132566756437500,1.3834375,-0.5138903856277466,-0.3850741684436798,0.11385001242160797
1761132566766437400,1.393437255859375,-0.48517972230911255,-0.45959973335266113,0.0069485921412706375
1761132566776436500,1.4034365234375,-0.46013423800468445,-0.4712061882019043,-0.08284860104322433
1761132566786436600,1.4134365234375,-0.4534147381782532,-0.42722389101982117,-0.16165021061897278
1761132566806436600,1.4334365234375,-0.4772384762763977,-0.18226692080497742,-0.24228443205356598
1761132566816436500,1.4434365234375,-0.47479501366615295,-0.008781188167631626,-0.23434318602085114
1761132566826436600,1.4534365234375,-0.4271475374698639,0.15859588980674744,-0.1952477991580963
1761132566836436500,1.4634365234375,-0.33429601788520813,0.3119230568408966,-0.1396590620279312
1761132566846436600,1.4734365234375,-0.2200642079114914,0.3766747713088989,-0.1048397496342659
1761132566856436500,1.4834365234375,-0.11988230794668198,0.3278055489063263,-0.09689849615097046
1761132566866436600,1.4934365234375,-0.03985895588994026,0.18975001573562622,-0.11950051039457321
1761132566879472400,1.506472412109375,0.02733621932566166,-0.011224648915231228,-0.17447838187217712
1761132566889472500,1.516472412109375,0.08231408894062042,-0.21586450934410095,-0.25450173020362854
1761132566899472400,1.526472412109375,0.12446379661560059,-0.3765220642089844,-0.35529449582099915
1761132566909472500,1.536472412109375,0.15073099732398987,-0.44921502470970154,-0.46219590306282043
1761132566919472400,1.546472412109375,0.17516560852527618,-0.3612504303455353,-0.5458844304084778
1761132566929472500,1.556472412109375,0.21242839097976685,-0.12851077318191528,-0.6014732122421265
1761132566939472600,1.56647265625,0.25335636734962463,0.10850493609905243,-0.6552293300628662
1761132566949472800,1.57647265625,0.29184088110923767,0.22823452949523926,-0.7309766411781311
1761132566959472600,1.58647265625,0.3352122902870178,0.2465604841709137,-0.8030587434768677
1761132566969472800,1.59647265625,0.42867469787597656,0.21846067905426025,-0.8421540856361389
1761132566979472100,1.60647216796875,0.48915034532546997,0.12866349518299103,-0.8183303475379944
1761132566989472300,1.61647216796875,0.5435173511505127,0.026648996397852898,-0.7352526783943176
1761132566999472000,1.62647216796875,0.6052147150039673,0.00038179077091626823,-0.5690973401069641
1761132567009472000,1.636471923828125,0.6748533844947815,0.07124216109514236,-0.3522401750087738
1761132567019472100,1.64647216796875,0.7451028823852539,0.17447838187217712,-0.13293954730033875
1761132567029472000,1.656471923828125,0.8043568134307861,0.26488643884658813,0.04787656292319298
1761132567039472000,1.66647216796875,0.8562803864479065,0.2911536395549774,0.15355625748634338
1761132567049472000,1.676471923828125,0.8831584453582764,0.22334760427474976,0.1627192348241806
1761132567059472100,1.68647216796875,0.8770498037338257,0.0541379339993,0.09063713252544403
1761132567069472000,1.696471923828125,0.850782573223114,-0.19081902503967285,-0.024205535650253296
1761132567079473000,1.706472900390625,0.8104654550552368,-0.44432809948921204,-0.13843733072280884
1761132567089473000,1.71647314453125,0.7579310536384583,-0.6165921092033386,-0.20441077649593353
1761132567099473000,1.726472900390625,0.6998988389968872,-0.6691265106201172,-0.20807597041130066
1761132567109473000,1.73647314453125,0.6278167366981506,-0.6086508631706238,-0.14760030806064606
1761132567119473000,1.746472900390625,0.5361869931221008,-0.4602105915546417,-0.023594669997692108
1761132567129473000,1.75647314453125,0.4427245855331421,-0.21525363624095917,0.17188221216201782
1761132567139473000,1.766472900390625,0.37797287106513977,0.0999528244137764,0.42905646562576294
1761132567149473000,1.77647314453125,0.3455969989299774,0.4182136058807373,0.7137196660041809
1761132567159473000,1.786472900390625,0.34376442432403564,0.6857725977897644,0.99166339635849
1761132567169473000,1.79647314453125,0.3706424832344055,0.8452084064483643,1.228068232536316
1761132567179473000,1.806472900390625,0.39996400475502014,0.8849146366119385,1.3948343992233276
1761132567189473000,1.81647314453125,0.4225660264492035,0.8537605404853821,1.4944055080413818
1761132567199473000,1.826472900390625,0.41951170563697815,0.7401396036148071,1.5457181930541992
1761132567209473000,1.83647314453125,0.3761402666568756,0.6424011588096619,1.5255595445632935
1761132567219473000,1.846472900390625,0.2967278063297272,0.5245041847229004,1.4565317630767822
1761132567229473000,1.85647314453125,0.19104810059070587,0.3742313086986542,1.3361914157867432
1761132567239472600,1.86647265625,0.07559457421302795,0.21723894774913788,1.1785881519317627
1761132567249472500,1.876472412109375,-0.030695978552103043,0.10422888398170471,1.0118218660354614
1761132567259472600,1.88647265625,-0.13148874044418335,0.013820826075971127,0.8371144533157349
1761132567269472500,1.896472412109375,-0.22311852872371674,-0.04726569727063179,0.6624069809913635
1761132567279473200,1.90647314453125,-0.28237244486808777,-0.07414376735687256,0.5005277395248413
1761132567289473300,1.916473388671875,-0.3171917796134949,-0.10163270682096481,0.3404810130596161
1761132567299473200,1.92647314453125,-0.35262197256088257,-0.1724930703639984,0.17004960775375366
1761132567309473300,1.936473388671875,-0.3917173445224762,-0.2079232633113861,0.030161472037434578
1761132567319473200,1.94647314453125,-0.422871470451355,-0.1724930703639984,-0.060246583074331284
1761132567329473300,1.956473388671875,-0.4521929919719696,-0.12301298975944519,-0.1256091594696045
1761132567339473200,1.96647314453125,-0.4870123267173767,-0.11385001242160797,-0.19402606785297394
1761132567349473300,1.976473388671875,-0.5303837656974792,-0.15538884699344635,-0.27893635630607605
1761132567359473200,1.98647314453125,-0.5676465034484863,-0.23235787451267242,-0.3681226670742035
1761132567369473300,1.996473388671875,-0.5829181671142578,-0.3307071626186371,-0.4597524404525757
1761132567379472400,2.006472412109375,-0.5780312418937683,-0.44371724128723145,-0.557490885257721
1761132567399472400,2.026472412109375,-0.5731443166732788,-0.6654613018035889,-0.7731263041496277
1761132567409472300,2.03647216796875,-0.594524621963501,-0.76136714220047,-0.8952993750572205
1761132567419472400,2.046472412109375,-0.6305656433105469,-0.8963683843612671,-1.0602329969406128
1761132567429472300,2.05647216796875,-0.7283040881156921,-1.1889728307724,-1.3839915990829468
1761132567439472400,2.066472412109375,-0.8345946669578552,-1.3575716018676758,-1.6020704507827759
1761132567449472300,2.07647216796875,-0.9634872078895569,-1.3893365859985352,-1.762727975845337
1761132567459472400,2.086472412109375,-1.0917688608169556,-1.2537245750427246,-1.8464165925979614
1761132567469472300,2.09647216796875,-1.1779009103775024,-1.002048134803772,-1.8476382493972778
1761132567479473200,2.10647314453125,-1.2041680812835693,-0.687452495098114,-1.7871626615524292
1761132567499473200,2.12647314453125,-1.0997101068496704,-0.07964155822992325,-1.5959618091583252
1761132567509473000,2.13647314453125,-0.9860892295837402,0.180587038397789,-1.4866169691085815
1761132567519473200,2.14647314453125,-0.8480336666107178,0.3723987340927124,-1.3919328451156616
1761132567529473000,2.15647314453125,-0.7099781036376953,0.45120033621788025,-1.329013705253601
1761132567539473200,2.16647314453125,-0.6012440919876099,0.43653959035873413,-1.3051899671554565
1761132567549473000,2.17647314453125,-0.5151121020317078,0.44570255279541016,-1.2978595495224
1761132567559473200,2.18647314453125,-0.44974952936172485,0.5849798321723938,-1.2856422662734985
1761132567569473000,2.19647314453125,-0.39416080713272095,0.8959102630615234,-1.2654837369918823
1761132567579472400,2.206472412109375,-0.33857205510139465,1.3674981594085693,-1.2447142601013184
1761132567589472300,2.21647216796875,-0.28359419107437134,1.8122080564498901,-1.2483794689178467
1761132567599472400,2.226472412109375,-0.22861631214618683,2.030897855758667,-1.2844204902648926
1761132567609472300,2.23647216796875,-0.10094548016786575,2.044947862625122,-1.2825878858566284
1761132567619472400,2.246472412109375,0.15195272862911224,1.9062813520431519,-1.1872929334640503
1761132567629472300,2.25647216796875,0.48609602451324463,1.6674330234527588,-0.9960921406745911
1761132567639472400,2.266472412109375,0.8275696635246277,1.3949871063232422,-0.7224245071411133
1761132567649472300,2.27647216796875,1.115287184715271,1.1036044359207153,-0.3943898677825928
1761132567659472400,2.286472412109375,1.3547463417053223,0.7297548651695251,0.10285443812608719
1761132567669472300,2.29647216796875,1.4036155939102173,0.6185774207115173,0.4150065779685974
1761132567679473200,2.30647314453125,1.381624460220337,0.633849024772644,0.6917285323143005
1761132567689473300,2.316473388671875,1.3297009468078613,0.6918812394142151,0.9116400480270386
1761132567699473200,2.32647314453125,1.2661709785461426,0.757854700088501,1.058247685432434
1761132567709473300,2.336473388671875,1.1971431970596313,0.8232172727584839,1.1284971237182617
1761132567719473200,2.34647314453125,1.1323914527893066,0.8757516741752625,1.1315515041351318
1761132567729473300,2.356473388671875,1.0755809545516968,0.9172905087471008,1.0790170431137085
1761132567739473000,2.366472900390625,1.0352638959884644,0.9594402313232422,0.9953285455703735
1761132567749472800,2.37647265625,1.0071641206741333,0.9887617826461792,0.8975901007652283
1761132567759473000,2.386472900390625,0.9888381361961365,0.9960921406745911,0.7974082231521606
1761132567769472800,2.39647265625,0.9686795473098755,0.9624945521354675,0.6990588903427124
1761132567779472000,2.406471923828125,0.9338602423667908,0.8849146366119385,0.5988770127296448
1761132567789472000,2.416471923828125,0.8752171993255615,0.7719045877456665,0.49441906809806824
1761132567799471900,2.426471923828125,0.7835873961448669,0.5874232649803162,0.3850741684436798
1761132567809472000,2.436471923828125,0.6730207800865173,0.3766747713088989,0.29222264885902405
1761132567819472000,2.446471923828125,0.5618433356285095,0.1915826052427292,0.23052527010440826
1761132567829472000,2.456471923828125,0.45982882380485535,0.0034361169673502445,0.1834886521100998
1761132567839471900,2.466471923828125,0.3718642294406891,-0.17432567477226257,0.13950635492801666
1761132567849472000,2.476471923828125,0.30833423137664795,-0.2745075821876526,0.122402124106884
1761132567859472000,2.486471923828125,0.2790127098560333,-0.28244882822036743,0.13400855660438538
1761132567869472000,2.496471923828125,0.27290403842926025,-0.2598468065261841,0.14133894443511963
1761132567879473000,2.506472900390625,0.2692388594150543,-0.3105486333370209,0.10346530377864838
1761132567889472800,2.51647265625,0.26190847158432007,-0.4205043613910675,0.036880988627672195
1761132567899473000,2.526472900390625,0.24663683772087097,-0.49869510531425476,-0.0290924571454525
1761132567909472800,2.53647265625,0.23808473348617554,-0.5005277395248413,-0.056581392884254456
1761132567919473000,2.546472900390625,0.23197607696056366,-0.45349109172821045,-0.08407033234834671
1761132567929472800,2.55647265625,0.21303924918174744,-0.405843585729599,-0.11155926436185837
1761132567939473000,2.566472900390625,0.19776763021945953,-0.33253976702690125,-0.09750936180353165
1761132567949472800,2.57647265625,0.2050980031490326,-0.1737148016691208,0.00022907447419129312
1761132567959473000,2.586472900390625,0.23136521875858307,0.03153591975569725,0.15355625748634338
1761132567969472800,2.59647265625,0.26313021779060364,0.19769126176834106,0.29588785767555237
1761132567979472000,2.606471923828125,0.2900082767009735,0.23495404422283173,0.3716351389884949
1761132567989472000,2.616471923828125,0.3101668357849121,0.15615242719650269,0.3789655268192291
1761132567999471900,2.626471923828125,0.3260493278503418,0.05902485549449921,0.36308303475379944
1761132568009472000,2.636471923828125,0.3309362530708313,-0.057650405913591385,0.33131805062294006
1761132568019472000,2.646471923828125,0.3303253948688507,-0.20609065890312195,0.2793944776058197
1761132568029472000,2.656471923828125,0.3321579694747925,-0.3704134225845337,0.21586450934410095
1761132568039472400,2.666472412109375,0.3309362530708313,-0.5536729693412781,0.15661057829856873
1761132568049472300,2.67647216796875,0.3199406862258911,-0.677067756652832,0.11629346758127213
1761132568059472400,2.686472412109375,0.30772337317466736,-0.6355289220809937,0.1175151988863945
1761132568069472300,2.69647216796875,0.30833423137664795,-0.4369977116584778,0.14622586965560913
1761132568079473200,2.70647314453125,0.3217732608318329,-0.18654297292232513,0.1676061451435089
1761132568089473300,2.716473388671875,0.32849279046058655,-0.0069485921412706375,0.13339769840240479
1761132568099473200,2.72647314453125,0.32299500703811646,0.030925052240490913,0.013057244941592216
1761132568109473300,2.736473388671875,0.31261029839515686,-0.031383201479911804,-0.18303050100803375
1761132568119473200,2.74647314453125,0.28756481409072876,-0.10285443812608719,-0.4072180390357971
1761132568129473300,2.756473388671875,0.2295326143503189,-0.23174700140953064,-0.6772204637527466
1761132568139473200,2.76647314453125,0.2002110779285431,-0.3465896546840668,-0.7499134540557861
1761132568149473300,2.776473388671875,0.1794416606426239,-0.47303876280784607,-0.7346417903900146
1761132568159473200,2.78647314453125,0.18555031716823578,-0.48892128467559814,-0.6069709658622742
1761132568169473300,2.796473388671875,0.22159136831760406,-0.37774381041526794,-0.37484219670295715
1761132568179472400,2.806472412109375,0.2857322096824646,-0.1779908537864685,-0.06879869848489761
1761132568189472500,2.816472412109375,0.375529408454895,0.005879578180611134,0.24762949347496033
1761132568199472400,2.826472412109375,0.46593746542930603,0.08345946669578552,0.49502992630004883
1761132568209472300,2.83647216796875,0.5416847467422485,0.05535966157913208,0.6355289220809937
1761132568219472400,2.846472412109375,0.5881105065345764,-0.04421137273311615,0.6599635481834412
1761132568229472300,2.85647216796875,0.5905539989471436,-0.20975585281848907,0.5719989538192749
1761132568239472400,2.866472412109375,0.5575672388076782,-0.3740786015987396,0.4168391823768616
1761132568249472300,2.87647216796875,0.48609602451324463,-0.5017494559288025,0.23541219532489777
1761132568259472400,2.886472412109375,0.36942076683044434,-0.6025422215461731,0.052152618765830994
1761132568269472300,2.89647216796875,0.21303924918174744,-0.7076110243797302,-0.10545061528682709
1761132568279473200,2.90647314453125,0.04382958263158798,-0.7888560891151428,-0.19463694095611572
1761132568289473300,2.916473388671875,-0.078343465924263,-0.800462543964386,-0.19769126176834106
1761132568299472600,2.92647265625,-0.14798210561275482,-0.686841607093811,-0.08223773539066315
1761132568309472800,2.93647265625,-0.1699732542037964,-0.5078580975532532,0.11507174372673035
1761132568319472600,2.94647265625,-0.15164729952812195,-0.2983313202857971,0.35819610953330994
1761132568329472800,2.95647265625,-0.07590000331401825,-0.09857837855815887,0.6165921092033386
1761132568339472600,2.96647265625,0.027947084978222847,0.030314188450574875,0.8658251166343689
1761132568349472800,2.97647265625,0.13179416954517365,0.07246389240026474,1.0906234979629517
1761132568359472600,2.98647265625,0.23686300218105316,0.048029281198978424,1.3532955646514893
1761132568369472800,2.99647265625,0.25763240456581116,-0.007559457328170538,1.4553101062774658
1761132568379472000,3.006471923828125,0.2393064647912979,-0.04237877577543259,1.4931837320327759
1761132568389471700,3.0164716796875,0.19288070499897003,-0.06742425262928009,1.464473009109497
1761132568399471900,3.026471923828125,0.11224649101495743,-0.11629346758127213,1.3642911911010742
1761132568409471700,3.0364716796875,0.009010262787342072,-0.1627192348241806,1.2121857404708862
1761132568419472000,3.046471923828125,-0.10399980843067169,-0.19692768156528473,1.0283153057098389
1761132568429471700,3.0564716796875,-0.22678372263908386,-0.2439643144607544,0.8248971700668335
1761132568439471900,3.066471923828125,-0.35750889778137207,-0.30566170811653137,0.6233116388320923
1761132568449471700,3.0764716796875,-0.47601673007011414,-0.3496440052986145,0.4406629204750061
1761132568459472000,3.086471923828125,-0.5890268087387085,-0.39851322770118713,0.26229026913642883
1761132568469471700,3.0964716796875,-0.7026477456092834,-0.4712061882019043,0.082085020840168
1761132568479472600,3.10647265625,-0.7863363027572632,-0.4767039716243744,-0.05780312418937683
1761132568489472500,3.116472412109375,-0.8400924205780029,-0.41195225715637207,-0.15737415850162506
1761132568499472600,3.12647265625,-0.8859072923660278,-0.354530930519104,-0.24472789466381073
1761132568509472500,3.136472412109375,-0.9402743577957153,-0.34720054268836975,-0.3216969072818756
1761132568519472600,3.14647265625,-0.9879218339920044,-0.32154420018196106,-0.36567920446395874
1761132568529472500,3.156472412109375,-1.0154107809066772,-0.31787899136543274,-0.3876703679561615
1761132568539472400,3.166472412109375,-1.020297646522522,-0.40828704833984375,-0.42065706849098206
1761132568569472300,3.19647216796875,-0.9298896193504333,-0.8688794374465942,-0.6014732122421265
1761132568579471400,3.206471435546875,-0.8828529715538025,-0.8933140635490417,-0.6662248969078064
1761132568589471500,3.216471435546875,-0.8315402865409851,-0.9098074436187744,-0.8097782135009766
1761132568599471900,3.226471923828125,-0.8242099285125732,-0.9317985773086548,-0.9398925304412842
1761132568609471700,3.2364716796875,-0.8712465763092041,-0.9800569415092468,-1.119486927986145
1761132568619472000,3.246471923828125,-0.9622654914855957,-1.095510482788086,-1.3589460849761963
1761132568629471700,3.2564716796875,-1.0771081447601318,-1.2030227184295654,-1.610622525215149
1761132568639471900,3.266471923828125,-1.1968377828598022,-1.2580006122589111,-1.832366704940796
1761132568649471700,3.2764716796875,-1.3012956380844116,-1.2060770988464355,-1.9826395511627197
1761132568659472000,3.286471923828125,-1.3605495691299438,-1.000826358795166,-2.033952236175537
1761132568669471700,3.2964716796875,-1.3556627035140991,-0.6917285323143005,-1.9911916255950928
1761132568679472600,3.30647265625,-1.296408772468567,-0.3856850564479828,-1.8861228227615356
1761132568689472800,3.31647265625,-1.1846203804016113,-0.15355625748634338,-1.7492890357971191
1761132568699472600,3.32647265625,-1.030071496963501,0.01992947794497013,-1.594129204750061
1761132568709472800,3.33647265625,-0.8529205918312073,0.15431983768939972,-1.4383585453033447
1761132568719472600,3.34647265625,-0.6745479702949524,0.23800836503505707,-1.3021355867385864
1761132568729472800,3.35647265625,-0.5145012736320496,0.2459496259689331,-1.1872929334640503
1761132568739472000,3.366471923828125,-0.3660610020160675,0.24045182764530182,-1.0565677881240845
1761132568749472000,3.376471923828125,-0.19807305932044983,0.301538348197937,-0.8788059949874878
1761132568759471900,3.386471923828125,-0.01970040425658226,0.4884631335735321,-0.7120398283004761
1761132568769472000,3.396471923828125,0.2393064647912979,0.6882160305976868,-0.5532148480415344
1761132568819472000,3.446471923828125,1.0389291048049927,0.9221774339675903,0.5115233063697815
1761132568829471700,3.4564716796875,0.8886561989784241,0.6955464482307434,0.6159812211990356
1761132568839471900,3.466471923828125,0.7432702779769897,0.4695262908935547,0.76136714220047
1761132568849472000,3.476471923828125,0.6113234162330627,0.2874884605407715,0.923246443271637
1761132568859472000,3.486471923828125,0.48487427830696106,0.19952386617660522,1.0881800651550293
1761132568869472300,3.49647216796875,0.35964691638946533,0.2166280895471573,1.2360094785690308
1761132568879473200,3.50647314453125,0.24297164380550385,0.29909488558769226,1.3563499450683594
1761132568889473000,3.51647314453125,0.13973543047904968,0.4090506434440613,1.4418710470199585
1761132568899473200,3.52647314453125,0.07498370856046677,0.5287802219390869,1.4968489408493042
1761132568909473000,3.53647314453125,0.04932736977934837,0.6387359499931335,1.5218944549560547
1761132568919473200,3.54647314453125,0.04505131021142006,0.7340309619903564,1.5084553956985474
1761132568929473000,3.55647314453125,0.06215553730726242,0.815276026725769,1.4485905170440674
1761132568939473200,3.56647314453125,0.09086620807647705,0.8525388240814209,1.3459652662277222
1761132568949473300,3.576473388671875,0.11652254313230515,0.8653669953346252,1.210353136062622
1761132568959473200,3.58647314453125,0.13484850525856018,0.8812494874000549,1.0576368570327759
1761132568969473000,3.59647314453125,0.12629638612270355,0.8635343909263611,0.8872054219245911
1761132568979472100,3.60647216796875,0.09636399149894714,0.8018369674682617,0.69661545753479
1761132568989472300,3.61647216796875,0.0529925599694252,0.6937138438224792,0.49808424711227417
1761132568999472000,3.62647216796875,0.016951510682702065,0.5477170348167419,0.315435528755188
1761132569009472300,3.63647216796875,0.005955935921519995,0.3772856593132019,0.1633300930261612
1761132569019472100,3.64647216796875,0.0022907445672899485,0.2166280895471573,0.04787656292319298
1761132569029472300,3.65647216796875,-0.032528575509786606,0.06146831437945366,-0.0290924571454525
1761132569039473200,3.66647314453125,-0.11988230794668198,-0.13584116101264954,-0.07612907886505127
1761132569049473000,3.67647314453125,-0.342237263917923,-0.5280166268348694,-0.1451568603515625
1761132569059473200,3.68647314453125,-0.5090034604072571,-0.8224536776542664,-0.20196732878684998
1761132569069473000,3.69647314453125,-0.6238461136817932,-1.1022299528121948,-0.2459496259689331
1761132569079473200,3.70647314453125,-0.7386888265609741,-1.3099241256713867,-0.2819906771183014
1761132569089473000,3.71647314453125,-0.868803083896637,-1.4724143743515015,-0.30520355701446533
1761132569099473200,3.72647314453125,-0.9201157689094543,-1.5842026472091675,-0.2819906771183014
1761132569109473000,3.73647314453125,-0.8846855759620667,-1.573207139968872,-0.20746511220932007
1761132569119473200,3.74647314453125,-0.77472984790802,-1.4156038761138916,-0.0999528244137764
1761132569129473000,3.75647314453125,-0.5994115471839905,-1.1718685626983643,0.0264962799847126
1761132569139473200,3.76647314453125,-0.3758348524570465,-0.8951466679573059,0.16638441383838654
1761132569149473000,3.77647314453125,-0.15653422474861145,-0.5774967074394226,0.2995530366897583
1761132569159473200,3.78647314453125,0.023060163483023643,-0.3142138123512268,0.4143957197666168
1761132569169473000,3.79647314453125,0.19043724238872528,-0.16699528694152832,0.5121341347694397
1761132569179472400,3.806472412109375,0.3572034537792206,-0.1071304902434349,0.5640577077865601
1761132569189472300,3.81647216796875,0.4524984359741211,-0.09124799817800522,0.5493969321250916
1761132569199472400,3.826472412109375,0.46043968200683594,-0.1682170182466507,0.45288023352622986
1761132569209472300,3.83647216796875,0.40301835536956787,-0.3038291037082672,0.2781727612018585
1761132569219472400,3.846472412109375,0.32971450686454773,-0.40828704833984375,0.054596081376075745
1761132569229472300,3.85647216796875,0.2698497176170349,-0.4296673536300659,-0.19891299307346344
1761132569239472400,3.866472412109375,0.21792617440223694,-0.37224599719047546,-0.4689154326915741
1761132569249472300,3.87647216796875,0.18860463798046112,-0.2293035387992859,-0.7175375819206238
1761132569259472400,3.886472412109375,0.19532416760921478,0.03153591975569725,-0.9081275463104248
1761132569269472300,3.89647216796875,0.23747386038303375,0.39133554697036743,-1.0388526916503906
1761132569279473200,3.90647314453125,0.32360586524009705,0.8177194595336914,-1.1775190830230713
1761132569289473300,3.916473388671875,0.35475999116897583,0.8562039732933044,-1.2667053937911987
1761132569299473200,3.92647314453125,0.35292738676071167,0.7309766411781311,-1.3693307638168335
1761132569309473300,3.936473388671875,0.32910364866256714,0.5690973401069641,-1.4634040594100952
1761132569319473200,3.94647314453125,0.304669052362442,0.3766747713088989,-1.5385404825210571
1761132569329473300,3.956473388671875,0.2845104932785034,0.11217013001441956,-1.5788575410842896
1761132569339473200,3.96647314453125,0.25641068816185,-0.19081902503967285,-1.5672510862350464
1761132569349473300,3.976473388671875,0.24113905429840088,-0.42905646562576294,-1.47134530544281
1761132569359473200,3.98647314453125,0.28878653049468994,-0.48464521765708923,-1.250822901725769
1761132569369473300,3.996473388671875,0.41828998923301697,-0.3099377453327179,-0.8946884870529175
1761132569379472400,4.006472412109375,0.5801692605018616,0.04864014685153961,-0.4579198658466339
1761132569389472300,4.01647216796875,0.7689266204833984,0.44570255279541016,0.0038942659739404917
1761132569399472400,4.026472412109375,0.9308059215545654,0.7712937593460083,0.42233696579933167
1761132569409472300,4.03647216796875,0.9998337030410767,0.909960150718689,0.7186065912246704
1761132569419472400,4.046472412109375,0.9857838153839111,0.825049877166748,0.8719337582588196
1761132569429472300,4.05647216796875,0.9259189963340759,0.49701523780822754,0.9055313467979431
1761132569439472400,4.066472412109375,0.8495608568191528,0.011377365328371525,0.8517752289772034
1761132569449472300,4.07647216796875,0.7689266204833984,-0.4522693455219269,0.7479281425476074
1761132569459472400,4.086472412109375,0.6876815557479858,-0.7424303293228149,0.6404158473014832
1761132569469472300,4.09647216796875,0.6046038866043091,-0.7827474474906921,0.5536729693412781
1761132569479473200,4.10647314453125,0.5306891798973083,-0.6178138256072998,0.5017494559288025
1761132569489473000,4.11647314453125,0.46899178624153137,-0.3465896546840668,0.49441906809806824
1761132569499473200,4.12647314453125,0.4115704596042633,-0.05398521572351456,0.5133558511734009
1761132569509473000,4.13647314453125,0.3309362530708313,0.27893635630607605,0.5701663494110107
1761132569519473200,4.14647314453125,0.29794952273368835,0.3815616965293884,0.6233116388320923
1761132569529473000,4.15647314453125,0.2845104932785034,0.38950294256210327,0.6801220774650574
1761132569539473200,4.16647314453125,0.2863430976867676,0.32352951169013977,0.7424303293228149
1761132569549473000,4.17647314453125,0.2967278063297272,0.20868684351444244,0.8065711855888367
1761132569559473200,4.18647314453125,0.304669052362442,0.07735081017017365,0.8701011538505554
1761132569569473000,4.19647314453125,0.2893974184989929,-0.03260493278503418,0.923246443271637
1761132569579472100,4.20647216796875,0.23319780826568604,-0.1126282811164856,0.942794144153595
1761132569589472300,4.21647216796875,0.13973543047904968,-0.16577355563640594,0.9128617644309998
1761132569599472000,4.22647216796875,0.028557950630784035,-0.21036672592163086,0.8316166996955872
1761132569609472300,4.23647216796875,-0.0734565481543541,-0.273285835981369,0.706389307975769
1761132569619472100,4.24647216796875,-0.14676037430763245,-0.36674821376800537,0.5530621409416199
1761132569629472300,4.25647216796875,-0.19013181328773499,-0.49869510531425476,0.3948480188846588
1761132569639472000,4.26647216796875,-0.21762074530124664,-0.6318637132644653,0.2549598813056946
1761132569649472300,4.27647216796875,-0.23594669997692108,-0.7118870615959167,0.14989106357097626
1761132569659472100,4.28647216796875,-0.2506074607372284,-0.7051675915718079,0.08391761034727097
1761132569669472300,4.29647216796875,-0.27382034063339233,-0.6172029972076416,0.04482223838567734
1761132569679473200,4.30647314453125,-0.3055853247642517,-0.4925864636898041,0.021609358489513397
1761132569689473000,4.31647314453125,-0.3355177342891693,-0.39362630248069763,0.008170322515070438
1761132569699440600,4.326440673828125,-0.35445454716682434,-0.33681583404541016,0.0020616701804101467
1761132569709407200,4.3364072265625,-0.36422839760780334,-0.3105486333370209,-0.002825251780450344
1761132569719374000,4.3463740234375,-0.36361753940582275,-0.325209379196167,-0.01992947794497013
1761132569729340700,4.356340576171875,-0.3562871515750885,-0.3997349441051483,-0.044974952936172485
1761132569739307500,4.3663076171875,-0.3263547718524933,-0.4925864636898041,-0.06513350456953049
1761132569749274400,4.3762744140625,-0.26832255721092224,-0.5512295365333557,-0.06146831437945366
1761132569759241000,4.386240966796875,-0.19379699230194092,-0.5261840224266052,-0.024205535650253296
1761132569769207600,4.39620751953125,-0.11927144229412079,-0.3997349441051483,0.03504839166998863
1761132569779173400,4.40617333984375,-0.06368270516395569,-0.2482403665781021,0.0973566472530365
1761132569789140200,4.41614013671875,-0.05268712714314461,-0.1321759670972824,0.12179125845432281
1761132569799106800,4.42610693359375,-0.10155634582042694,-0.22197316586971283,0.057650405913591385
1761132569809073400,4.436073486328125,-0.1693623960018158,-0.44921502470970154,-0.07307475805282593
1761132569819040000,4.4460400390625,-0.20845776796340942,-0.7082219123840332,-0.2355649173259735
1761132569829006800,4.4560068359375,-0.20112738013267517,-0.8163450360298157,-0.37056612968444824
1761132569838973400,4.465973388671875,-0.16691893339157104,-0.7460955381393433,-0.4683045744895935
1761132569848940000,4.47593994140625,-0.14492778480052948,-0.5371796488761902,-0.5403866767883301
1761132569858906600,4.48590673828125,-0.12965615093708038,-0.264122873544693,-0.5916993618011475
1761132569868873500,4.49587353515625,-0.13026700913906097,0.026648996397852898,-0.6320164799690247
1761132569878841000,4.505841064453125,-0.16019940376281738,0.2520582675933838,-0.6753878593444824
1761132569888807700,4.5158076171875,-0.21762074530124664,0.25389087200164795,-0.7438048124313354
1761132569898774300,4.525774169921875,-0.29336804151535034,-0.010002918541431427,-0.8311585187911987
1761132569908741000,4.5357412109375,-0.34956762194633484,-0.3740786015987396,-0.909349262714386
1761132569918708700,4.545708740234375,-0.35445454716682434,-0.5982661247253418,-0.9319512844085693
1761132569928700000,4.555699951171875,-0.33857205510139465,-0.6074291467666626,-0.8891907334327698
1761132569938666500,4.56566650390625,-0.2958115041255951,-0.3704134225845337,-0.7700719833374023
1761132569948633000,4.575633056640625,-0.21762074530124664,0.07124216109514236,-0.5794820189476013
1761132569958600000,4.585599853515625,-0.10949759185314178,0.5605452060699463,-0.34552064538002014
1761132569968566500,4.59556640625,0.014508049935102463,0.9527207016944885,-0.09628763794898987
1761132569978532400,4.605532470703125,0.12568552792072296,1.1604149341583252,0.13095423579216003
1761132569988499000,4.6154990234375,0.2246456891298294,1.1329259872436523,0.3044399619102478
1761132569998498000,4.625498046875,0.3003929853439331,0.899575412273407,0.4211152195930481
1761132570008498000,4.635497802734375,0.32910364866256714,0.5697082281112671,0.48403435945510864
1761132570018498000,4.645498046875,0.23136521875858307,0.11278099566698074,0.4913647174835205
1761132570028498000,4.655497802734375,0.09147707372903824,-0.12118039280176163,0.4461607038974762
1761132570038497800,4.665497802734375,-0.08078692853450775,-0.30566170811653137,0.3753003478050232
1761132570048497700,4.67549755859375,-0.22861631214618683,-0.3759112060070038,0.31115949153900146
1761132570058497800,4.685497802734375,-0.33735033869743347,-0.3001639246940613,0.27145323157310486
1761132570068497700,4.69549755859375,-0.4069889783859253,-0.11140654981136322,0.2726749777793884
1761132570078498600,4.70549853515625,-0.451582133769989,0.11278099566698074,0.3044399619102478
1761132570088498700,4.715498779296875,-0.4674646258354187,0.30214923620224,0.35269832611083984
1761132570098498600,4.72549853515625,-0.4558582007884979,0.45669811964035034,0.4095087945461273
1761132570108498700,4.735498779296875,-0.4265366494655609,0.5605452060699463,0.45898887515068054
1761132570118498600,4.74549853515625,-0.3911064863204956,0.6033058166503906,0.4907538592815399
1761132570128498700,4.755498779296875,-0.3550654351711273,0.5819255113601685,0.49991685152053833
1761132570138498600,4.76549853515625,-0.31780263781547546,0.5061782002449036,0.4919756054878235
1761132570148498700,4.775498779296875,-0.27320948243141174,0.391946405172348,0.4754822254180908
1761132570158498600,4.78549853515625,-0.21578814089298248,0.2575560510158539,0.4614323377609253
1761132570168498700,4.795498779296875,-0.15286903083324432,0.14821118116378784,0.4565454125404358
1761132570178497800,4.805497802734375,-0.10094548016786575,0.07002042979001999,0.4461607038974762
1761132570188497700,4.81549755859375,-0.07712173461914062,0.009544769302010536,0.4101196527481079
1761132570198497800,4.825497802734375,-0.08567385375499725,-0.05826127156615257,0.33681583404541016
1761132570208497700,4.83549755859375,-0.1033889427781105,-0.12301298975944519,0.23785565793514252
1761132570218496800,4.845496826171875,-0.12538009881973267,-0.17493653297424316,0.132786825299263
1761132570228496600,4.85549658203125,-0.14187344908714294,-0.21281017363071442,0.03871358558535576
1761132570238496800,4.865496826171875,-0.16325373947620392,-0.24152085185050964,-0.02848159149289131
1761132570248496600,4.87549658203125,-0.1944078654050827,-0.2995530366897583,-0.06757696717977524
1761132570258496800,4.885496826171875,-0.20906862616539001,-0.3392592966556549,-0.051083605736494064
1761132570268496600,4.89549658203125,-0.22372940182685852,-0.3844633102416992,-0.027870727702975273
1761132570278497500,4.90549755859375,-0.2353358417749405,-0.4296673536300659,-0.0022143865935504436
1761132570288497700,4.91549755859375,-0.2506074607372284,-0.4705953001976013,0.007559457328170538
1761132570308497700,4.93549755859375,-0.25182920694351196,-0.5390121936798096,-0.03275764733552933
1761132570318497500,4.94549755859375,-0.2194533348083496,-0.5237405896186829,-0.04008803144097328
1761132570328497700,4.95549755859375,-0.16203200817108154,-0.4266130030155182,-0.014431691728532314
1761132570338497500,4.96549755859375,-0.098502017557621,-0.3032182455062866,0.03627012297511101
1761132570348497700,4.97549755859375,-0.047189339995384216,-0.21281017363071442,0.09491318464279175
1761132570358497500,4.98549755859375,-0.006872233934700489,-0.15905404090881348,0.13584116101264954
1761132570368497700,4.99549755859375,0.025503624230623245,-0.1480584591627121,0.15477798879146576
1761132570378496800,5.005496826171875,0.0633772686123848,-0.152334526181221,0.15477798879146576
1761132570388496600,5.01549658203125,0.10308351367712021,-0.12912164628505707,0.1382846236228943
1761132570398496800,5.025496826171875,0.1336267739534378,-0.12484558671712875,0.08452847599983215
1761132570408496600,5.03549658203125,0.15256360173225403,-0.18898643553256989,-0.014431691728532314
1761132570418496800,5.045496826171875,0.1635591685771942,-0.2989421784877777,-0.1500437706708908
1761132570428496600,5.05549658203125,0.17088955640792847,-0.38263070583343506,-0.31986430287361145
1761132570438496800,5.065496826171875,0.18555031716823578,-0.4003458023071289,-0.5073999166488647
1761132570448496600,5.07549658203125,0.21731531620025635,-0.3600287139415741,-0.6821073889732361
1761132570458496800,5.085496826171875,0.25274550914764404,-0.28733575344085693,-0.8452084064483643
1761132570468496600,5.09549658203125,0.2704605758190155,-0.24213171005249023,-1.0107529163360596
1761132570478497500,5.10549755859375,0.26313021779060364,-0.21036672592163086,-1.243492603302002
1761132570488497700,5.11549755859375,0.2393064647912979,-0.2280818074941635,-1.3852132558822632
1761132570498497500,5.12549755859375,0.20204368233680725,-0.35758525133132935,-1.5214362144470215
1761132570508497700,5.13549755859375,0.1745547503232956,-0.5817728042602539,-1.6179529428482056
1761132570518497500,5.14549755859375,0.17577648162841797,-0.7467064261436462,-1.6191747188568115
1761132570528497700,5.15549755859375,0.20815233886241913,-0.7143305540084839,-1.481119155883789
1761132570538496800,5.165496826171875,0.27779096364974976,-0.39301541447639465,-1.1897363662719727
1761132570548496600,5.17549658203125,0.38469240069389343,0.1702023297548294,-0.7657959461212158
1761132570558496800,5.185496826171875,0.498924195766449,0.825049877166748,-0.2874884605407715
1761132570568496600,5.19549658203125,0.5893322229385376,1.3534482717514038,0.14622586965560913
1761132570578495700,5.205495849609375,0.6400340795516968,1.6155095100402832,0.46937358379364014
1761132570598495700,5.225495849609375,0.7041749358177185,1.374828577041626,0.7289913296699524
1761132570608495900,5.235495849609375,0.6956228017807007,0.9649379849433899,0.6892850995063782
1761132570618495700,5.245495849609375,0.6565274000167847,0.4383721649646759,0.5707772374153137
1761132570628496000,5.255495849609375,0.6039929986000061,-0.10957395285367966,0.40217840671539307
1761132570638495700,5.265495849609375,0.5600107312202454,-0.5274057984352112,0.22991441190242767
1761132570648495900,5.275495849609375,0.5514585971832275,-0.7570911049842834,0.10346530377864838
1761132570658495700,5.285495849609375,0.5655084848403931,-0.8242862820625305,0.036880988627672195
1761132570668496000,5.295495849609375,0.5673410892486572,-0.7253261208534241,0.028328875079751015
1761132570678496800,5.305496826171875,0.5606215596199036,-0.44982588291168213,0.082085020840168
1761132570688496600,5.31549658203125,0.5209153294563293,-0.08452847599983215,0.18409951031208038
1761132570698496800,5.325496826171875,0.43417248129844666,0.21235203742980957,0.29772046208381653
1761132570708496600,5.33549658203125,0.337044894695282,0.33513593673706055,0.4168391823768616
1761132570718496800,5.345496826171875,0.2912299931049347,0.29542970657348633,0.6208681464195251
1761132570728496600,5.35549658203125,0.3058907687664032,0.23984096944332123,0.7699192762374878
1761132570738496500,5.36549658203125,0.3113885521888733,0.17753271758556366,0.9073639512062073
1761132570748496600,5.37549658203125,0.2900082767009735,0.11033753305673599,1.019152283668518
1761132570758496500,5.38549658203125,0.24602597951889038,0.0492510087788105,1.0906234979629517
1761132570768496600,5.39549658203125,0.19715675711631775,-0.004505131393671036,1.1065059900283813
1761132570778495700,5.405495849609375,0.1592831164598465,-0.051541756838560104,1.0698541402816772
1761132570788496000,5.415495849609375,0.12690725922584534,-0.08513934165239334,0.9831112623214722
1761132570798495700,5.425495849609375,0.09575312584638596,-0.10651962459087372,0.8560512661933899
1761132570808495900,5.435495849609375,0.05910121276974678,-0.13461942970752716,0.7082219123840332
1761132570818495700,5.445495849609375,0.014508049935102463,-0.16577355563640594,0.5506186485290527
1761132570828496000,5.455495849609375,-0.03375030308961868,-0.2189188301563263,0.39790233969688416
1761132570838496500,5.46549658203125,-0.07223481684923172,-0.26167941093444824,0.27634015679359436
1761132570848496600,5.47549658203125,-0.10583240538835526,-0.23602305352687836,0.19509509205818176
1761132570858496500,5.48549658203125,-0.15042556822299957,-0.1932624876499176,0.14378240704536438
1761132570868496600,5.49549658203125,-0.2041817009449005,-0.1633300930261612,0.11018481850624084
1761132570878497500,5.50549755859375,-0.24572055041790009,-0.132786825299263,0.09063713252544403
1761132570888497700,5.51549755859375,-0.26343563199043274,-0.11385001242160797,0.07780896127223969
1761132570898497500,5.52549755859375,-0.2658790946006775,-0.12362385541200638,0.06375905871391296
1761132570908497700,5.53549755859375,-0.2591595947742462,-0.1376737505197525,0.04726569727063179
1761132570918497500,5.54549755859375,-0.24083362519741058,-0.13523028790950775,0.030161472037434578
1761132570928497400,5.555497314453125,-0.22189679741859436,-0.11934779584407806,0.0069485921412706375
1761132570938497500,5.56549755859375,-0.20723603665828705,-0.10346530377864838,-0.03520110994577408
1761132570948497400,5.575497314453125,-0.19135354459285736,-0.10835222154855728,-0.1347721517086029
1761132570958497500,5.58549755859375,-0.18035796284675598,-0.132786825299263,-0.22212587296962738
1761132570968497400,5.595497314453125,-0.17180584371089935,-0.18226692080497742,-0.31375566124916077
1761132570978496800,5.605496826171875,-0.16142113506793976,-0.2433534413576126,-0.39561161398887634
1761132570988496600,5.61549658203125,-0.15347988903522491,-0.3044399619102478,-0.47074803709983826
1761132570998496500,5.62549658203125,-0.16814066469669342,-0.406454473733902,-0.5635995268821716
1761132571008496600,5.63549658203125,-0.20601430535316467,-0.5426774024963379,-0.6924921274185181
1761132571018496500,5.64549658203125,-0.24816401302814484,-0.6495788097381592,-0.8439866900444031
1761132571028496600,5.65549658203125,-0.27259862422943115,-0.7131088376045227,-0.9893726110458374
1761132571038496800,5.665496826171875,-0.2616030275821686,-0.7607563138008118,-1.0883327722549438
1761132571048497000,5.675496826171875,-0.2194533348083496,-0.7668649554252625,-1.1170434951782227
1761132571058496800,5.685496826171875,-0.16325373947620392,-0.667293906211853,-1.0779480934143066
1761132571068497000,5.695496826171875,-0.12232576310634613,-0.4369977116584778,-0.9924269318580627
1761132571078497500,5.70549755859375,-0.11194105446338654,-0.16210836172103882,-0.9050732254981995
1761132571088497700,5.71549755859375,-0.1082758679986,0.14698944985866547,-0.8549822568893433
1761132571098497500,5.72549755859375,-0.12232576310634613,0.3870594799518585,-0.9148470759391785
1761132571108497700,5.73549755859375,-0.19318613409996033,0.46036332845687866,-1.1231521368026733
1761132571118497500,5.74549755859375,-0.30863967537879944,0.3675118088722229,-1.4255304336547852
1761132571128497700,5.75549755859375,-0.42531493306159973,0.2471713423728943,-1.7334065437316895
1761132571138497800,5.765497802734375,-0.4717406928539276,0.2618321180343628,-1.9484310150146484
1761132571148497700,5.77549755859375,-0.3978259861469269,0.4841870665550232,-2.0162370204925537
1761132571158497800,5.785497802734375,-0.2292271852493286,0.8268824815750122,-1.9514853954315186
1761132571168497700,5.79549755859375,-0.005650503560900688,1.1408672332763672,-1.7700583934783936
1761132571178496800,5.805496826171875,0.37308594584465027,1.449965000152588,-1.3601678609848022
1761132571188497000,5.815496826171875,0.611934244632721,1.4658474922180176,-1.0632872581481934
1761132571198496800,5.825496826171875,0.7793113589286804,1.2978595495224,-0.7932848930358887
1761132571208496600,5.83549658203125,0.8422304391860962,0.9844856858253479,-0.5635995268821716
1761132571218496800,5.845496826171875,0.8257371187210083,0.5984188914299011,-0.3626248836517334
1761132571228496600,5.85549658203125,0.7524332404136658,0.20746511220932007,-0.17814357578754425
1761132571238496800,5.865496826171875,0.65958172082901,-0.05581781268119812,0.007559457328170538
1761132571248496600,5.87549658203125,0.5984952449798584,-0.1419498175382614,0.20425806939601898
1761132571258496800,5.885496826171875,0.5624541640281677,-0.08819366991519928,0.39790233969688416
1761132571268496600,5.89549658203125,0.528245747089386,0.053527068346738815,0.5939900875091553
1761132571278497500,5.90549755859375,0.5013676285743713,0.2722168266773224,0.7870234847068787
1761132571288497700,5.91549755859375,0.4720461070537567,0.5202280879020691,0.971504807472229
1761132571298497500,5.92549755859375,0.4366159439086914,0.6924921274185181,1.13216233253479
1761132571308497700,5.93549755859375,0.40912699699401855,0.7645742297172546,1.2512811422348022
1761132571318497500,5.94549755859375,0.39996400475502014,0.7279223203659058,1.3215305805206299
1761132571328497700,5.95549755859375,0.42012256383895874,0.6167448163032532,1.3490195274353027
1761132571338497500,5.96549755859375,0.4567744731903076,0.4542546570301056,1.333137035369873
1761132571348497700,5.97549755859375,0.49525898694992065,0.2606103718280792,1.2665526866912842
1761132571358497500,5.98549755859375,0.5129740834236145,0.07673994451761246,1.1401035785675049
1761132571368497700,5.99549755859375,0.5007568001747131,-0.028939740732312202,0.9647852778434753
1761132571378496800,6.005496826171875,0.45982882380485535,-0.06498079001903534,0.7564802765846252
1761132571388496600,6.01549658203125,0.4017966091632843,-0.10041097551584244,0.5365687608718872
1761132571398496800,6.025496826171875,0.3376557528972626,-0.16943874955177307,0.32276591658592224
1761132571408496600,6.03549658203125,0.2557998299598694,-0.32154420018196106,0.04787656292319298
1761132571418496800,6.045496826171875,0.21365012228488922,-0.3795763850212097,-0.09323330968618393
1761132571428496600,6.05549658203125,0.16539175808429718,-0.36858081817626953,-0.22273674607276917
1761132571438496800,6.065496826171875,0.0988074541091919,-0.34353533387184143,-0.35957056283950806
1761132571448496600,6.07549658203125,0.026114489883184433,-0.31177034974098206,-0.4902957081794739
1761132571458496800,6.085496826171875,-0.044135015457868576,-0.21586450934410095,-0.5941427946090698
1761132571468496600,6.09549658203125,-0.1137736514210701,-0.10957395285367966,-0.6582836508750916
1761132571478497500,6.10549755859375,-0.16019940376281738,-0.016111571341753006,-0.6650031805038452
1761132571488497700,6.11549755859375,-0.17730364203453064,0.08590292185544968,-0.6045275330543518
1761132571498497500,6.12549755859375,-0.16814066469669342,0.180587038397789,-0.4884631335735321
1761132571508497700,6.13549755859375,-0.14553864300251007,0.230677992105484,-0.3357468247413635
1761132571518497500,6.14549755859375,-0.12171489745378494,0.22456933557987213,-0.16470454633235931
1761132571528497400,6.155497314453125,-0.07895433157682419,0.18975001573562622,0.02344195358455181
1761132571538497500,6.16549755859375,-0.021532999351620674,0.16959145665168762,0.21525363624095917
1761132571548497400,6.175497314453125,0.028557950630784035,0.16775886714458466,0.37713292241096497
1761132571558497500,6.18549755859375,0.06765332818031311,0.15920674800872803,0.49808424711227417
1761132571568497400,6.195497314453125,0.0981965884566307,0.12377656996250153,0.5732206702232361
1761132571578496800,6.205496826171875,0.11713340878486633,0.0443640872836113,0.6086508631706238
1761132571588496600,6.21549658203125,0.12140946835279465,-0.06375905871391296,0.6068182587623596
1761132571598496800,6.225496826171875,0.0981965884566307,-0.17432567477226257,0.5719989538192749
1761132571608496600,6.23549658203125,0.06643159687519073,-0.3184898793697357,0.49808424711227417
1761132571618496800,6.245496826171875,0.04749477282166481,-0.48403435945510864,0.4009566605091095
1761132571628496600,6.25549658203125,0.040164388716220856,-0.6281985640525818,0.31115949153900146
1761132571638496800,6.265496826171875,0.037110064178705215,-0.677678644657135,0.22624921798706055
1761132571648496600,6.27549658203125,0.0328340083360672,-0.554894745349884,0.19142989814281464
1761132571658496800,6.285496826171875,0.03894266113638878,-0.3551417887210846,0.17493653297424316
1761132571668496600,6.29549658203125,0.06887505948543549,-0.06375905871391296,0.19570595026016235
1761132571678497500,6.30549755859375,0.1281289905309677,0.272827684879303,0.25129470229148865
1761132571688497700,6.31549755859375,0.2099849283695221,0.5177846550941467,0.33803755044937134
1761132571698497500,6.32549755859375,0.2912299931049347,0.5709299445152283,0.4095087945461273
1761132571708497700,6.33549755859375,0.3455969989299774,0.4542546570301056,0.4406629204750061
1761132571718497500,6.34549755859375,0.3822489380836487,0.28504499793052673,0.43455424904823303
1761132571728497700,6.35549755859375,0.4164573848247528,0.16836974024772644,0.38385245203971863
1761132571738497500,6.36549755859375,0.41951170563697815,0.02603813074529171,0.27145323157310486
1761132571748497700,6.37549755859375,0.365755558013916,-0.24762949347496033,0.09613491594791412
1761132571758497500,6.38549755859375,0.30222558975219727,-0.5555055737495422,-0.0944550409913063
1761132571768497700,6.39549755859375,0.275958389043808,-0.7124979496002197,-0.220904141664505
1761132571778496800,6.405496826171875,0.31383201479911804,-0.6446918845176697,-0.2105194330215454
1761132571788496600,6.41549658203125,0.39446622133255005,-0.3856850564479828,-0.06146831437945366
1761132571798496800,6.425496826171875,0.4732678532600403,-0.010002918541431427,0.1877647042274475
1761132571808496600,6.43549658203125,0.5148066878318787,0.39622247219085693,0.4913647174835205
1761132571818496800,6.445496826171875,0.4934264123439789,0.6943247318267822,0.7796931266784668
1761132571828497000,6.455496826171875,0.41523563861846924,0.7657959461212158,0.9745591282844543
1761132571838496800,6.465496826171875,0.3113885521888733,0.6204100251197815,1.0490846633911133
1761132571848497000,6.475496826171875,0.19288070499897003,0.34429892897605896,1.0185414552688599
1761132571858496800,6.485496826171875,0.05604688450694084,-0.007559457328170538,0.9061422348022461
1761132571868497000,6.495496826171875,-0.22311852872371674,-0.5628359913825989,0.5854379534721375
1761132571878497800,6.505497802734375,-0.4723515510559082,-0.8688794374465942,0.25251641869544983
1761132571888497700,6.51549755859375,-0.7258606553077698,-1.030147910118103,-0.1408807933330536
1761132571898497800,6.525497802734375,-0.9121745228767395,-1.0490846633911133,-0.5135086178779602
1761132571908497700,6.53549755859375,-1.0386236906051636,-0.9269116520881653,-0.8122217059135437
1761132571918497800,6.545497802734375,-1.1162035465240479,-0.6911176443099976,-0.9973138570785522
1761132571928497700,6.55549755859375,-1.143081545829773,-0.31115949153900146,-1.033965826034546
1761132571938497500,6.56549755859375,-1.1339186429977417,0.20013472437858582,-0.9154579043388367
1761132571948497700,6.57549755859375,-1.1223121881484985,0.7230353951454163,-0.6778313517570496
1761132571958497500,6.58549755859375,-1.1290316581726074,1.0944414138793945,-0.3723987340927124
1761132571968497700,6.59549755859375,-1.144303321838379,1.2288317680358887,-0.0541379339993
1761132571978496800,6.605496826171875,-1.1510227918624878,1.1549171209335327,0.23724478483200073
1761132571988497000,6.615496826171875,-1.1485793590545654,0.93805992603302,0.47853657603263855
1761132571998496800,6.625496826171875,-1.1504119634628296,0.6601162552833557,0.6617961525917053
1761132572008496600,6.63549658203125,-1.1699596643447876,0.3986659348011017,0.7766388058662415
1761132572018496800,6.645496826171875,-1.211498498916626,0.1610393524169922,0.8084037899971008
1761132572028496600,6.65549658203125,-1.2646437883377075,-0.03199406713247299,0.7607563138008118
1761132572038496800,6.665496826171875,-1.3226759433746338,-0.14866933226585388,0.6434701681137085
1761132572048496600,6.67549658203125,-1.3935363292694092,-0.19204075634479523,0.4602105915546417
1761132572058496800,6.685496826171875,-1.4729487895965576,-0.22563834488391876,0.2244166135787964
1761132572068496600,6.69549658203125,-1.553583025932312,-0.29772046208381653,-0.039477165788412094
1761132572078497500,6.70549755859375,-1.6244434118270874,-0.4009566605091095,-0.29542970657348633
1761132572088497700,6.71549755859375,-1.6885842084884644,-0.5188536643981934,-0.5165629386901855
1761132572098497500,6.72549755859375,-1.7508925199508667,-0.7277695536613464,-0.7602981328964233
1761132572108497700,6.73549755859375,-1.7692184448242188,-0.9091965556144714,-0.8580365777015686
1761132572118497500,6.74549755859375,-1.772883653640747,-1.104062557220459,-0.8965210914611816
1761132572128497700,6.75549755859375,-1.763109803199768,-1.2164617776870728,-0.8641452193260193
1761132572138497800,6.765497802734375,-1.7570011615753174,-1.2427289485931396,-0.7822893261909485
1761132572148497700,6.77549755859375,-1.7985399961471558,-1.2861003875732422,-0.7138723731040955
1761132572158497800,6.785497802734375,-1.9097174406051636,-1.3838388919830322,-0.7034876942634583
1761132572168497700,6.79549755859375,-2.04960560798645,-1.4711925983428955,-0.7291440367698669
1761132572178496800,6.805496826171875,-2.1479549407958984,-1.4956271648406982,-0.7401396036148071
1761132572188497000,6.815496826171875,-2.2047653198242188,-1.4394276142120361,-0.7242571115493774
1761132572198496800,6.825496826171875,-2.269517183303833,-1.341078281402588,-0.7071529030799866
1761132572208497000,6.835496826171875,-2.375196695327759,-1.2708288431167603,-0.7120398283004761
1761132572218496800,6.845496826171875,-2.5138630867004395,-1.254946231842041,-0.7407504916191101
1761132572228497000,6.855496826171875,-2.6641359329223633,-1.2054661512374878,-0.76762855052948
1761132572238496800,6.865496826171875,-2.785698175430298,-1.0197631120681763,-0.748080849647522
1761132572248497000,6.875496826171875,-2.8602237701416016,-0.6929502487182617,-0.6424011588096619
1761132572258496800,6.885496826171875,-2.8767170906066895,-0.2885574698448181,-0.44142648577690125
1761132572268497000,6.895496826171875,-2.8406760692596436,0.12622003257274628,-0.1604284793138504
1761132572278497800,6.905497802734375,-2.771648406982422,0.46647197008132935,0.1431715488433838
1761132572288497700,6.91549755859375,-2.6873488426208496,0.6827182769775391,0.4247804284095764
1761132572298497800,6.925497802734375,-2.5999951362609863,0.7725154757499695,0.6617961525917053
1761132572308497700,6.93549755859375,-2.5273022651672363,0.7034876942634583,0.8303949236869812
1761132572318497800,6.945497802734375,-2.4686591625213623,0.4799109995365143,0.9220247268676758
1761132572328497700,6.95549755859375,-2.378861904144287,0.039477165788412094,0.9470701813697815
1761132572338497800,6.965497802734375,-2.320218801498413,-0.22563834488391876,0.9043096303939819
1761132572348497700,6.97549755859375,-2.283566951751709,-0.44921502470970154,0.819399356842041
1761132572358497800,6.985497802734375,-2.2768476009368896,-0.6398049592971802,0.697226345539093
1761132572368497700,6.99549755859375,-2.295173406600952,-0.810236394405365,0.5457317233085632
1761132572378496800,7.005496826171875,-2.3379340171813965,-0.9763917326927185,0.36796995997428894
1761132572388497000,7.015496826171875,-2.3971879482269287,-1.122388482093811,0.16088663041591644
1761132572398496800,7.025496826171875,-2.464993953704834,-1.2195161581039429,-0.06635523587465286
1761132572408497000,7.035496826171875,-2.520582675933838,-1.2586114406585693,-0.28932106494903564
1761132572418496800,7.045496826171875,-2.5535695552825928,-1.1950814723968506,-0.47563496232032776
1761132572428496600,7.05549658203125,-2.5535695552825928,-1.0130436420440674,-0.5971971154212952
1761132572438496800,7.065496826171875,-2.529745578765869,-0.7106653451919556,-0.6185774207115173
1761132572448496600,7.07549658203125,-2.4753787517547607,-0.292833536863327,-0.5153411626815796
1761132572458496800,7.085496826171875,-2.406961679458618,0.12377656996250153,-0.29359710216522217
1761132572468496600,7.09549658203125,-2.353205680847168,0.42493313550949097,-0.0009926559869199991
1761132572478497500,7.10549755859375,-2.31472110748291,0.5715407729148865,0.30138564109802246
1761132572488497400,7.115497314453125,-2.2817344665527344,0.5281693339347839,0.5707772374153137
1761132572498497500,7.12549755859375,-2.252412796020508,0.32414036989212036,0.7674758434295654
1761132572508497400,7.135497314453125,-2.2291998863220215,0.02298380434513092,0.8823184967041016
1761132572518497500,7.14549755859375,-2.2059872150421143,-0.3001639246940613,0.9293550848960876
1761132572528497700,7.15549755859375,-2.1876611709594727,-0.5646685361862183,0.9165269136428833
1761132572538497500,7.16549755859375,-2.1901047229766846,-0.7448738217353821,0.8365035653114319
1761132572548497700,7.17549755859375,-2.2151501178741455,-0.8310058116912842,0.6850090026855469
1761132572558497500,7.18549755859375,-2.295173406600952,-0.8071820735931396,0.3355940878391266
1761132572568497700,7.19549755859375,-2.372753381729126,-0.7589237093925476,0.03627012297511101
1761132572578496800,7.205496826171875,-2.4527766704559326,-0.7179957628250122,-0.2771037518978119
1761132572588497000,7.215496826171875,-2.506532907485962,-0.5952118039131165,-0.5635995268821716
1761132572598496800,7.225496826171875,-2.515695810317993,-0.3911828398704529,-0.7786241173744202
1761132572608497000,7.235496826171875,-2.483930826187134,-0.18409951031208038,-0.8928559422492981
1761132572618496800,7.245496826171875,-2.4301745891571045,0.019318614155054092,-0.8928559422492981
1761132572628497000,7.255496826171875,-2.369699001312256,0.23739750683307648,-0.777402400970459
1761132572638496800,7.265496826171875,-2.3177754878997803,0.44570255279541016,-0.5752059817314148
1761132572648497000,7.275496826171875,-2.267073631286621,0.6081926822662354,-0.32475122809410095
1761132572658496800,7.285496826171875,-2.2059872150421143,0.663170576095581,-0.04680754989385605
1761132572668497000,7.295496826171875,-2.1510093212127686,0.596586287021637,0.22563834488391876
1761132572678497800,7.305497802734375,-2.119244337081909,0.41454842686653137,0.4620431959629059
1761132572688497700,7.31549755859375,-2.1229095458984375,0.17081318795681,0.648967981338501
1761132572698497800,7.325497802734375,-2.14428973197937,-0.06864598393440247,0.7870234847068787
1761132572708497700,7.33549755859375,-2.168724298477173,-0.21525363624095917,0.8835402131080627
1761132572718497800,7.345497802734375,-2.1949915885925293,-0.2482403665781021,0.9244682192802429
1761132572728497700,7.35549755859375,-2.219426155090332,-0.20242546498775482,0.8957574963569641
1761132572738497800,7.365497802734375,-2.241417407989502,-0.13523028790950775,0.79129958152771
1761132572748497700,7.37549755859375,-2.247525930404663,-0.102243572473526,0.6361398100852966
1761132572758497800,7.385497802734375,-2.227367401123047,-0.11873693019151688,0.4663192629814148
1761132572768497700,7.39549755859375,-2.1821634769439697,-0.14622586965560913,0.31665727496147156
1761132572778497000,7.4054970703125,-2.135737657546997,-0.17554740607738495,0.19692768156528473
1761132572788497000,7.415496826171875,-2.1009182929992676,-0.17004960775375366,0.102243572473526
1761132572798497000,7.4254970703125,-2.0532708168029785,-0.19692768156528473,0.09552405029535294
1761132572808497000,7.435496826171875,-2.0312795639038086,-0.1731039434671402,0.0924697294831276
1761132572818497000,7.4454970703125,-1.9927951097488403,-0.07414376735687256,0.1474476009607315
1761132572828497000,7.455496826171875,-1.9182696342468262,-0.10590875893831253,0.21525363624095917
1761132572838496800,7.465496826171875,-1.8229745626449585,-0.21952970325946808,0.28611400723457336
1761132572848497000,7.475496826171875,-1.7258470058441162,-0.2983313202857971,0.35819610953330994
1761132572858496800,7.485496826171875,-1.6397150754928589,-0.3203224539756775,0.4211152195930481
1761132572868497000,7.495496826171875,-1.5871806144714355,-0.32215505838394165,0.4522693455219269
1761132572878497500,7.50549755859375,-1.5694655179977417,-0.3508657217025757,0.4406629204750061
1761132572888497700,7.51549755859375,-1.552361249923706,-0.36735907196998596,0.42233696579933167
1761132572898497800,7.525497802734375,-1.5114333629608154,-0.3355940878391266,0.4168391823768616
1761132572908497700,7.53549755859375,-1.4546228647232056,-0.29710957407951355,0.4217261075973511
1761132572918497800,7.545497802734375,-1.3947581052780151,-0.29100093245506287,0.42722389101982117
1761132572928497700,7.55549755859375,-1.3458888530731201,-0.3093268871307373,0.4296673536300659
1761132572938497500,7.56549755859375,-1.3006848096847534,-0.3410918712615967,0.4357759952545166
1761132572948497700,7.57549755859375,-1.2560917139053345,-0.3588069677352905,0.4369977116584778
1761132572958497500,7.58549755859375,-1.2139419317245483,-0.33681583404541016,0.4260021448135376
1761132572968497700,7.59549755859375,-1.1675162315368652,-0.2891683280467987,0.40340012311935425
1761132572978497000,7.6054970703125,-1.1100949048995972,-0.25068381428718567,0.3862959146499634
1761132572988497000,7.615496826171875,-1.050840973854065,-0.21464277803897858,0.3893502354621887
1761132572998496800,7.625496826171875,-1.010523796081543,-0.18898643553256989,0.4162282943725586
1761132573008497000,7.635496826171875,-0.9830349087715149,-0.18715384602546692,0.4571562707424164
1761132573018496800,7.645496826171875,-0.9824240207672119,-0.25740334391593933,0.4809800088405609
1761132573028497000,7.655496826171875,-1.021519422531128,-0.5212971568107605,0.4504367709159851
1761132573038496800,7.665496826171875,-1.0502300262451172,-0.7082219123840332,0.406454473733902
1761132573048497000,7.675496826171875,-1.0752755403518677,-0.8041277527809143,0.3343723714351654
1761132573058496800,7.685496826171875,-1.0795515775680542,-0.8065711855888367,0.2433534413576126
1761132573068497000,7.695496826171875,-1.060614824295044,-0.7460955381393433,0.16577355563640594
1761132573078497800,7.705497802734375,-1.0080803632736206,-0.6440810561180115,0.11934779584407806
1761132573088497700,7.71549755859375,-0.9372199773788452,-0.534736156463623,0.10651962459087372
1761132573098497800,7.725497802734375,-0.8755226135253906,-0.44982588291168213,0.13034337759017944
1761132573108497700,7.73549755859375,-0.8333728909492493,-0.43455424904823303,0.18165604770183563
1761132573118497800,7.745497802734375,-0.793666660785675,-0.487088680267334,0.2580142021179199
1761132573128497700,7.75549755859375,-0.755182147026062,-0.5457317233085632,0.3490331172943115
1761132573138497800,7.765497802734375,-0.717308521270752,-0.6043748259544373,0.4357759952545166
1761132573148498000,7.775497802734375,-0.6831000447273254,-0.6501896977424622,0.5011385679244995
1761132573158497800,7.785497802734375,-0.6501133441925049,-0.6734025478363037,0.5384013652801514
1761132573168498000,7.795497802734375,-0.6159048676490784,-0.6648504734039307,0.554894745349884
1761132573178497000,7.8054970703125,-0.5792529582977295,-0.6508005857467651,0.5616142153739929
1761132573188497000,7.815496826171875,-0.5468770861625671,-0.667293906211853,0.5585598945617676
1761132573198497000,7.8254970703125,-0.5273294448852539,-0.7277695536613464,0.5463426113128662
1761132573208497000,7.835496826171875,-0.5175555944442749,-0.8041277527809143,0.5194645524024963
1761132573218497000,7.8454970703125,-0.526107668876648,-0.8755989670753479,0.46876272559165955
1761132573228497000,7.855496826171875,-0.5615378618240356,-0.9470701813697815,0.3948480188846588
1761132573238496800,7.865496826171875,-0.60429847240448,-1.028926134109497,0.3038291037082672
1761132573248497000,7.875496826171875,-0.6482807397842407,-1.1120038032531738,0.21158844232559204
1761132573258496800,7.885496826171875,-0.7203628420829773,-1.1682034730911255,0.0869719386100769
1761132573268497000,7.895496826171875,-0.7826710939407349,-1.113836407661438,0.03504839166998863
1761132573278497500,7.90549755859375,-0.8474228382110596,-0.9757808446884155,0.022220224142074585
1761132573288497700,7.91549755859375,-0.90728759765625,-0.79129958152771,0.027718011289834976
1761132573298497500,7.92549755859375,-0.9531024694442749,-0.6092617511749268,0.042989641427993774
1761132573308497700,7.93549755859375,-0.9885326623916626,-0.4760931134223938,0.07108944654464722
1761132573318497500,7.94549755859375,-1.010523796081543,-0.415617436170578,0.11323914676904678
1761132573328497700,7.95549755859375,-1.023352026939392,-0.41806089878082275,0.1633300930261612
1761132573338497500,7.96549755859375,-1.0294606685638428,-0.44432809948921204,0.21219931542873383
1761132573348497700,7.97549755859375,-1.0355693101882935,-0.4663192629814148,0.24640776216983795
1761132573358497500,7.98549755859375,-1.0392345190048218,-0.45471280813217163,0.2677880525588989
1761132573368497700,7.99549755859375,-1.041067123413086,-0.44249552488327026,0.28061622381210327
1761132573378497000,8.0054970703125,-1.0349584817886353,-0.467540979385376,0.283059686422348
1761132573388497000,8.015496826171875,-1.0374019145965576,-0.5261840224266052,0.26717719435691833
1761132573398497000,8.0254970703125,-1.0447323322296143,-0.6062073707580566,0.2341904640197754
1761132573408497000,8.035496826171874,-1.0642799139022827,-0.677067756652832,0.182877779006958
1761132573418497000,8.0454970703125,-1.1064296960830688,-0.7289913296699524,0.10590875893831253
1761132573428497000,8.055496826171876,-1.1552989482879639,-0.76136714220047,0.010002918541431427
1761132573438496800,8.065496826171875,-1.1888965368270874,-0.7858017683029175,-0.08834638446569443
1761132573448497000,8.075496826171875,-1.2090550661087036,-0.799851655960083,-0.1811978965997696
1761132573458496800,8.085496826171875,-1.214552879333496,-0.801073431968689,-0.2667190432548523
1761132573468497000,8.095496826171875,-1.2163853645324707,-0.8163450360298157,-0.34552064538002014
1761132573478497800,8.105497802734375,-1.2243266105651855,-0.8181776404380798,-0.4090506434440613
1761132573488497700,8.11549755859375,-1.2481504678726196,-0.7546476721763611,-0.4676937162876129
1761132573498497800,8.125497802734374,-1.257924199104309,-0.667904794216156,-0.48052188754081726
1761132573508497700,8.13549755859375,-1.259145975112915,-0.5701663494110107,-0.463417649269104
1761132573518497800,8.145497802734376,-1.2499829530715942,-0.47853657603263855,-0.42065706849098206
1761132573528497700,8.15549755859375,-1.231046199798584,-0.4101196527481079,-0.35407277941703796
1761132573538497800,8.165497802734375,-1.2041680812835693,-0.3789655268192291,-0.2673299014568329
1761132573548497700,8.17549755859375,-1.1815661191940308,-0.39240455627441406,-0.1750892549753189
1761132573558497800,8.185497802734375,-1.173624873161316,-0.46815183758735657,-0.09873109310865402
1761132573568497700,8.19549755859375,-1.1620184183120728,-0.5658903121948242,-0.04130976274609566
1761132573578496800,8.205496826171874,-1.1479685306549072,-0.6428593397140503,-0.007712173741310835
1761132573588497000,8.215496826171876,-1.1296426057815552,-0.7070001363754272,0.008781188167631626
1761132573598496800,8.225496826171875,-1.1045970916748047,-0.7271587252616882,0.018555032089352608
1761132573608497000,8.235496826171875,-1.0697777271270752,-0.7100545167922974,0.03199406713247299
1761132573618496800,8.245496826171875,-1.0349584817886353,-0.6935611367225647,0.03627012297511101
1761132573628497000,8.255496826171875,-1.0025825500488281,-0.7033349871635437,0.022831087931990623
1761132573638497000,8.2654970703125,-0.9769262671470642,-0.7369325757026672,-0.008323038928210735
1761132573648497000,8.275496826171874,-0.9634872078895569,-0.7662540674209595,-0.04558581858873367
1761132573658497000,8.2854970703125,-0.9604328870773315,-0.7271587252616882,-0.05841398984193802
1761132573668497000,8.295496826171876,-0.9610437750816345,-0.6141486167907715,-0.03153591975569725
1761132573678497500,8.30549755859375,-0.9677632451057434,-0.5139667391777039,0.008170322515070438
1761132573688497700,8.31549755859375,-0.9842566251754761,-0.5145776271820068,0.016722436994314194
1761132573698497500,8.32549755859375,-1.0239628553390503,-0.638583242893219,-0.0492510087788105
1761132573708497700,8.33549755859375,-1.0783299207687378,-0.801073431968689,-0.19402606785297394
1761132573718497500,8.34549755859375,-1.1675162315368652,-1.000826358795166,-0.5110651254653931
1761132573728497700,8.35549755859375,-1.2096658945083618,-1.0771845579147339,-0.7358635663986206
1761132573738497500,8.36549755859375,-1.2206615209579468,-1.0820714235305786,-0.8952993750572205
1761132573748497700,8.37549755859375,-1.1895073652267456,-1.0148762464523315,-0.9411142468452454
1761132573758497500,8.38549755859375,-1.1436924934387207,-0.8670468330383301,-0.8830820918083191
1761132573768497700,8.39549755859375,-1.0936014652252197,-0.6159812211990356,-0.7334200739860535
1761132573778496800,8.405496826171875,-1.0337367057800293,-0.24457517266273499,-0.5086216926574707
1761132573788497000,8.415496826171875,-1.0031934976577759,0.16959145665168762,-0.25450173020362854
1761132573798496800,8.425496826171875,-1.0111347436904907,0.40599632263183594,-0.010766499675810337
1761132573808497000,8.435496826171875,-1.0062477588653564,0.4322635233402252,0.2293035387992859
1761132573818496800,8.445496826171874,-0.9665415287017822,0.3833943009376526,0.4699844419956207
1761132573828497000,8.455496826171874,-0.9311113357543945,0.3082578778266907,0.6752351522445679
1761132573838496800,8.465496826171876,-0.9341656565666199,0.20746511220932007,0.8114581108093262
1761132573848497000,8.475496826171875,-0.9616546034812927,0.11155926436185837,0.868268609046936
1761132573858496800,8.485496826171875,-0.9928087592124939,0.05597052723169327,0.8468883037567139
1761132573868496600,8.49549658203125,-1.0184650421142578,0.04008803144097328,0.7570911049842834
1761132573878497500,8.50549755859375,-1.0374019145965576,0.05535966157913208,0.6153703927993774
1761132573888497700,8.51549755859375,-1.03984534740448,0.10300715267658234,0.4461607038974762
1761132573898497800,8.525497802734375,-1.0123564004898071,0.1915826052427292,0.2891683280467987
1761132573908497700,8.53549755859375,-0.9659306406974792,0.3161991238594055,0.1731039434671402
1761132573918497800,8.545497802734374,-0.9152288436889648,0.443869948387146,0.102243572473526
1761132573928497700,8.55549755859375,-0.8736900091171265,0.5269476175308228,0.07108944654464722
1761132573938497500,8.56549755859375,-0.8425359129905701,0.5599343776702881,0.072311170399189
1761132573948497700,8.57549755859375,-0.8089383244514465,0.5293911099433899,0.10896308720111847
1761132573958497500,8.58549755859375,-0.8003861904144287,0.5165629386901855,0.13339769840240479
1761132573968497700,8.59549755859375,-0.8046622276306152,0.4786892831325531,0.14439326524734497
1761132573978496800,8.605496826171875,-0.8150469660758972,0.41149410605430603,0.13584116101264954
1761132573988496600,8.61549658203125,-0.8284859657287598,0.34063372015953064,0.1126282811164856
1761132573998496800,8.625496826171876,-0.8278751373291016,0.27343854308128357,0.07780896127223969
1761132574008496600,8.63549658203125,-0.8119926452636719,0.21418462693691254,0.02038762718439102
1761132574018496800,8.645496826171875,-0.7814493775367737,0.1549306958913803,-0.05902485549449921
1761132574028496600,8.65549658203125,-0.7386888265609741,0.0944550409913063,-0.14454598724842072
1761132574038496800,8.665496826171875,-0.6965391039848328,0.08712465316057205,-0.21846067905426025
1761132574048496600,8.67549658203125,-0.6604980230331421,0.09750936180353165,-0.27466028928756714
1761132574058496800,8.685496826171875,-0.6287330389022827,0.11094839870929718,-0.3180317282676697
1761132574068496600,8.69549658203125,-0.5865833759307861,0.12866349518299103,-0.3418554663658142
1761132574078497500,8.70549755859375,-0.5316054821014404,0.14332425594329834,-0.3320816159248352
1761132574088497400,8.715497314453126,-0.4723515510559082,0.1757001131772995,-0.2868776023387909
1761132574098497500,8.72549755859375,-0.42042800784111023,0.20746511220932007,-0.21479548513889313
1761132574108497700,8.73549755859375,-0.38011088967323303,0.21907155215740204,-0.13782647252082825
1761132574118497500,8.74549755859375,-0.3562871515750885,0.2007455974817276,-0.07002042979001999
1761132574128497700,8.75549755859375,-0.3306308090686798,0.1457677185535431,-0.02054034359753132
1761132574138497500,8.76549755859375,-0.2921462953090668,0.08223773539066315,0.021609358489513397
1761132574148497700,8.77549755859375,-0.23716843128204346,0.05780312418937683,0.07108944654464722
1761132574158497500,8.78549755859375,-0.1736384481191635,0.0645226389169693,0.12301298975944519
1761132574168497700,8.79549755859375,-0.09666942805051804,0.04680754989385605,0.1676061451435089
1761132574178496800,8.805496826171876,-0.030695978552103043,0.12866349518299103,0.32154420018196106
1761132574188497000,8.815496826171875,0.03833179548382759,-0.08147415518760681,0.3300963044166565
1761132574198496800,8.825496826171875,0.08475755155086517,-0.2244166135787964,0.20975585281848907
1761132574208496600,8.83549658203125,0.10002918541431427,-0.24518603086471558,0.08269587904214859
1761132574218496800,8.845496826171875,0.06215553730726242,-0.1987602859735489,-0.02054034359753132
