time,seconds_elapsed,z,y,x
1761132122164479500,0.1184794921875,0.013247489929199219,-0.010663388296961784,-0.0010745227336883545
1761132122174479400,0.128479248046875,0.02282428741455078,-0.005899244919419289,-0.0035257041454315186
1761132122184479500,0.1384794921875,0.034796714782714844,0.0012787673622369766,-0.020343683660030365
1761132122194479400,0.148479248046875,0.015644073486328125,-0.01787956804037094,0.01790495216846466
1761132122204479500,0.1584794921875,0.01803874969482422,0.022797586396336555,0.010665372014045715
1761132122214473200,0.16847314453125,0.015645980834960938,0.006032656878232956,0.003423914313316345
1761132122224473000,0.17847314453125,0.03480052947998047,-0.027549391612410545,0.012947022914886475
1761132122234473200,0.18847314453125,0.020433425903320312,0.008229780942201614,0.0034205615520477295
1761132122244473000,0.19847314453125,0.041980743408203125,-0.006091782823204994,0.0010817945003509521
1761132122254473200,0.20847314453125,0.0036725997924804688,-0.0014997739344835281,-0.001296505331993103
1761132122264473300,0.218473388671875,0.006064414978027344,-0.013732567429542542,-0.0106944739818573
1761132122274473200,0.22847314453125,0.04915809631347656,-0.0019975993782281876,-0.010694548487663269
1761132122284473300,0.238473388671875,0.05394554138183594,0.004752464592456818,-0.0011211484670639038
1761132122294473200,0.24847314453125,0.056339263916015625,-0.00047391466796398163,0.005999371409416199
1761132122304473300,0.258473388671875,0.0371856689453125,-0.0030650589615106583,-0.003580734133720398
1761132122314473200,0.26847314453125,0.022818565368652344,-0.003177611157298088,-0.03224285691976547
1761132122324473300,0.278473388671875,0.013240814208984375,-0.0007393285632133484,-0.02979321777820587
1761132122334473200,0.28847314453125,0.03000164031982422,-0.007808156311511993,-0.020265288650989532
1761132122344473300,0.298473388671875,0.04197216033935547,-0.007765563204884529,-0.036988772451877594
1761132122354473200,0.30847314453125,0.04197406768798828,-0.0005725938826799393,-0.027530699968338013
1761132122364473300,0.318473388671875,0.053946495056152344,-0.007683364674448967,-0.006067514419555664
1761132122374473200,0.32847314453125,0.008455276489257812,-0.019648030400276184,0.0011932551860809326
1761132122384473300,0.338473388671875,0.022821426391601562,0.0046080779284238815,0.010763615369796753
1761132122394473200,0.34847314453125,0.03718757629394531,-0.019218146800994873,0.020311206579208374
1761132122404473300,0.358473388671875,0.03240013122558594,-0.023774279281497,-0.008477568626403809
1761132122414472200,0.36847216796875,0.02521991729736328,-0.01646307297050953,-0.006192460656166077
1761132122424472300,0.378472412109375,0.041980743408203125,-0.009132497012615204,-0.01109151542186737
1761132122434472200,0.38847216796875,0.03001117706298828,0.012492455542087555,0.0032477229833602905
1761132122444472300,0.398472412109375,0.027617454528808594,-0.008937554433941841,0.005632370710372925
1761132122454472200,0.40847216796875,0.02283000946044922,-0.020696131512522697,-0.018366344273090363
1761132122464472300,0.418472412109375,0.03240776062011719,-0.008472513407468796,-0.018406890332698822
1761132122474472200,0.42847216796875,0.06114006042480469,0.0012983046472072601,-0.0016832798719406128
1761132122484472300,0.438472412109375,0.05156517028808594,-0.0032423362135887146,-0.018541879951953888
1761132122494472400,0.448472412109375,0.05156707763671875,0.004305427893996239,-0.0521695539355278
1761132122504472300,0.458472412109375,0.06114673614501953,-0.00712139718234539,-0.04267711937427521
1761132122514473200,0.46847314453125,0.046787261962890625,-0.011257275938987732,-0.04047483205795288
1761132122524473000,0.47847314453125,0.020456314086914062,-0.019860684871673584,-0.033412449061870575
1761132122534473200,0.48847314453125,0.001308441162109375,-0.013901453465223312,0.0023839622735977173
1761132122544473000,0.49847314453125,0.030042648315429688,-0.003283727914094925,0.043058305978775024
1761132122554473200,0.50847314453125,-0.0034704208374023438,-0.019272498786449432,0.0715872049331665
1761132122564473000,0.51847314453125,-0.013041496276855469,-0.01844685524702072,0.05458219349384308
1761132122574473200,0.52847314453125,0.010907173156738281,0.013408094644546509,0.037605106830596924
1761132122584473000,0.53847314453125,0.07316017150878906,-0.00045850127935409546,0.042234212160110474
1761132122594473200,0.54847314453125,-0.02978801727294922,-0.012083202600479126,0.01102156937122345
1761132122604473000,0.55847314453125,0.046830177307128906,0.0003688931465148926,-0.02742365002632141
1761132122614472400,0.568472412109375,0.03964710235595703,0.019648544490337372,-0.0177585631608963
1761132122634472400,0.588472412109375,-0.12315750122070312,-0.13539855182170868,-0.020082645118236542
1761132122644472300,0.598472412109375,0.16175460815429688,0.08781082928180695,-0.005743280053138733
1761132122654472400,0.608472412109375,-0.048941612243652344,0.09962023794651031,0.009048521518707275
1761132122664472300,0.618472412109375,-0.029786109924316406,-0.05100342258810997,-0.02213311940431595
1761132122674472400,0.628472412109375,-0.029786109924316406,-0.050719521939754486,-0.022019363939762115
1761132122684472300,0.638472412109375,0.10189342498779297,-0.07952237129211426,0.0020071864128112793
1761132122694472400,0.648472412109375,-0.013027191162109375,0.04996219277381897,0.018770024180412292
1761132122704472300,0.658472412109375,0.049218177795410156,0.033303067088127136,-0.009712368249893188
1761132122714473200,0.66847314453125,-0.008243560791015625,-0.05527655780315399,-0.021624498069286346
1761132122724473000,0.67847314453125,0.0037279129028320312,-0.04566012695431709,-0.00007970631122589111
1761132122734473200,0.68847314453125,0.025275230407714844,0.02379845269024372,-0.011974036693572998
1761132122744473000,0.69847314453125,0.0109100341796875,0.023921111598610878,-0.021501697599887848
1761132122754473200,0.70847314453125,0.010909080505371094,-0.01667638123035431,-0.026220127940177917
1761132122764473300,0.718473388671875,0.015697479248046875,-0.02858726680278778,-0.02381128817796707
1761132122774473000,0.728472900390625,0.015695571899414062,-0.02857782319188118,-0.023694105446338654
1761132122784472800,0.738472900390625,0.04442596435546875,-0.014187302440404892,0.019477948546409607
1761132122794472700,0.74847265625,0.0013294219970703125,0.005010392516851425,-0.004408597946166992
1761132122804472800,0.758472900390625,0.039635658264160156,0.0027202554047107697,0.007632449269294739
1761132122814472000,0.768471923828125,-0.22851276397705078,-0.030686404556035995,0.019534990191459656
1761132122824471800,0.778471923828125,-4.25555944442749,0.041012391448020935,-0.15774358808994293
1761132122834472000,0.788471923828125,4.279725074768066,0.5285865068435669,0.06654444336891174
1761132122844471800,0.798471923828125,-2.0194263458251953,-0.5336792469024658,0.04155999422073364
1761132122854472000,0.808471923828125,-2.0193614959716797,-0.5270073413848877,0.03850752115249634
1761132122864471800,0.818471923828125,0.4490327835083008,0.4917428493499756,0.05036568641662598
1761132122874472000,0.828471923828125,0.4490327835083008,0.48909109830856323,0.049680858850479126
1761132122884471800,0.838471923828125,-0.14473438262939453,-0.25565916299819946,-0.005078524351119995
1761132122894472000,0.848471923828125,0.4059333801269531,0.005786119028925896,0.062018051743507385
1761132122904471800,0.858471923828125,-0.17824745178222656,0.10096634924411774,0.07831494510173798
1761132122914472700,0.86847265625,-0.16387939453125,0.026282235980033875,-0.04416416585445404
1761132122924472800,0.878472900390625,0.1234130859375,-0.034325011074543,-0.012367457151412964
1761132122934472700,0.88847265625,0.2886190414428711,-0.06767691671848297,-0.06540784984827042
1761132122944472800,0.898472900390625,-0.13994979858398438,0.01610047183930874,-0.03380923718214035
1761132122954472700,0.90847265625,-0.10642242431640625,0.01787884160876274,-0.032190680503845215
1761132122964472800,0.918472900390625,0.01807689666748047,0.003509318456053734,-0.027441710233688354
1761132122974472700,0.92847265625,0.20242595672607422,-0.029840581119060516,-0.01748540997505188
1761132122984472800,0.938472900390625,-0.07529735565185547,-0.07287977635860443,-0.008169278502464294
1761132122994472700,0.94847265625,-0.0968475341796875,-0.0155685655772686,0.04938279092311859
1761132123004472800,0.958472900390625,0.10665416717529297,0.03946914151310921,0.06410473585128784
1761132123014472000,0.968471923828125,0.018068313598632812,0.017907176166772842,0.030646339058876038
1761132123024472000,0.97847216796875,0.018068313598632812,0.01778855174779892,0.03063659369945526
1761132123034472000,0.988471923828125,0.05158710479736328,-0.023118313401937485,-0.0029834210872650146
1761132123044472000,0.99847216796875,0.08749675750732422,0.048631176352500916,-0.029057413339614868
1761132123054472000,1.008471923828125,-0.06812858581542969,0.05831730365753174,-0.07202422618865967
1761132123064471800,1.018471923828125,0.1473531723022461,-0.04475240036845207,-0.0890297144651413
1761132123074472200,1.02847216796875,0.015669822692871094,-0.05936101824045181,-0.07931442558765411
1761132123084472300,1.038472412109375,0.030031204223632812,-0.0066868215799331665,-0.03117460012435913
1761132123094472200,1.04847216796875,-0.03701019287109375,0.036392100155353546,0.005015209317207336
1761132123104472300,1.058472412109375,0.16170597076416016,0.0025253500789403915,0.05296766757965088
1761132123114473200,1.06847314453125,0.10424041748046875,-0.10804318636655807,0.04839231073856354
1761132123124473000,1.07847314453125,0.05156898498535156,-0.048070311546325684,0.06276702880859375
1761132123134473200,1.08847314453125,-0.02025604248046875,0.036062393337488174,0.050807639956474304
1761132123144473000,1.09847314453125,-0.0825052261352539,0.019438453018665314,0.02204643189907074
1761132123154473200,1.10847314453125,0.03241920471191406,-0.07143351435661316,-0.0355413481593132
1761132123164473000,1.11847314453125,0.14015579223632812,-0.01406056061387062,-0.06893476098775864
1761132123174473200,1.12847314453125,0.06593036651611328,0.07193699479103088,-0.0758453756570816
1761132123184473000,1.13847314453125,0.06353473663330078,0.04068543761968613,-0.058957457542419434
1761132123194473200,1.14847314453125,-0.060962677001953125,-0.04540945217013359,-0.05659082531929016
1761132123204473000,1.15847314453125,0.006073951721191406,-0.006776023656129837,-0.02531638741493225
1761132123214472400,1.168472412109375,0.0515594482421875,0.017132200300693512,-0.0034704655408859253
1761132123224472300,1.178472412109375,-0.04899883270263672,-0.006881002336740494,0.04210419952869415
1761132123234472400,1.188472412109375,-0.01308441162109375,-0.06674103438854218,0.061199113726615906
1761132123244472300,1.198472412109375,0.08747005462646484,-0.052503202110528946,0.07329864799976349
1761132123254472400,1.208472412109375,0.008462905883789062,0.002651592716574669,0.05162550508975983
1761132123264472300,1.218472412109375,0.008463859558105469,0.0026824194937944412,0.05152462422847748
1761132123274472400,1.228472412109375,0.022830963134765625,-0.006888050585985184,-0.008488491177558899
1761132123284473000,1.23847314453125,0.08507919311523438,-0.021264538168907166,-0.04669645428657532
1761132123294473000,1.248472900390625,0.01804065704345703,0.007373269647359848,-0.05381224304437637
1761132123304472800,1.258472900390625,-0.005901336669921875,0.038498420268297195,-0.06817727535963058
1761132123314473700,1.2684736328125,0.015645980834960938,0.007439039647579193,-0.05613291263580322
1761132123324473900,1.278473876953125,0.04437446594238281,-0.02602424845099449,-0.05115220695734024
1761132123334473700,1.2884736328125,0.044373512268066406,-0.025958172976970673,-0.051078714430332184
1761132123344473900,1.298473876953125,0.00606536865234375,-0.006680291146039963,0.006469950079917908
1761132123354473700,1.3084736328125,0.030004501342773438,-0.00901896134018898,0.042575299739837646
1761132123364473900,1.318473876953125,0.05873394012451172,-0.028284035623073578,0.05702817440032959
1761132123374473700,1.3284736328125,0.07549190521240234,-0.03315088152885437,0.0450635701417923
1761132123384473900,1.338473876953125,0.04197216033935547,-0.021273843944072723,0.016380488872528076
1761132123394473700,1.3484736328125,0.008458137512207031,-0.018524184823036194,-0.002999231219291687
1761132123404473900,1.358473876953125,0.008459091186523438,-0.016038984060287476,-0.027027621865272522
1761132123414473000,1.368472900390625,0.0659189224243164,0.007830269634723663,-0.04611608386039734
1761132123424472800,1.378472900390625,0.010850906372070312,0.0029504764825105667,-0.07236607372760773
1761132123434473000,1.388472900390625,-0.03224372863769531,-0.006427939981222153,-0.04840109497308731
1761132123444472800,1.398472900390625,0.006062507629394531,0.010612936690449715,-0.02438408136367798
1761132123454473000,1.408472900390625,0.09703922271728516,0.003392862156033516,-0.0001830756664276123
1761132123464472800,1.418472900390625,0.01563739776611328,-0.02270692214369774,0.014182358980178833
1761132123474473000,1.428472900390625,-0.09688949584960938,-0.039269521832466125,0.042916059494018555
1761132123484472800,1.438472900390625,0.17365360260009766,-0.00607961043715477,0.04058849811553955
1761132123494473000,1.448472900390625,0.022813796997070312,-0.020785458385944366,0.04314860701560974
1761132123504472800,1.458472900390625,-0.044220924377441406,-0.04924695938825607,0.004760131239891052
1761132123514473700,1.4684736328125,0.03718280792236328,-0.0034861452877521515,-0.0024650394916534424
1761132123524473900,1.478473876953125,0.05154991149902344,0.006101988255977631,-0.0025644153356552124
1761132123534473700,1.4884736328125,-0.0035152435302734375,-0.015413515269756317,-0.028982013463974
1761132123544473900,1.498473876953125,0.056339263916015625,0.027708306908607483,-0.05524176359176636
1761132123554473700,1.5084736328125,0.04676055908203125,0.025319881737232208,-0.036010049283504486
1761132123564473900,1.518473876953125,0.03000164031982422,-0.010594498366117477,-0.031241096556186676
1761132123574473700,1.5284736328125,0.018032073974609375,0.0015509314835071564,-0.0025447309017181396
1761132123584473000,1.53847314453125,0.05155181884765625,0.016087768599390984,0.02132411301136017
1761132123594473200,1.54847314453125,0.013247489929199219,-0.03400987386703491,0.01634366810321808
1761132123604472800,1.558472900390625,0.0467681884765625,-0.031565651297569275,0.03300032019615173
1761132123617812700,1.571812744140625,0.025220870971679688,-0.01716122031211853,0.04017971456050873
1761132123627812900,1.581812744140625,0.013250350952148438,-0.00038939714431762695,0.0065808892250061035
1761132123637812700,1.591812744140625,0.003673553466796875,0.026029296219348907,0.0018254518508911133
1761132123647812900,1.601812744140625,0.02761363983154297,0.0018414072692394257,-0.019603557884693146
1761132123657812700,1.611812744140625,0.02761077880859375,0.0016944855451583862,-0.019473426043987274
1761132123667812900,1.621812744140625,0.018034934997558594,0.015999743714928627,-0.03385337442159653
1761132123677812700,1.631812744140625,0.03240013122558594,0.0063986703753471375,-0.05545815825462341
1761132123687812900,1.641812744140625,0.04437065124511719,-0.000738244503736496,-0.03862376511096954
1761132123697812700,1.651812744140625,0.0036687850952148438,-0.01027621328830719,-0.021867670118808746
1761132123707812900,1.661812744140625,0.0371856689453125,-0.005493365228176117,-0.002536565065383911
1761132123717813800,1.671813720703125,0.03957843780517578,0.006469160318374634,0.03830321133136749
1761132123727813600,1.681813720703125,0.09464550018310547,-0.01508578285574913,0.01907120645046234
1761132123737813500,1.6918134765625,0.05873298645019531,-0.022288192063570023,-0.00486929714679718
1761132123747813600,1.701813720703125,0.015638351440429688,-0.002962075173854828,-0.002528637647628784
1761132123757813800,1.711813720703125,-0.02266693115234375,-0.0004585161805152893,-0.019395612180233
1761132123767813600,1.721813720703125,-0.0035114288330078125,0.009284179657697678,-0.02192159742116928
1761132123777813800,1.731813720703125,0.013249397277832031,-0.00023949891328811646,0.0019567012786865234
1761132123787813600,1.741813720703125,0.10422897338867188,0.01655362732708454,-0.026835769414901733
1761132123797813800,1.751813720703125,-0.003509521484375,-0.012172635644674301,0.001934051513671875
1761132123807813600,1.761813720703125,-0.017873764038085938,-0.019262630492448807,-0.012497961521148682
1761132123817812700,1.771812744140625,0.08268165588378906,-0.002618614584207535,0.009079188108444214
1761132123827812900,1.781812744140625,-0.017876625061035156,-0.021895572543144226,0.016429662704467773
1761132123837812700,1.791812744140625,-0.07294273376464844,-0.014559663832187653,0.011589139699935913
1761132123847812900,1.801812744140625,-0.008299827575683594,-0.012057363986968994,0.011698544025421143
1761132123857812700,1.811812744140625,0.041977882385253906,-0.01206287369132042,-0.009908124804496765
1761132123867812900,1.821812744140625,0.05395030975341797,-0.01912645623087883,-0.019475065171718597
1761132123877812700,1.831812744140625,0.0204315185546875,0.009602870792150497,-0.029052093625068665
1761132123887812900,1.841812744140625,-0.08970260620117188,0.03350767493247986,-0.012269794940948486
1761132123897812700,1.851812744140625,-0.015482902526855469,-0.009725868701934814,-0.007470309734344482
1761132123907813000,1.861813232421875,0.1425323486328125,0.0022354796528816223,0.007013723254203796
1761132123917814000,1.87181396484375,0.0635232925415039,-0.00502115860581398,-0.00012299418449401855
1761132123927814000,1.88181396484375,-0.04660511016845703,-0.011986751109361649,-0.009934157133102417
1761132123937814000,1.89181396484375,-0.017873764038085938,0.012142373248934746,-0.02680756151676178
1761132123947814000,1.90181396484375,0.04437541961669922,0.009728364646434784,-0.024411842226982117
1761132123957814000,1.91181396484375,0.05634593963623047,-0.011840879917144775,-0.02442985773086548
1761132123967814000,1.92181396484375,0.0036725997924804688,-0.006865367293357849,-0.019519232213497162
1761132123977814000,1.93181396484375,0.015645980834960938,0.009947128593921661,-0.010006025433540344
1761132123987814000,1.94181396484375,0.049163818359375,0.00023244693875312805,0.01153363287448883
1761132123997814000,1.95181396484375,0.046769142150878906,-0.014268092811107635,0.011564463376998901
1761132124007814000,1.96181396484375,0.027614593505859375,-0.028589222580194473,0.002043113112449646
1761132124017813200,1.971813232421875,0.015644073486328125,-0.026136696338653564,0.018797695636749268
1761132124027813000,1.981813232421875,0.061133384704589844,-0.004667714238166809,0.009227141737937927
1761132124037813200,1.991813232421875,0.008459091186523438,0.0120182354003191,-0.009861409664154053
1761132124047813000,2.001813232421875,0.030008316040039062,-0.004682403057813644,-0.026625633239746094
1761132124057813200,2.011813232421875,0.020429611206054688,0.014403261244297028,-0.028895914554595947
1761132124067813000,2.021813232421875,0.03240013122558594,0.011989818885922432,-0.00974072515964508
1761132124077813000,2.03181298828125,0.02761077880859375,-0.0023911744356155396,-0.009680688381195068
1761132124087813000,2.041813232421875,0.04676342010498047,-0.004858572036027908,-0.019192345440387726
1761132124097813000,2.05181298828125,0.022820472717285156,-0.011981181800365448,-0.02396613359451294
1761132124107813000,2.061813232421875,0.0036668777465820312,0.012008676305413246,-0.0023235976696014404
1761132124117814000,2.07181396484375,0.0347900390625,0.007270030677318573,0.004973217844963074
1761132124127814000,2.08181396484375,0.056336402893066406,-0.0047562457621097565,-0.0165305957198143
1761132124137814000,2.09181396484375,-0.0035190582275390625,-0.004773914813995361,-0.011720940470695496
1761132124147814000,2.10181396484375,0.02281665802001953,-0.004732236266136169,-0.023656323552131653
1761132124157814000,2.11181396484375,0.037181854248046875,-0.011916723102331161,-0.006916552782058716
1761132124167814000,2.12181396484375,0.029999732971191406,-0.011912830173969269,0.014670595526695251
1761132124177814000,2.13181396484375,0.03718280792236328,-0.011917557567358017,-0.0021474063396453857
1761132124187814000,2.14181396484375,0.010849952697753906,-0.011873744428157806,-0.009510889649391174
1761132124197814000,2.15181396484375,-0.015485763549804688,-0.00703020766377449,0.0048102885484695435
1761132124207814000,2.16181396484375,0.025216102600097656,0.00003092363476753235,0.004761591553688049
1761132124217813200,2.171813232421875,0.049157142639160156,-0.007348630577325821,0.02151767909526825
1761132124227813000,2.181813232421875,0.04915809631347656,-0.007353745400905609,0.021458953619003296
1761132124237813200,2.191813232421875,0.020427703857421875,-0.021738238632678986,0.0023070573806762695
1761132124247813000,2.201813232421875,0.03479194641113281,0.002065073698759079,0.01666395366191864
1761132124257813200,2.211813232421875,0.0036668777465820312,-0.0003289952874183655,0.009481385350227356
1761132124267813000,2.221813232421875,0.04197406768798828,-0.00034784525632858276,-0.014458909630775452
1761132124277813200,2.231813232421875,0.039581298828125,0.011741364374756813,-0.026420176029205322
1761132124287813000,2.241813232421875,-0.003513336181640625,-0.005043938755989075,-0.03607349842786789
1761132124297813200,2.251813232421875,0.049160003662109375,-0.00019943714141845703,-0.045694172382354736
1761132124307813000,2.261813232421875,0.049160003662109375,-0.0001402720808982849,-0.04569883644580841
1761132124317814000,2.27181396484375,0.00606536865234375,0.0121432114392519,-0.028965413570404053
1761132124327814000,2.28181396484375,0.013245582580566406,-0.009411465376615524,0.01189391314983368
1761132124337814000,2.29181396484375,0.0036678314208984375,-0.016530759632587433,0.04067818820476532
1761132124347814000,2.30181396484375,0.07549571990966797,-0.02354051172733307,0.026259243488311768
1761132124357814000,2.31181396484375,0.07549571990966797,-0.023559927940368652,0.026260897517204285
1761132124367814000,2.32181396484375,0.027611732482910156,-0.013983815908432007,0.02386660873889923
1761132124377814000,2.33181396484375,0.0419769287109375,-0.013980317860841751,0.026299983263015747
1761132124387814000,2.34181396484375,0.10422325134277344,-0.002159029245376587,-0.02628140151500702
1761132124397814000,2.35181396484375,0.015638351440429688,0.0002397187054157257,-0.050164736807346344
1761132124407814000,2.36181396484375,0.03239727020263672,0.031403303146362305,-0.04298540949821472
1761132124417813200,2.371813232421875,0.015639305114746094,0.012360623106360435,-0.031102247536182404
1761132124427813000,2.381813232421875,-0.020273208618164062,-0.0042414553463459015,-0.026307478547096252
1761132124437813200,2.391813232421875,0.113800048828125,-0.009158458560705185,-0.02140996605157852
1761132124447813000,2.401813232421875,0.025213241577148438,0.005134912207722664,-0.00696013867855072
1761132124457813200,2.411813232421875,0.0012712478637695312,-0.009052634239196777,0.0169869065284729
1761132124467813000,2.421813232421875,0.039580345153808594,-0.02336231619119644,0.026519790291786194
1761132124477813200,2.431813232421875,0.013241767883300781,-0.016254078596830368,0.02419033646583557
1761132124487813000,2.441813232421875,0.04197406768798828,-0.006565026938915253,0.024122074246406555
1761132124497813000,2.45181298828125,0.0635213851928711,-0.008974183350801468,-0.004548192024230957
1761132124507813000,2.461813232421875,0.01324462890625,-0.006590347737073898,-0.004665672779083252
1761132124517814000,2.47181396484375,0.04437065124511719,-0.013803299516439438,-0.023935168981552124
1761132124527814000,2.48181396484375,0.06352424621582031,0.00038507580757141113,-0.011969059705734253
1761132124537814000,2.49181396484375,-0.0035142898559570312,-0.009150497615337372,-0.026317760348320007
1761132124547814000,2.50181396484375,0.0012760162353515625,0.017319438979029655,-0.016791336238384247
1761132124557814000,2.51181396484375,0.04676532745361328,0.010194942355155945,-0.01920970529317856
1761132124567814000,2.52181396484375,0.022823333740234375,0.002935469150543213,-0.0024242252111434937
1761132124577814000,2.53181396484375,0.010852813720703125,0.0005960129201412201,-0.014439418911933899
1761132124587814000,2.54181396484375,0.03240013122558594,-0.016180675476789474,0.01670658588409424
1761132124597814000,2.55181396484375,0.018036842346191406,0.0054764579981565475,0.014204993844032288
1761132124607814000,2.56181396484375,0.010855674743652344,-0.023319337517023087,0.016525790095329285
1761132124617813000,2.57181298828125,0.037192344665527344,0.0030069053173065186,0.011620014905929565
1761132124627813000,2.581813232421875,0.03000926971435547,0.005328865721821785,-0.007468268275260925
1761132124637813000,2.59181298828125,0.020433425903320312,-0.0019223466515541077,0.004390239715576172
1761132124647813000,2.601813232421875,0.02761554718017578,-0.016306445002555847,-0.014761537313461304
1761132124657813000,2.61181298828125,0.030010223388671875,0.005285447463393211,-0.029071301221847534
1761132124667813000,2.621813232421875,0.03240394592285156,-0.013868030160665512,-0.026677057147026062
1761132124677813000,2.63181298828125,0.025223731994628906,-0.02105899527668953,-0.014803856611251831
1761132124687813000,2.641813232421875,0.006069183349609375,0.01248287595808506,-0.021948911249637604
1761132124697813000,2.65181298828125,0.032405853271484375,-0.0041615329682827,-0.002824753522872925
1761132124707813000,2.661813232421875,0.04916572570800781,-0.02804640308022499,0.02109287679195404
1761132124717813800,2.671813720703125,0.039589881896972656,-0.008833888918161392,0.018693923950195312
1761132124727814000,2.68181396484375,0.025224685668945312,-0.008859381079673767,0.02103087306022644
1761132124737813800,2.691813720703125,0.025226593017578125,0.0031619034707546234,-0.017379023134708405
1761132124747814000,2.70181396484375,0.030017852783203125,-0.011100072413682938,-0.0247470885515213
1761132124757814000,2.71181396484375,0.025231361389160156,-0.00626203790307045,-0.015292301774024963
1761132124767814000,2.72181396484375,0.025231361389160156,0.01051337644457817,-0.022515587508678436
1761132124777814000,2.73181396484375,0.04917621612548828,-0.018172413110733032,-0.03464818745851517
1761132124787814000,2.74181396484375,0.04438972473144531,0.00346355140209198,-0.027590885758399963
1761132124797814000,2.75181396484375,0.06115150451660156,-0.005987104028463364,-0.0061910152435302734
1761132124807814000,2.76181396484375,0.06594276428222656,-0.02728917822241783,0.0008727312088012695
1761132124817813000,2.77181298828125,0.049185752868652344,-0.022192761301994324,0.0007882416248321533
1761132124827813000,2.781813232421875,0.06595039367675781,-0.01922907680273056,0.01969774067401886
1761132124837813000,2.79181298828125,0.04680061340332031,-0.037765588611364365,0.04349015653133392
1761132124847813000,2.801813232421875,0.008500099182128906,-0.0035448744893074036,0.03599344193935394
1761132124857813000,2.81181298828125,-0.04895496368408203,0.0018726252019405365,0.02377365529537201
1761132124867813000,2.821813232421875,0.19765377044677734,0.009666258469223976,0.0019981861114501953
1761132124877813000,2.83181298828125,-0.027398109436035156,-0.01847810298204422,-0.026780754327774048
1761132124887813000,2.841813232421875,0.001338958740234375,0.0613570436835289,-0.0749102532863617
1761132124897813000,2.85181298828125,-0.20934772491455078,0.03800230100750923,-0.04620896279811859
1761132124907813000,2.861813232421875,0.06838321685791016,-0.016777891665697098,-0.06785934418439865
1761132124917813800,2.871813720703125,0.11147689819335938,-0.028858743607997894,0.0016796886920928955
1761132124927814000,2.88181396484375,-0.039356231689453125,-0.028690259903669357,0.04466328024864197
1761132124937813800,2.891813720703125,0.025289535522460938,0.031393393874168396,0.05414268374443054
1761132124947814000,2.90181396484375,0.025290489196777344,0.031388670206069946,0.05408409237861633
1761132124957813800,2.911813720703125,0.006136894226074219,-0.05253187566995621,0.04922732710838318
1761132124967814000,2.92181396484375,0.04444694519042969,-0.006977476179599762,0.01793961226940155
1761132124977814000,2.93181396484375,0.03966045379638672,0.016934599727392197,-0.0013488531112670898
1761132124987814000,2.94181396484375,0.02529621124267578,-0.009448077529668808,-0.044538840651512146
1761132124997814000,2.95181396484375,0.025295257568359375,0.014419123530387878,-0.07322365045547485
1761132125007814000,2.96181396484375,0.03726768493652344,0.03583482652902603,-0.04944793879985809
1761132125017813200,2.971813232421875,0.0205078125,-0.007541052997112274,-0.04232090711593628
1761132125027813000,2.981813232421875,0.0013551712036132812,0.004405688494443893,-0.016041651368141174
1761132125037813200,2.991813232421875,-0.07047176361083984,-0.0771961361169815,0.0126657634973526
1761132125047813000,3.001813232421875,1.9310836791992188,0.11683879792690277,-0.011442244052886963
1761132125057813200,3.011813232421875,1.0571231842041016,-0.014096777886152267,0.1581660807132721
1761132125067813000,3.021813232421875,-0.3242807388305664,-0.2995164394378662,-0.022133000195026398
1761132125077813200,3.031813232421875,-0.2979755401611328,0.06365533918142319,0.06683453917503357
1761132125087813000,3.041813232421875,0.01806640625,0.057249266654253006,0.015549182891845703
1761132125097813200,3.051813232421875,0.018057823181152344,0.057055700570344925,0.016057461500167847
1761132125117814000,3.07181396484375,-0.2524843215942383,0.01614062301814556,-0.04160235822200775
1761132125127814000,3.08181396484375,0.039600372314453125,0.013170983642339706,-0.06033451855182648
1761132125137814000,3.09181396484375,0.2981700897216797,0.03167783096432686,-0.0914253294467926
1761132125147814000,3.10181396484375,0.09704971313476562,0.012230958789587021,-0.033467940986156464
1761132125157814000,3.11181396484375,0.022823333740234375,-0.03585835546255112,0.04112359881401062
1761132125167814000,3.12181396484375,0.2071847915649414,0.009709727019071579,0.1292303502559662
1761132125177814500,3.131814453125,0.13056182861328125,-0.007181718945503235,0.06752331554889679
1761132125187814400,3.141814453125,0.1473217010498047,-0.05537176504731178,0.04105505347251892
1761132125197814500,3.151814453125,-0.013088226318359375,-0.0025036074221134186,0.0554041713476181
1761132125207814400,3.161814453125,-0.07533550262451172,0.0165354385972023,-0.007032677531242371
1761132125217813800,3.171813720703125,0.08986949920654297,-0.009717799723148346,-0.0553368479013443
1761132125227813600,3.181813720703125,0.06592369079589844,-0.000016398727893829346,-0.1124737337231636
1761132125237813800,3.191813720703125,-0.08730411529541016,0.012068390846252441,-0.07659047842025757
1761132125247813600,3.201813720703125,-0.08730316162109375,0.01212405413389206,-0.07663434743881226
1761132125257813800,3.211813720703125,0.10901451110839844,0.011962328106164932,-0.04987155646085739
1761132125267813600,3.221813720703125,0.03239250183105469,-0.026357684284448624,-0.01340620219707489
1761132125277813800,3.231813720703125,-0.013097763061523438,-0.021362751722335815,0.022627338767051697
1761132125287813600,3.241813720703125,0.08027458190917969,-0.016750387847423553,0.09925632178783417
1761132125297813800,3.251813720703125,0.03239250183105469,-0.02154429629445076,0.06567864120006561
1761132125307813600,3.261813720703125,0.05633258819580078,-0.004776660352945328,0.060988008975982666
1761132125317814300,3.271814208984375,0.03717803955078125,-0.012176424264907837,0.027448132634162903
1761132125327814400,3.281814453125,-0.0202789306640625,0.0067771244794130325,-0.018320254981517792
1761132125337814300,3.291814208984375,0.015633583068847656,0.011385403573513031,-0.02794089913368225
1761132125347814400,3.301814453125,0.09464073181152344,0.02795194461941719,-0.06619308143854141
1761132125357814300,3.311814208984375,0.0228118896484375,0.006221754476428032,-0.07080888748168945
1761132125367814400,3.321814453125,-0.03943824768066406,-0.03224197030067444,-0.05643077194690704
1761132125377814300,3.331814208984375,0.03717327117919922,-0.037072692066431046,0.0012304335832595825
1761132125387814400,3.341814453125,-0.10169315338134766,0.008338123559951782,0.02060745656490326
1761132125397814300,3.351814208984375,0.046744346618652344,-0.008466675877571106,0.03034546971321106
1761132125407814400,3.361814453125,0.0012559890747070312,-0.05888846516609192,0.037461116909980774
1761132125417813500,3.3718134765625,0.1065988540649414,-0.020532306283712387,0.04954621195793152
1761132125427813600,3.381813720703125,0.14969348907470703,0.003194965422153473,0.03519889712333679
1761132125437813500,3.3918134765625,-0.015506744384765625,-0.013579007238149643,0.013711407780647278
1761132125447813600,3.401813720703125,-0.017900466918945312,-0.023042313754558563,-0.0031161606311798096
1761132125457813500,3.4118134765625,0.022802352905273438,-0.01087939366698265,-0.01753658801317215
1761132125467813600,3.421813720703125,0.06589698791503906,0.020291768014431,-0.041384339332580566
1761132125477813000,3.43181298828125,0.018016815185546875,0.015423815697431564,-0.06796976923942566
1761132125487813000,3.441813232421875,-0.08014678955078125,-0.013361360877752304,-0.046377770602703094
1761132125497813000,3.45181298828125,0.07547569274902344,-0.003821849822998047,-0.01044204831123352
1761132125507813000,3.461813232421875,0.0299835205078125,0.015166878700256348,0.006468787789344788
1761132125517814000,3.47181396484375,-0.027475357055664062,-0.018236033618450165,0.0351700484752655
1761132125527814000,3.48181396484375,0.04195213317871094,-0.020815804600715637,0.05206283926963806
1761132125537814000,3.49181396484375,0.04195213317871094,-0.0281948484480381,0.0640307068824768
1761132125547814000,3.50181396484375,0.08744049072265625,-0.004323184490203857,0.054558008909225464
1761132125557813800,3.511813720703125,0.041953086853027344,0.02438712678849697,-0.0031374692916870117
1761132125577814000,3.53181396484375,0.01801013946533203,-0.014094799757003784,-0.04142984747886658
1761132125587814000,3.54181396484375,0.049134254455566406,0.014581188559532166,-0.04615499824285507
1761132125597814000,3.55181396484375,0.013218879699707031,0.03358665481209755,-0.03886166214942932
1761132125607814000,3.56181396484375,0.018007278442382812,-0.014437951147556305,-0.019735999405384064
1761132125617813000,3.57181298828125,0.039557456970214844,-0.021628905087709427,-0.01743961125612259
1761132125627813000,3.581813232421875,0.03237342834472656,-0.016836337745189667,0.01613776385784149
1761132125637813000,3.59181298828125,0.020402908325195312,-0.007322054356336594,0.023285910487174988
1761132125647813000,3.601813232421875,-0.0011453628540039062,0.006963223218917847,0.05200321972370148
1761132125657813000,3.61181298828125,0.0730743408203125,-0.031402505934238434,0.018489286303520203
1761132125667813000,3.621813232421875,0.061104774475097656,-0.0002650730311870575,0.016015201807022095
1761132125677813000,3.63181298828125,0.049134254455566406,0.009249303489923477,0.0016156882047653198
1761132125687813000,3.641813232421875,0.03477001190185547,0.01642717979848385,-0.03435591608285904
1761132125697813000,3.65181298828125,0.025191307067871094,-0.00028125569224357605,-0.0366164892911911
1761132125707813000,3.661813232421875,0.041950225830078125,0.026035677641630173,-0.024643778800964355
1761132125717813800,3.671813720703125,0.010827064514160156,0.004546625539660454,-0.022254392504692078
1761132125727814000,3.68181396484375,0.039557456970214844,-0.02169416844844818,-0.01749371737241745
1761132125737813800,3.691813720703125,0.029981613159179688,-0.016868941485881805,0.02318471670150757
1761132125747814000,3.70181396484375,0.02758502960205078,0.004728330299258232,0.04245257377624512
1761132125757813800,3.711813720703125,0.044345855712890625,0.0023888573050498962,0.01605306565761566
1761132125767814000,3.72181396484375,0.03477001190185547,-0.0022849924862384796,0.00403343141078949
1761132125777813800,3.731813720703125,0.037163734436035156,-0.0022403523325920105,0.004088908433914185
1761132125787814000,3.74181396484375,0.018011093139648438,0.0027204714715480804,-0.010330051183700562
1761132125797813800,3.751813720703125,0.027588844299316406,0.012389840558171272,-0.01279093325138092
1761132125807814000,3.76181396484375,0.04195404052734375,0.0004189610481262207,-0.027156099677085876
1761132125817813000,3.77181298828125,0.044348716735839844,0.009981382638216019,-0.029490090906620026
1761132125827812900,3.781812744140625,0.0012531280517578125,-0.011448618024587631,0.0016441494226455688
1761132125837813000,3.79181298828125,0.008436203002929688,0.0006157830357551575,0.0015775859355926514
1761132125847812900,3.801812744140625,0.027591705322265625,-0.004124339669942856,0.00863783061504364
1761132125857813000,3.81181298828125,0.04674530029296875,-0.0016109831631183624,0.02540716528892517
1761132125867812900,3.821812744140625,0.02280426025390625,-0.023066185414791107,0.030128762125968933
1761132125877813000,3.83181298828125,0.05393028259277344,-0.001459214836359024,0.02054727077484131
1761132125887812900,3.841812744140625,0.039565086364746094,-0.015783976763486862,-0.0009843111038208008
1761132125897813000,3.85181298828125,0.0347747802734375,-0.0038824081420898438,0.011091113090515137
1761132125907812900,3.861812744140625,0.02519702911376953,-0.0062915608286857605,0.001574486494064331
1761132125917813800,3.871813720703125,-0.0011415481567382812,-0.008635599166154861,-0.01265724003314972
1761132125927814000,3.88181396484375,0.013223648071289062,0.012975966557860374,-0.022180169820785522
1761132125937813800,3.891813720703125,0.027589797973632812,-0.0037486478686332703,-0.007876783609390259
1761132125947814000,3.90181396484375,0.049137115478515625,-0.0013494603335857391,-0.007818102836608887
1761132125957813800,3.911813720703125,0.04195404052734375,-0.01573408767580986,-0.0030280351638793945
1761132125967814000,3.92181396484375,0.010828971862792969,-0.006053205579519272,0.020984023809432983
1761132125977813800,3.931813720703125,0.008435249328613281,0.008428588509559631,0.02336840331554413
1761132125987814000,3.94181396484375,0.053924560546875,-0.0012266598641872406,0.006615385413169861
1761132125997813800,3.951813720703125,0.03237438201904297,-0.05151459947228432,-0.0028424859046936035
1761132126007814000,3.96181396484375,0.039557456970214844,-0.008454568684101105,0.009170949459075928
1761132126017813000,3.97181298828125,0.04195117950439453,-0.0035825632512569427,-0.005142048001289368
1761132126027813000,3.981813232421875,0.037161827087402344,0.003580622375011444,0.0044364333152771
1761132126037813000,3.99181298828125,0.022795677185058594,0.010748796164989471,-0.017051048576831818
1761132126047813000,4.001813232421875,0.029979705810546875,0.0035614632070064545,-0.02189803123474121
1761132126057813000,4.01181298828125,0.020402908325195312,0.003605540841817856,-0.005083173513412476
1761132126067813000,4.021813232421875,0.05152606964111328,0.005940204486250877,-0.005078643560409546
1761132126077813000,4.03181298828125,0.02997875213623047,0.008315373212099075,-0.0026826411485671997
1761132126087813000,4.041813232421875,0.025190353393554688,0.003507167100906372,0.01168408989906311
1761132126097813000,4.05181298828125,0.03476715087890625,-0.0036118142306804657,0.00455532968044281
1761132126107813000,4.061813232421875,0.022795677185058594,-0.0012361295521259308,-0.002625301480293274
1761132126117814000,4.07181396484375,-0.0035400390625,-0.008360356092453003,-0.005024448037147522
1761132126127814000,4.08181396484375,0.041950225830078125,-0.0034793317317962646,0.014062359929084778
1761132126137814000,4.09181396484375,0.027584075927734375,-0.010596957057714462,0.016529828310012817
1761132126147814000,4.10181396484375,0.053920745849609375,-0.010676629841327667,0.02130521833896637
1761132126157814000,4.11181396484375,0.03955554962158203,0.006123235449194908,0.009350404143333435
1761132126167814000,4.12181396484375,0.015613555908203125,0.006128733977675438,0.009409278631210327
1761132126177814000,4.13181396484375,0.02997875213623047,-0.005744371563196182,0.004612714052200317
1761132126187814000,4.14181396484375,0.04194927215576172,-0.01771486923098564,0.0046128928661346436
1761132126197814000,4.15181396484375,0.02997875213623047,-0.00809922069311142,-0.007361456751823425
1761132126207814000,4.16181396484375,0.010823249816894531,-0.0057142190635204315,-0.014424927532672882
1761132126217813200,4.171813232421875,0.03236961364746094,-0.0008214786648750305,0.016769826412200928
1761132126227813000,4.181813232421875,0.027582168579101562,0.025573117658495903,-0.016753949224948883
1761132126237813200,4.191813232421875,0.022792816162109375,-0.0032348409295082092,-0.0047762393951416016
1761132126247813000,4.201813232421875,0.00363922119140625,0.011169631034135818,-0.011962160468101501
1761132126257813200,4.211813232421875,0.02758312225341797,0.006317431107163429,0.007137700915336609
1761132126267813000,4.221813232421875,0.04913139343261719,-0.01056503877043724,0.009463518857955933
1761132126277813200,4.231813232421875,0.046736717224121094,-0.008248504251241684,0.007075980305671692
1761132126287813000,4.241813232421875,0.032372474670410156,-0.0034058019518852234,-0.009746730327606201
1761132126297813200,4.251813232421875,0.027584075927734375,-0.0034258663654327393,0.002225711941719055
1761132126307813000,4.261813232421875,0.049129486083984375,0.01087138056755066,0.002349644899368286
1761132126317814000,4.27181396484375,0.013215065002441406,0.013192811980843544,-0.004767805337905884
1761132126327814000,4.28181396484375,0.027581214904785156,-0.0011773817241191864,-0.016797490417957306
1761132126337814000,4.29181396484375,0.020399093627929688,-0.00119679793715477,-0.016795821487903595
1761132126347814000,4.30181396484375,0.027582168579101562,0.008373279124498367,-0.019268296658992767
1761132126357814000,4.31181396484375,0.029977798461914062,0.006034610792994499,-0.012129604816436768
1761132126367814000,4.32181396484375,0.0467376708984375,-0.01547909528017044,0.004567891359329224
1761132126377814000,4.33181396484375,0.02997875213623047,-0.020266983658075333,0.02611587941646576
1761132126387814000,4.34181396484375,0.044345855712890625,-0.013154208660125732,0.006830349564552307
1761132126397814000,4.35181396484375,0.06349945068359375,-0.008324842900037766,0.0379713773727417
1761132126407814000,4.36181396484375,0.029981613159179688,0.015724487602710724,0.0019312798976898193
1761132126417813000,4.37181298828125,0.022798538208007812,0.01099524274468422,0.009109199047088623
1761132126427813000,4.381813232421875,0.025194168090820312,0.013488920405507088,-0.010032892227172852
1761132126437813000,4.39181298828125,0.02279949188232422,0.015883807092905045,-0.007638603448867798
1761132126447813000,4.401813232421875,0.027587890625,0.003892570734024048,-0.012425482273101807
1761132126457813000,4.41181298828125,0.027586936950683594,0.0038128942251205444,-0.012438520789146423
1761132126467813000,4.421813232421875,0.018012046813964844,-0.010557685047388077,-0.005314737558364868
1761132126477813000,4.43181298828125,0.03477287292480469,-0.0009273514151573181,0.018563702702522278
1761132126487813000,4.441813232421875,0.03716754913330078,0.006231369450688362,0.006535857915878296
1761132126497813000,4.45181298828125,0.027591705322265625,0.006226258352398872,0.02084234356880188
1761132126507813000,4.461813232421875,0.03716850280761719,0.003763582557439804,0.006364673376083374
1761132126517813800,4.471813720703125,0.022805213928222656,0.0013638362288475037,0.013488531112670898
1761132126527814000,4.48181396484375,0.0084381103515625,-0.010681148618459702,0.006370812654495239
1761132126537813800,4.491813720703125,0.013225555419921875,-0.013084929436445236,-0.012663811445236206
1761132126547814000,4.50181396484375,0.049139976501464844,-0.005809709429740906,-0.01991324871778488
1761132126557813800,4.511813720703125,0.039562225341796875,0.003752153366804123,-0.012670472264289856
1761132126567814000,4.52181396484375,0.01801300048828125,0.010939352214336395,-0.003035128116607666
1761132126577813800,4.531813720703125,0.018013954162597656,0.010914824903011322,-0.0030921846628189087
1761132126587814000,4.54181396484375,0.02998638153076172,-0.0178203247487545,-0.000756576657295227
1761132126597813800,4.551813720703125,0.02998638153076172,-0.02261345088481903,0.011155828833580017
1761132126607814000,4.56181396484375,0.02759075164794922,0.003649696707725525,0.01840364933013916
1761132126617813000,4.57181298828125,0.02040863037109375,-0.00827724114060402,0.011276483535766602
1761132126627813000,4.581813232421875,0.04195690155029297,0.008536085486412048,0.011213034391403198
1761132126637813000,4.59181298828125,0.04195690155029297,0.0013288222253322601,-0.005603492259979248
1761132126647813000,4.601813232421875,0.020409584045410156,-0.0034597069025039673,0.0015790760517120361
1761132126657813000,4.61181298828125,0.018014907836914062,0.006161170080304146,-0.003153890371322632
1761132126667813000,4.621813232421875,0.029985427856445312,-0.00354824960231781,-0.0006899237632751465
1761132126677813000,4.63181298828125,0.022802352905273438,0.006009140983223915,-0.003082484006881714
1761132126687813000,4.641813232421875,0.02759075164794922,-0.008302029222249985,-0.015116892755031586
1761132126697813000,4.65181298828125,0.020409584045410156,-0.0035183466970920563,-0.010387077927589417
1761132126707813000,4.661813232421875,0.03238201141357422,0.008505798876285553,-0.008056610822677612
1761132126717814000,4.67181396484375,0.02998828887939453,0.013333117589354515,-0.008059754967689514
1761132126727814000,4.68181396484375,0.0395660400390625,-0.0033723749220371246,0.0014536231756210327
1761132126737814000,4.69181396484375,0.027594566345214844,-0.012913201004266739,0.01338234543800354
1761132126747814000,4.70181396484375,0.02280712127685547,0.0038997381925582886,0.0037419497966766357
1761132126757814000,4.71181396484375,0.03477764129638672,0.0038905926048755646,-0.0033216774463653564
1761132126767814000,4.72181396484375,0.0395660400390625,-0.010415855795145035,0.0038561373949050903
1761132126777814000,4.73181396484375,0.027594566345214844,0.0015927739441394806,-0.010512694716453552
1761132126787814000,4.74181396484375,0.010835647583007812,-0.008003447204828262,0.013430997729301453
1761132126797814000,4.75181396484375,0.02041149139404297,-0.0031516775488853455,0.013484746217727661
1761132126807814000,4.76181396484375,0.02998828887939453,-0.015142109245061874,-0.0056672245264053345
1761132126817813000,4.77181298828125,0.029989242553710938,-0.0055244602262973785,-0.0271986722946167
1761132126827813000,4.781813232421875,0.029989242553710938,-0.005528237670660019,-0.027257069945335388
1761132126837813000,4.79181298828125,0.03477954864501953,0.0017086751759052277,-0.022531986236572266
1761132126847813000,4.801813232421875,0.03238487243652344,-0.0030995383858680725,-0.005771055817604065
1761132126857813000,4.81181298828125,0.015624046325683594,-0.010297350585460663,-0.0009225606918334961
1761132126867813000,4.821813232421875,0.049144744873046875,-0.010302074253559113,-0.0033753812313079834
1761132126877813000,4.83181298828125,0.02999114990234375,0.013620523735880852,0.006203100085258484
1761132126887813000,4.841813232421875,0.025200843811035156,-0.010316506028175354,-0.010497614741325378
1761132126897813000,4.85181298828125,0.03238391876220703,-0.029494255781173706,0.008599057793617249
1761132126907813000,4.861813232421875,0.03956794738769531,0.011261079460382462,0.01092982292175293
1761132126917813800,4.871813720703125,0.03238391876220703,0.0016098394989967346,0.013369783759117126
1761132126927814000,4.88181396484375,0.03717327117919922,0.01603032648563385,-0.0058278292417526245
1761132126937813800,4.891813720703125,0.02999114990234375,-0.012597765773534775,-0.00817158818244934
1761132126947814000,4.90181396484375,0.018019676208496094,-0.005419883877038956,-0.0034417659044265747
1761132126957813800,4.911813720703125,0.03477954864501953,0.013655411079525948,-0.0034353435039520264
1761132126967814000,4.92181396484375,0.020415306091308594,0.004073880612850189,0.0036886781454086304
1761132126977813800,4.931813720703125,0.03238677978515625,-0.012710966169834137,-0.0011571049690246582
1761132126987814000,4.94181396484375,0.03717517852783203,0.0016543716192245483,-0.003551274538040161
1761132126997813800,4.951813720703125,0.032387733459472656,-0.01026744395494461,-0.0012791156768798828
1761132127007814000,4.96181396484375,0.02999591827392578,0.016180504113435745,-0.013318553566932678
1761132127017813000,4.97181298828125,0.04196643829345703,-0.005449395626783371,0.008177265524864197
1761132127027813000,4.981813232421875,0.032390594482421875,0.00897509977221489,-0.006192564964294434
1761132127037813000,4.99181298828125,0.03957366943359375,-0.0006202980875968933,-0.018161766231060028
1761132127047813000,5.001813232421875,0.03238964080810547,-0.0007525309920310974,0.008244335651397705
1761132127057813000,5.01181298828125,0.04196643829345703,-0.005482424050569534,-0.01330837607383728
1761132127067813000,5.021813232421875,0.027601242065429688,-0.027054116129875183,0.0081825852394104
1761132127077813000,5.03181298828125,0.02042102813720703,-0.015152551233768463,-0.001525983214378357
1761132127087812900,5.041812744140625,0.022813796997070312,-0.007924512028694153,0.008125707507133484
1761132127097813000,5.05181298828125,0.03957366943359375,-0.003135591745376587,-0.025392934679985046
1761132127107812900,5.061812744140625,0.03478431701660156,-0.005604572594165802,-0.00379963219165802
1761132127117813800,5.071813720703125,0.037177085876464844,-0.0032248012721538544,0.005837529897689819
1761132127127814000,5.08181396484375,0.029994964599609375,-0.008013464510440826,-0.006133571267127991
1761132127137814000,5.09181396484375,0.04196453094482422,-0.003302335739135742,-0.010915189981460571
1761132127147814000,5.10181396484375,0.03478240966796875,-0.012957580387592316,-0.006120398640632629
1761132127157814000,5.11181396484375,0.037177085876464844,-0.0033857598900794983,0.0010035336017608643
1761132127167814000,5.12181396484375,0.041965484619140625,0.0037770457565784454,-0.006177559494972229
1761132127177814000,5.13181396484375,0.02760028839111328,0.0037169158458709717,-0.010980620980262756
1761132127187814000,5.14181396484375,0.03478431701660156,-0.0010764673352241516,-0.020616106688976288
1761132127197814000,5.15181396484375,0.037177085876464844,0.006032543256878853,-0.00858008861541748
1761132127207814000,5.16181396484375,0.04196643829345703,0.010913953185081482,-0.015829361975193024
1761132127217813000,5.17181298828125,0.03478431701660156,0.0036675557494163513,0.008058890700340271
1761132127227813000,5.181813232421875,0.04196453094482422,-0.025131475180387497,-0.006182610988616943
1761132127237813000,5.19181298828125,0.022809982299804688,-0.0035351254045963287,-0.0036744773387908936
1761132127247813000,5.201813232421875,0.025203704833984375,-0.005943454802036285,-0.008402541279792786
1761132127257813000,5.21181298828125,0.013232231140136719,0.017979661002755165,-0.01318909227848053
1761132127267813000,5.221813232421875,0.037174224853515625,-0.010691989213228226,-0.013193905353546143
1761132127277813000,5.23181298828125,0.03478050231933594,0.00850246474146843,-0.00838916003704071
1761132127287813000,5.241813232421875,0.020416259765625,-0.0034740418195724487,0.015494003891944885
1761132127297813000,5.25181298828125,0.03478240966796875,-0.0034802518784999847,-0.008526116609573364
1761132127307813000,5.261813232421875,0.022809982299804688,-0.010741304606199265,-0.0013371109962463379
1761132127317813800,5.271813720703125,0.008443832397460938,-0.005967855453491211,0.005905643105506897
1761132127327814000,5.28181396484375,0.0443572998046875,0.010733567178249359,0.01069912314414978
1761132127337813800,5.291813720703125,0.029993057250976562,0.00358494371175766,-0.010910645127296448
1761132127347814000,5.30181396484375,0.03717613220214844,0.00357983261346817,0.0010016262531280518
1761132127357813800,5.311813720703125,0.032387733459472656,-0.006016261875629425,-0.0061792731285095215
1761132127367814000,5.32181396484375,0.018021583557128906,0.008412182331085205,0.015422254800796509
1761132127377813800,5.331813720703125,0.018022537231445312,0.00120491161942482,-0.003788501024246216
1761132127387814000,5.34181396484375,0.04436016082763672,0.0011997632682323456,0.003335520625114441
1761132127397813800,5.351813720703125,0.0228118896484375,-0.0036083199083805084,-0.006239727139472961
1761132127407814000,5.36181396484375,0.03478240966796875,-0.017987657338380814,-0.001390993595123291
1761132127417813000,5.37181298828125,0.027599334716796875,-0.013258196413516998,-0.01096293330192566
1761132127427813000,5.381813232421875,0.03478050231933594,-0.003754854202270508,-0.006109461188316345
1761132127437813000,5.39181298828125,0.015626907348632812,-0.0037698037922382355,-0.010837703943252563
1761132127447813000,5.401813232421875,0.03238677978515625,0.02243756130337715,0.001006096601486206
1761132127457813000,5.41181298828125,0.03478240966796875,0.005731666460633278,-0.0014516860246658325
1761132127467813000,5.421813232421875,0.027601242065429688,-0.003811027854681015,-0.020667217671871185
1761132127477813000,5.43181298828125,0.02520751953125,-0.020570307970046997,0.0032748430967330933
1761132127487813000,5.441813232421875,0.0228118896484375,-0.02064797282218933,-0.018266312777996063
1761132127497813000,5.45181298828125,0.034783363342285156,-0.018316570669412613,-0.003954797983169556
1761132127507813000,5.461813232421875,0.027599334716796875,0.005571359768509865,-0.018256478011608124
1761132127517814000,5.47181396484375,0.03717803955078125,0.0103522390127182,-0.020748339593410492
1761132127527814000,5.48181396484375,0.03717613220214844,0.010424073785543442,-0.020596735179424286
1761132127537814000,5.49181396484375,0.02520465850830078,0.015195067971944809,-0.010998591780662537
1761132127547814000,5.50181396484375,0.0180206298828125,-0.0015809126198291779,-0.010957971215248108
1761132127557814000,5.51181396484375,0.02280902862548828,-0.01600245013833046,-0.015721894800662994
1761132127567814000,5.52181396484375,0.013231277465820312,0.0008588507771492004,-0.020459823310375214
1761132127577814000,5.53181396484375,0.013231277465820312,0.0009281374514102936,-0.020347215235233307
1761132127587814000,5.54181396484375,0.03477954864501953,0.0009852908551692963,0.00596463680267334
1761132127597814000,5.55181396484375,0.018019676208496094,-0.018069107085466385,0.008370265364646912
1761132127607814000,5.56181396484375,0.032385826110839844,-0.008394822478294373,0.003573685884475708
1761132127617813000,5.57181298828125,0.032385826110839844,0.0036301016807556152,0.010692834854125977
1761132127627813000,5.581813232421875,0.02999114990234375,-0.003561701625585556,-0.0011590421199798584
1761132127637813000,5.59181298828125,0.027597427368164062,0.008463628590106964,-0.010780036449432373
1761132127647813000,5.601813232421875,0.02520275115966797,-0.01070493832230568,0.001251131296157837
1761132127657813000,5.61181298828125,0.027596473693847656,-0.005935948342084885,0.0036469995975494385
1761132127667813000,5.621813232421875,0.03956890106201172,-0.015459228307008743,0.005977615714073181
1761132127677813000,5.63181298828125,0.03477954864501953,-0.008291445672512054,0.003643631935119629
1761132127687813000,5.641813232421875,0.044356346130371094,0.003664609044790268,-0.013055607676506042
1761132127697813000,5.65181298828125,0.03478050231933594,0.01328970305621624,-0.010783776640892029
1761132127707813000,5.661813232421875,0.032387733459472656,-0.0035377927124500275,-0.01568450778722763
1761132127717813800,5.671813720703125,0.032387733459472656,0.008432116359472275,0.005843952298164368
1761132127727814000,5.68181396484375,0.034781455993652344,0.006018498912453651,-0.01809639483690262
1761132127737813800,5.691813720703125,0.02999401092529297,-0.006015744060277939,-0.013361692428588867
1761132127747814000,5.70181396484375,0.03238964080810547,-0.0035732537508010864,-0.01348404586315155
1761132127757813800,5.711813720703125,0.02520751953125,-0.0060455165803432465,0.00567607581615448
1761132127767814000,5.72181396484375,0.03478431701660156,0.001073341816663742,0.005622193217277527
1761132127777814000,5.73181396484375,0.04675483703613281,-0.0013959333300590515,0.000879332423210144
1761132127787814000,5.74181396484375,0.018024444580078125,0.0009788461029529572,0.015246197581291199
1761132127797814000,5.75181396484375,0.03478240966796875,-0.0037634745240211487,-0.01819751411676407
1761132127807814000,5.76181396484375,0.03717613220214844,-0.0037587545812129974,-0.003773719072341919
1761132127817813000,5.77181298828125,0.03957176208496094,-0.018031775951385498,-0.0014463216066360474
1761132127827812900,5.781812744140625,0.041965484619140625,0.008363250643014908,0.0009429454803466797
1761132127837813000,5.79181298828125,0.018022537231445312,-0.013256985694169998,-0.020539455115795135
1761132127847812900,5.801812744140625,0.049147605895996094,0.0011471845209598541,-0.01814853399991989
1761132127857813000,5.81181298828125,0.07069587707519531,-0.008433952927589417,0.0009466409683227539
1761132127867812900,5.821812744140625,-0.015496253967285156,0.005853636190295219,0.0009531527757644653
1761132127877813000,5.83181298828125,0.02999591827392578,0.006026187911629677,0.0008994638919830322
1761132127887812900,5.841812744140625,0.027602195739746094,-0.0011033229529857635,0.005624264478683472
1761132127897813000,5.85181298828125,0.04196739196777344,0.00839381292462349,0.012793853878974915
1761132127907812900,5.861812744140625,0.058727264404296875,-0.0012454017996788025,0.015134498476982117
1761132127917813800,5.871813720703125,0.01563262939453125,-0.017950505018234253,0.005494371056556702
1761132127937813800,5.891813720703125,0.013237953186035156,-0.01797005534172058,-0.008869215846061707
1761132127947814000,5.90181396484375,0.046756744384765625,0.013317538425326347,0.0007728934288024902
1761132127957813800,5.911813720703125,0.03478527069091797,-0.005851034075021744,-0.01832055300474167
1761132127967814000,5.92181396484375,0.02521038055419922,0.018263405188918114,-0.023162707686424255
1761132127977813800,5.931813720703125,0.04436206817626953,-0.020112037658691406,-0.030221469700336456
1761132127987814000,5.94181396484375,0.01323699951171875,0.01098630577325821,-0.03269233554601669
1761132127997813800,5.951813720703125,0.025208473205566406,-0.0009801089763641357,-0.006297558546066284
1761132128007814000,5.96181396484375,0.051544189453125,0.003784816712141037,0.012818485498428345
1761132128017813000,5.97181298828125,0.008449554443359375,-0.015315528959035873,0.029514208436012268
1761132128027813000,5.981813232421875,-0.020279884338378906,-0.024917390197515488,0.03185117244720459
1761132128037813000,5.99181298828125,0.015633583068847656,-0.005822278559207916,0.01988506317138672
1761132128047813000,6.001813232421875,0.05154609680175781,-0.027507174760103226,0.012713685631752014
1761132128057813000,6.01181298828125,0.044363975524902344,-0.0034248419106006622,0.0055589377880096436
1761132128067813000,6.021813232421875,0.025209426879882812,-0.00581606850028038,0.010386332869529724
1761132128077813000,6.03181298828125,0.013238906860351562,0.018316248431801796,-0.02560146152973175
1761132128087813000,6.041813232421875,0.05394172668457031,-0.0007964782416820526,-0.02797943353652954
1761132128097813000,6.05181298828125,0.04436302185058594,0.001705411821603775,-0.027870148420333862
1761132128107813000,6.061813232421875,0.027602195739746094,0.020785000175237656,-0.023016750812530518
1761132128117814000,6.07181396484375,0.03717994689941406,-0.003103099763393402,-0.003926575183868408
1761132128127814000,6.08181396484375,0.039574623107910156,0.008848670870065689,-0.011107593774795532
1761132128137814000,6.09181396484375,0.03478431701660156,0.004050549119710922,0.024924367666244507
1761132128147814000,6.10181396484375,0.010843276977539062,0.0017700865864753723,0.024875596165657043
1761132128157814000,6.11181396484375,0.02042102813720703,0.0017051547765731812,0.005648583173751831
1761132128167814000,6.12181396484375,0.025208473205566406,0.008814685046672821,0.027261584997177124
1761132128177814000,6.13181396484375,0.04436302185058594,0.0016078129410743713,0.015233621001243591
1761132128187814000,6.14181396484375,0.037178993225097656,0.006343340501189232,-0.025404006242752075
1761132128197814000,6.15181396484375,0.013237953186035156,-0.00811067596077919,-0.027928456664085388
1761132128207814000,6.16181396484375,0.03957557678222656,-0.0009918212890625,-0.04234755039215088
1761132128217813000,6.17181298828125,0.03478717803955078,-0.0033853724598884583,-0.0351647213101387
1761132128227813000,6.181813232421875,0.034786224365234375,-0.010524295270442963,-0.018349982798099518
1761132128237813000,6.19181298828125,0.04675579071044922,-0.005869351327419281,-0.008722737431526184
1761132128247813000,6.201813232421875,0.027601242065429688,-0.03461148962378502,-0.018200285732746124
1761132128257813000,6.21181298828125,0.01802349090576172,-0.010584559291601181,0.008207738399505615
1761132128267813000,6.221813232421875,0.037177085876464844,-0.017690468579530716,0.010575979948043823
1761132128277813000,6.23181298828125,0.022812843322753906,-0.012806601822376251,0.027307525277137756
1761132128287813000,6.241813232421875,0.022813796997070312,-0.010403256863355637,-0.0063302963972091675
1761132128297813000,6.25181298828125,0.03238964080810547,-0.0008148662745952606,-0.013375967741012573
1761132128307813000,6.261813232421875,0.039572715759277344,-0.012805681675672531,-0.0014034360647201538
1761132128317813800,6.271813720703125,0.03478527069091797,-0.01508810743689537,-0.018231429159641266
1761132128327814000,6.28181396484375,0.01563262939453125,-0.02225414291024208,-0.027848854660987854
1761132128337813800,6.291813720703125,0.032390594482421875,0.013761987909674644,-0.015827111899852753
1761132128347814000,6.30181396484375,0.03957366943359375,-0.017279472202062607,-0.010986492037773132
1761132128357813800,6.311813720703125,0.02520751953125,-0.024375546723604202,-0.010895118117332458
1761132128367813600,6.321813720703125,0.032390594482421875,0.006788345053792,0.005860969424247742
1761132128377813800,6.331813720703125,0.025209426879882812,-0.0051132626831531525,0.020121872425079346
1761132128387813600,6.341813720703125,0.04915142059326172,-0.009862445294857025,0.005753472447395325
1761132128397813800,6.351813720703125,0.03239250183105469,-0.00022591650485992432,-0.008616343140602112
1761132128407813600,6.361813720703125,0.04436302185058594,0.021244235336780548,-0.015792302787303925
1761132128417812700,6.371812744140625,0.029997825622558594,0.009194392710924149,-0.008603453636169434
1761132128427812900,6.381812744140625,0.03957557678222656,-0.005116768181324005,-0.023032069206237793
1761132128437812700,6.391812744140625,0.0276031494140625,0.011686325073242188,0.008147865533828735
1761132128447812900,6.401812744140625,0.03478527069091797,-0.019452858716249466,-0.013339638710021973
1761132128457812700,6.411812744140625,0.025209426879882812,-0.009762275964021683,0.02252449095249176
1761132128467812900,6.421812744140625,0.05394172668457031,-0.00013102591037750244,-0.01105758547782898
1761132128477812700,6.431812744140625,0.03478717803955078,0.03337366506457329,-0.008603081107139587
1761132128487812900,6.441812744140625,0.015633583068847656,0.002366449683904648,0.015329286456108093
1761132128497812700,6.451812744140625,0.02281665802001953,-0.011905211955308914,0.008099302649497986
1761132128507812900,6.461812744140625,0.03718090057373047,0.002445034682750702,0.000976860523223877
1761132128517813800,6.471813720703125,0.044363975524902344,-0.014309395104646683,-0.020512260496616364
1761132128527813600,6.481813720703125,0.032393455505371094,-0.009472314268350601,-0.013451889157295227
1761132128537813800,6.491813720703125,0.032395362854003906,-0.007043607532978058,0.00803413987159729
1761132128547813600,6.501813720703125,0.032393455505371094,-0.021481242030858994,0.005705386400222778
1761132128557813800,6.511813720703125,0.020422935485839844,-0.009451031684875488,-0.025424033403396606
1761132128567813600,6.521813720703125,0.025213241577148438,-0.009396985173225403,-0.008728012442588806
1761132128577813800,6.531813720703125,0.025211334228515625,0.002500813454389572,-0.011057063937187195
1761132128587813600,6.541813720703125,0.044365882873535156,-0.011706661432981491,-0.006262138485908508
1761132128597813800,6.551813720703125,0.02521228790283203,0.009840890765190125,0.010497182607650757
1761132128607813600,6.561813720703125,0.025213241577148438,-0.004490211606025696,0.005646854639053345
1761132128617813000,6.57181298828125,0.0371856689453125,0.005017951130867004,0.012717068195343018
1761132128627812900,6.581812744140625,0.0371856689453125,-0.004623834043741226,-0.004115641117095947
1761132128637813000,6.59181298828125,0.041973114013671875,0.00014974921941757202,-0.00884382426738739
1761132128647812900,6.601812744140625,0.018032073974609375,0.005057170987129211,-0.004045531153678894
1761132128657813000,6.61181298828125,0.03239727020263672,0.012215953320264816,0.005474314093589783
1761132128667813000,6.621813232421875,0.03239727020263672,-0.03082040324807167,-0.035231731832027435
1761132128677813000,6.63181298828125,0.027609825134277344,0.02416256070137024,-0.01852472871541977
1761132128687813000,6.641813232421875,0.027609825134277344,0.0026731230318546295,-0.008952870965003967
1761132128697813000,6.65181298828125,0.02042865753173828,-0.006908014416694641,0.0005654990673065186
1761132128707813000,6.661813232421875,0.032398223876953125,-0.0117112398147583,0.010202497243881226
1761132128717814000,6.67181396484375,0.03479290008544922,0.00029937177896499634,0.012593671679496765
1761132128727814000,6.68181396484375,0.006062507629394531,-0.014065708965063095,-0.008954107761383057
1761132128737814000,6.69181396484375,0.027611732482910156,0.002606082707643509,0.0005119889974594116
1761132128747814000,6.70181396484375,0.027609825134277344,0.004945449531078339,-0.0018382072448730469
1761132128757814000,6.71181396484375,0.03000640869140625,-0.014233257621526718,-0.001895323395729065
1761132128767814000,6.72181396484375,0.032401084899902344,-0.0022085942327976227,-0.004353076219558716
1761132128777814000,6.73181396484375,0.03958415985107422,-0.0022140927612781525,0.007559061050415039
1761132128787814100,6.741814208984375,0.022826194763183594,-0.006968952715396881,0.005102872848510742
1761132128797814000,6.75181396484375,0.03000926971435547,-0.009363416582345963,0.017073795199394226
1761132128807814000,6.76181396484375,0.03479576110839844,-0.02619590237736702,-0.0020146071910858154
1761132128817813000,6.77181298828125,0.015642166137695312,0.004851102828979492,-0.025950103998184204
1761132128827813000,6.781813232421875,0.041977882385253906,0.007362322881817818,0.01474153995513916
1761132128837813000,6.79181298828125,0.02521800994873047,0.016924124211072922,-0.006746008992195129
1761132128847813000,6.801813232421875,0.022823333740234375,0.021757569164037704,-0.006671234965324402
1761132128857813000,6.81181298828125,0.03718852996826172,-0.002066653221845627,-0.011469155550003052
1761132128867813000,6.821813232421875,0.018034934997558594,-0.004421193152666092,-0.004289731383323669
1761132128877813000,6.83181298828125,0.025217056274414062,-0.004375379532575607,-0.013791486620903015
1761132128887813000,6.841813232421875,0.030005455017089844,-0.0019371025264263153,-0.013736039400100708
1761132128897813000,6.85181298828125,0.030005455017089844,0.0003933534026145935,0.010152101516723633
1761132128907813000,6.861813232421875,0.032398223876953125,0.00032299384474754333,-0.004109010100364685
1761132128917813800,6.871813720703125,0.020427703857421875,-0.004424836486577988,0.015060871839523315
1761132128927814000,6.88181396484375,0.04197502136230469,-0.0020305030047893524,-0.013669505715370178
1761132128937813800,6.891813720703125,0.03479290008544922,-0.016480229794979095,0.000624045729637146
1761132128947814000,6.90181396484375,0.010851860046386719,-0.004450716078281403,-0.023322880268096924
1761132128957813800,6.911813720703125,0.03240013122558594,0.014698566868901253,-0.0018335133790969849
1761132128967814000,6.92181396484375,0.018034934997558594,0.00036973878741264343,-0.009058251976966858
1761132128977813800,6.931813720703125,0.03958415985107422,0.0004233904182910919,0.012426033616065979
1761132128987814000,6.94181396484375,0.020432472229003906,0.014899937435984612,0.007569029927253723
1761132128997813800,6.951813720703125,0.03719139099121094,-0.009065903723239899,0.014694690704345703
1761132129007814000,6.96181396484375,0.027614593505859375,0.012423403561115265,-0.016425050795078278
1761132129017813000,6.97181298828125,0.027614593505859375,0.0004331134259700775,-0.0020581185817718506
1761132129027813000,6.981813232421875,0.03240394592285156,0.00042800232768058777,0.005065754055976868
1761132129037813000,6.99181298828125,0.03719139099121094,0.002747379243373871,0.005111366510391235
1761132129047813000,7.001813232421875,0.027614593505859375,-0.014032229781150818,-0.011646673083305359
1761132129057813000,7.01181298828125,0.022826194763183594,0.01230463758111,0.014689788222312927
1761132129067813000,7.021813232421875,0.020433425903320312,0.0027027837932109833,0.0026615262031555176
1761132129077813000,7.03181298828125,0.0228271484375,0.0027611106634140015,0.009839296340942383
1761132129087812900,7.041812744140625,0.030010223388671875,0.0027410462498664856,0.009840726852416992
1761132129097813000,7.05181298828125,0.032402992248535156,0.014756524935364723,-0.0020555704832077026
1761132129107813000,7.061813232421875,0.027614593505859375,0.007573658600449562,-0.01881507784128189
1761132129117813800,7.071813720703125,0.03479766845703125,0.014854563400149345,0.0027247071266174316
1761132129127814000,7.08181396484375,0.03240394592285156,-0.013817396014928818,-0.009251073002815247
1761132129137814000,7.09181396484375,0.0252227783203125,-0.0017977133393287659,0.0002035200595855713
1761132129147814000,7.10181396484375,0.030012130737304688,0.0030893832445144653,-0.016544662415981293
1761132129157814000,7.11181396484375,0.018039703369140625,-0.004048753529787064,-0.0069122761487960815
1761132129167814000,7.12181396484375,0.030012130737304688,-0.00650574266910553,-0.01893695443868637
1761132129177814000,7.13181396484375,0.03719615936279297,-0.016033485531806946,-0.00469382107257843
1761132129187814000,7.14181396484375,0.03480052947998047,-0.011259645223617554,-0.014210328459739685
1761132129197814000,7.15181396484375,0.03480052947998047,0.0006533749401569366,-0.009416848421096802
1761132129207814000,7.16181396484375,0.020435333251953125,0.0006929934024810791,0.004945322871208191
1761132129217813000,7.17181298828125,0.03240776062011719,0.015048237517476082,-0.002354651689529419
1761132129227813000,7.181813232421875,0.0300140380859375,-0.004061564803123474,-0.031029708683490753
1761132129237813000,7.19181298828125,0.022829055786132812,0.005501117557287216,0.00015522539615631104
1761132129247813000,7.201813232421875,0.018042564392089844,0.0007670298218727112,-0.004696488380432129
1761132129257813000,7.21181298828125,0.030014991760253906,0.0032139234244823456,0.0024223923683166504
1761132129267813000,7.221813232421875,0.032408714294433594,-0.01595853641629219,0.01678931713104248
1761132129277813000,7.23181298828125,0.04437732696533203,0.0031262822449207306,-0.009423121809959412
1761132129287813000,7.241813232421875,0.03480052947998047,-0.006450783461332321,0.004941999912261963
1761132129297813000,7.25181298828125,0.027619361877441406,0.003161359578371048,-0.004696443676948547
1761132129307813000,7.261813232421875,0.03480052947998047,-0.004094455391168594,-0.009419694542884827
1761132129317813800,7.271813720703125,0.01564788818359375,0.005600597709417343,0.012137755751609802
1761132129327814000,7.28181396484375,0.020435333251953125,-0.00405588373541832,-0.014211520552635193
1761132129337813800,7.291813720703125,0.037194252014160156,-0.018421221524477005,-0.018999971449375153
1761132129347814000,7.30181396484375,0.03958892822265625,-0.00647001713514328,0.0001551806926727295
1761132129357813800,7.311813720703125,0.04198169708251953,0.00549166277050972,-0.023667767643928528
1761132129367814000,7.32181396484375,0.020433425903320312,0.0031376518309116364,-0.018863223493099213
1761132129377813800,7.331813720703125,0.022828102111816406,0.010380201041698456,-0.002089083194732666
1761132129387814000,7.34181396484375,0.03958892822265625,-0.01350829005241394,-0.006941080093383789
1761132129397813800,7.351813720703125,0.03719329833984375,0.007965544238686562,0.005094796419143677
1761132129407814000,7.36181396484375,0.04677104949951172,0.0054877325892448425,-0.00934174656867981
1761132129417813000,7.37181298828125,0.030010223388671875,-0.004142291843891144,-0.0020955801010131836
1761132129427813000,7.381813232421875,0.027614593505859375,-0.004216331988573074,-0.00203058123588562
1761132129437813000,7.39181298828125,0.03958606719970703,0.01018732413649559,-0.011610865592956543
1761132129447812900,7.401812744140625,0.03719139099121094,-0.0019059441983699799,-0.01165984570980072
1761132129457813000,7.41181298828125,0.03240394592285156,-0.004326030611991882,0.0050230324268341064
1761132129467812900,7.421812744140625,0.022828102111816406,-0.01390833780169487,-0.009401053190231323
1761132129477813000,7.43181298828125,0.037194252014160156,-0.011458080261945724,0.014497265219688416
1761132129487812900,7.441812744140625,0.025223731994628906,-0.025784894824028015,-0.01902490109205246
1761132129497813000,7.45181298828125,0.04437732696533203,-0.0017983652651309967,0.00018417835235595703
1761132129507813000,7.461813232421875,0.03958892822265625,0.010172378271818161,-0.0022101104259490967
1761132129527814000,7.48181396484375,0.01804065704345703,-0.006606187671422958,-0.0022083520889282227
1761132129537813800,7.491813720703125,0.020437240600585938,0.007807696238160133,0.004852011799812317
1761132129547814000,7.50181396484375,0.020437240600585938,0.017306577414274216,-0.002324014902114868
1761132129557813800,7.511813720703125,0.03959083557128906,-0.009034749120473862,-0.01674797385931015
1761132129567814000,7.52181396484375,0.03959178924560547,-0.021029632538557053,0.004743024706840515
1761132129577813800,7.531813720703125,0.03719902038574219,0.005537252873182297,0.009472683072090149
1761132129587814000,7.54181396484375,0.022833824157714844,-0.003981098532676697,-0.012079894542694092
1761132129597813800,7.551813720703125,0.03719902038574219,0.0032407306134700775,0.0022821277379989624
1761132129607814000,7.56181396484375,0.03241157531738281,-0.0206473246216774,-0.009752452373504639
1761132129617813000,7.57181298828125,0.022833824157714844,-0.01342090219259262,-0.00012028217315673828
1761132129627813000,7.581813232421875,0.046776771545410156,-0.01098630204796791,0.0022902488708496094
1761132129637813200,7.591813232421875,0.015651702880859375,0.02007863111793995,-0.0025127828121185303
1761132129647813000,7.601813232421875,0.030017852783203125,-0.02052292600274086,-0.009683743119239807
1761132129657813000,7.61181298828125,0.03241157531738281,0.005813557654619217,-0.00968363881111145
1761132129667813000,7.621813232421875,0.020440101623535156,0.012918107211589813,-0.002494513988494873
1761132129677813200,7.631813232421875,0.01565074920654297,0.0009325332939624786,-0.007222622632980347
1761132129687813000,7.641813232421875,0.03719902038574219,-0.0038628652691841125,-0.014483600854873657
1761132129697813000,7.65181298828125,0.02283477783203125,0.0008621886372566223,-0.002566322684288025
1761132129707813000,7.661813232421875,0.025228500366210938,-0.00400426983833313,-0.00016561150550842285
1761132129717814000,7.67181396484375,0.025228500366210938,-0.004023551940917969,-0.00016389787197113037
1761132129727814000,7.68181396484375,0.044384002685546875,-0.0063690803945064545,0.006896480917930603
1761132129737814000,7.69181396484375,0.010866165161132812,-0.006432831287384033,-0.02188781648874283
1761132129747814000,7.70181396484375,0.030020713806152344,-0.00398511067032814,-0.0027977824211120605
1761132129757814000,7.71181396484375,0.020445823669433594,0.005640897899866104,0.011445403099060059
1761132129767814000,7.72181396484375,0.044386863708496094,-0.006285645067691803,0.004318371415138245
1761132129777814000,7.73181396484375,0.04678153991699219,0.017690353095531464,-0.014897197484970093
1761132129787814100,7.741814208984375,0.03002166748046875,-0.006246548146009445,-0.017232678830623627
1761132129797814000,7.75181396484375,0.03481101989746094,0.0009764991700649261,0.016302376985549927
1761132129807814000,7.76181396484375,0.025234222412109375,-0.010994769632816315,-0.002851337194442749
1761132129817813000,7.77181298828125,0.032416343688964844,-0.008566588163375854,-0.010095909237861633
1761132129827813000,7.781813232421875,0.02283954620361328,0.008178001269698143,-0.007641509175300598
1761132129837813000,7.79181298828125,0.020448684692382812,-0.013306498527526855,-0.0006412416696548462
1761132129847813000,7.801813232421875,0.03241920471191406,-0.010996371507644653,-0.00310710072517395
1761132129857813000,7.81181298828125,0.027629852294921875,-0.006220001727342606,-0.007815331220626831
1761132129867813000,7.821813232421875,0.04917621612548828,0.010469045490026474,-0.022076420485973358
1761132129877813000,7.83181298828125,0.006079673767089844,-0.00391111895442009,-0.00046844780445098877
1761132129887813000,7.841813232421875,0.013261795043945312,0.01290789246559143,-0.012425005435943604
1761132129897813000,7.85181298828125,0.02283954620361328,0.0057638101279735565,0.01630212366580963
1761132129907813000,7.861813232421875,0.030022621154785156,0.0009100362658500671,0.004257693886756897
1761132129917813800,7.871813720703125,0.04917716979980469,-0.003962058573961258,0.016176283359527588
1761132129927814000,7.88181396484375,0.046782493591308594,-0.0015675947070121765,0.0018111765384674072
1761132129937813800,7.891813720703125,0.02283954620361328,0.007989799603819847,0.006601229310035706
1761132129947814000,7.90181396484375,0.03481101989746094,0.007989531382918358,-0.010158270597457886
1761132129957813800,7.911813720703125,0.025237083435058594,-0.00160130113363266,0.016002222895622253
1761132129967814000,7.92181396484375,0.030027389526367188,0.010477147996425629,-0.005672633647918701
1761132129977813800,7.931813720703125,0.04439258575439453,0.003216885030269623,-0.0008775591850280762
1761132129987814000,7.94181396484375,0.0276336669921875,0.000817570835351944,0.0038521140813827515
1761132129997813800,7.951813720703125,0.041998863220214844,0.005586296319961548,-0.005723118782043457
1761132130007814000,7.96181396484375,0.0276336669921875,0.0008514150977134705,-0.024940326809883118
1761132130017813000,7.97181298828125,0.025239944458007812,0.008136337623000145,-0.003342047333717346
1761132130027812900,7.981812744140625,0.037209510803222656,0.008200744166970253,-0.005663037300109863
1761132130037812700,7.991812744140625,0.0276336669921875,0.006022904068231583,0.008703827857971191
1761132130047812900,8.001812744140626,0.0276336669921875,0.006003223359584808,0.008705392479896545
1761132130057812700,8.011812744140625,0.025239944458007812,-0.0035103559494018555,-0.010394513607025146
1761132130067812900,8.021812744140625,0.041998863220214844,-0.0010769255459308624,-0.0175803080201149
1761132130077812700,8.031812744140625,0.039605140686035156,0.0037121325731277466,-0.012791663408279419
1761132130087812900,8.041812744140625,0.018056869506835938,-0.000976797193288803,0.0039792656898498535
1761132130097812700,8.051812744140625,0.032421112060546875,0.018102049827575684,-0.003157868981361389
1761132130107812900,8.061812744140624,0.039605140686035156,0.010979387909173965,0.0016452670097351074
1761132130117813500,8.0718134765625,0.022844314575195312,-0.0010707154870033264,-0.005550310015678406
1761132130127813600,8.081813720703124,0.034816741943359375,-0.017776604741811752,0.00875130295753479
1761132130137813800,8.091813720703126,0.03721141815185547,-0.010677341371774673,-0.0008776336908340454
1761132130147813600,8.101813720703126,0.025239944458007812,-0.005825582891702652,0.01114712655544281
1761132130157813800,8.111813720703125,0.02524089813232422,-0.005731351673603058,0.011099860072135925
1761132130167813600,8.121813720703125,0.04200172424316406,0.003898974508047104,-0.01290576159954071
1761132130177813800,8.131813720703125,0.042000770568847656,0.003878772258758545,-0.012904390692710876
1761132130187813600,8.141813720703125,0.02524280548095703,0.0014791451394557953,-0.005780473351478577
1761132130197813800,8.151813720703124,0.030031204223632812,-0.008053980767726898,0.006245821714401245
1761132130207813600,8.161813720703124,0.04918384552001953,-0.005674336105585098,-0.010453268885612488
1761132130217813000,8.17181298828125,0.027632713317871094,0.0037754811346530914,0.004040583968162537
1761132130227812900,8.181812744140625,0.03002643585205078,0.008549066260457039,-0.005476012825965881
1761132130237813000,8.19181298828125,0.025238990783691406,0.0037001408636569977,-0.0030966103076934814
1761132130247812900,8.201812744140625,0.039603233337402344,-0.001047421246767044,-0.019839651882648468
1761132130257813000,8.21181298828125,0.037209510803222656,-0.0035020075738430023,-0.003094986081123352
1761132130267812900,8.221812744140625,0.025238990783691406,0.008503368124365807,-0.003156810998916626
1761132130277813000,8.23181298828125,0.022843360900878906,0.003702022135257721,-0.005471169948577881
1761132130287812900,8.241812744140624,0.039603233337402344,0.0036418959498405457,0.008879393339157104
1761132130297813000,8.25181298828125,0.037209510803222656,0.001301351934671402,-0.003155142068862915
1761132130307812900,8.261812744140625,0.03960418701171875,-0.0011074133217334747,0.01605875790119171
1761132130317813800,8.271813720703125,0.01805591583251953,0.013188797980546951,0.00397510826587677
1761132130327814000,8.28181396484375,0.018056869506835938,0.01316426694393158,0.0039180368185043335
1761132130337814000,8.29181396484375,0.032421112060546875,-0.006062150001525879,-0.005593463778495789
1761132130347814000,8.30181396484375,0.025238990783691406,-0.013244625180959702,-0.010381817817687988
1761132130357814000,8.31181396484375,0.018054962158203125,0.0034397058188915253,-0.0031537115573883057
1761132130367814000,8.32181396484375,0.01326751708984375,0.008223386481404305,-0.0032123029232025146
1761132130377814000,8.33181396484375,0.030027389526367188,-0.008436940610408783,-0.005595147609710693
1761132130387814000,8.34181396484375,0.027632713317871094,-0.0012741424143314362,-0.0031993985176086426
1761132130397814000,8.35181396484375,0.01805591583251953,0.0346391461789608,-0.010381907224655151
1761132130407814000,8.36181396484375,0.03720855712890625,-0.008471053093671799,-0.010321632027626038
1761132130417813000,8.37181298828125,0.025237083435058594,-0.011002723127603531,-0.010329648852348328
1761132130427813000,8.381813232421875,0.03481578826904297,-0.013401906937360764,-0.0103883296251297
1761132130437813000,8.39181298828125,0.039605140686035156,0.0010778717696666718,-0.0008601248264312744
1761132130447813000,8.401813232421874,0.04439258575439453,0.015486763790249825,-0.017564229667186737
1761132130457813000,8.41181298828125,0.02044963836669922,-0.006076011806726456,-0.005533069372177124
1761132130467813000,8.421813232421876,0.01805400848388672,0.0010929517447948456,-0.007866621017456055
1761132130477813000,8.43181298828125,0.030025482177734375,-0.008484117686748505,-0.010260924696922302
1761132130487813000,8.441813232421875,0.027629852294921875,-0.001316078007221222,0.0065587908029556274
1761132130497813000,8.45181298828125,0.03960132598876953,0.0035751722753047943,-0.014938369393348694
1761132130507813000,8.461813232421875,0.030025482177734375,-0.013127870857715607,-0.019770510494709015
1761132130517813800,8.471813720703125,0.013264656066894531,0.0060120150446891785,0.013808771967887878
1761132130527814000,8.48181396484375,0.032418251037597656,0.00840647704899311,-0.0005563348531723022
1761132130537813800,8.491813720703124,0.018052101135253906,-0.017943911254405975,0.0018983036279678345
1761132130547814000,8.50181396484375,0.02044677734375,-0.0035985149443149567,-0.024436399340629578
1761132130557813800,8.511813720703126,0.022841453552246094,-0.013121269643306732,0.001836434006690979
1761132130567814000,8.52181396484375,0.022840499877929688,-0.0035003870725631714,-0.005290716886520386
1761132130577813800,8.531813720703125,0.04199504852294922,0.01810580864548683,-0.007689878344535828
1761132130587814000,8.54181396484375,0.04199409484863281,-0.022552337497472763,-0.014817297458648682
1761132130597813800,8.551813720703125,0.04199409484863281,0.010946810245513916,-0.012421533465385437
1761132130607814000,8.56181396484375,0.020444869995117188,0.01087360829114914,0.0020088255405426025
1761132130617813000,8.57181298828125,0.039600372314453125,0.0037445276975631714,0.013916254043579102
1761132130627813000,8.581813232421876,0.030022621154785156,0.006184551864862442,-0.00276811420917511
1761132130637813000,8.59181298828125,0.03241729736328125,0.0014500655233860016,-0.019590966403484344
1761132130647813000,8.601813232421875,0.025234222412109375,0.0038293078541755676,-0.009954005479812622
1761132130657813000,8.61181298828125,0.018052101135253906,0.018129106611013412,-0.0052389055490493774
1761132130667813000,8.621813232421875,0.020445823669433594,-0.008166100829839706,-0.019587837159633636
1761132130677813000,8.63181298828125,0.03481101989746094,-0.020255468785762787,-0.005232274532318115
1761132130687813000,8.641813232421875,0.025234222412109375,-0.005910903215408325,-0.0028367042541503906
1761132130697813000,8.65181298828125,0.02762889862060547,-0.008265312761068344,0.006736978888511658
1761132130707813000,8.661813232421874,0.02283954620361328,-0.012988865375518799,-0.0075550079345703125
1761132130717813800,8.671813720703126,0.03002166748046875,-0.010673943907022476,-0.007567882537841797
1761132130727814000,8.68181396484375,0.039600372314453125,0.008411062881350517,-0.0028920024633407593
1761132130737813800,8.691813720703125,0.02762889862060547,-0.0035209842026233673,-0.012472093105316162
1761132130747814000,8.70181396484375,0.025237083435058594,-0.0035900287330150604,0.008963197469711304
1761132130757813800,8.711813720703125,0.025238037109375,-0.008449044078588486,0.0016483664512634277
1761132130767814000,8.72181396484375,0.020450592041015625,0.017882585525512695,-0.005592778325080872
1761132130777814000,8.73181396484375,0.02045154571533203,0.017756525427103043,-0.005700021982192993
1761132130787814000,8.74181396484375,0.03481769561767578,0.008094808086752892,-0.000983402132987976
1761132130797814000,8.75181396484375,0.039605140686035156,-0.0038906410336494446,-0.0033172667026519775
1761132130807814000,8.76181396484375,0.01566314697265625,-0.0062296949326992035,-0.0033612996339797974
1761132130817813000,8.77181298828125,0.018056869506835938,-0.006249506026506424,-0.02011919766664505
1761132130827813000,8.781813232421875,0.032423973083496094,0.0010448656976222992,-0.017793573439121246
1761132130837813000,8.79181298828125,0.03242301940917969,0.0010304339230060577,-0.0009738057851791382
1761132130847813000,8.801813232421875,0.03960418701171875,-0.001494821161031723,0.0038848817348480225
1761132130857813000,8.81181298828125,0.027632713317871094,-0.011007953435182571,-0.01521502435207367
1761132130867813000,8.821813232421874,0.025238990783691406,0.0033383630216121674,0.0015462487936019897
1761132130877813000,8.83181298828125,0.04678535461425781,0.005776245146989822,-0.024734660983085632
1761132130887812900,8.841812744140626,0.018056869506835938,0.017860207706689835,-0.010437607765197754
1761132130897813000,8.85181298828125,0.018056869506835938,-0.003627616912126541,-0.005634620785713196
1761132130907812900,8.861812744140625,0.03481578826904297,0.005993399769067764,0.011180311441421509
1761132130917813800,8.871813720703125,0.015662193298339844,-0.010785821825265884,-0.007971793413162231
1761132130927814000,8.88181396484375,0.018056869506835938,-0.025156144052743912,0.018305703997612
1761132130937813800,8.891813720703125,0.022844314575195312,0.0011013150215148926,-0.0032356977462768555
1761132130947814000,8.90181396484375,0.013269424438476562,-0.0012389682233333588,0.006277650594711304
1761132130957813800,8.911813720703124,0.02045154571533203,-0.020349297672510147,0.003938615322113037
1761132130967814000,8.92181396484375,0.02044963836669922,-0.020417258143424988,0.004062548279762268
1761132130977813800,8.931813720703126,0.037209510803222656,-0.003662828356027603,0.008792266249656677
1761132130987814000,8.94181396484375,0.025238990783691406,-0.01805269345641136,-0.005630061030387878
1761132130997813800,8.951813720703125,0.025238990783691406,-0.008491240441799164,0.0016125738620758057
1761132131007814000,8.96181396484375,0.032421112060546875,0.0010812431573867798,-0.005628481507301331
1761132131017813000,8.97181298828125,0.027632713317871094,-0.010903805494308472,-0.015144795179367065
1761132131027813000,8.981813232421874,0.02045154571533203,0.017819881439208984,-0.020011477172374725
1761132131037813000,8.99181298828125,0.022844314575195312,-0.008475888520479202,0.00873515009880066
1761132131047813000,9.001813232421876,0.032421112060546875,-0.017988942563533783,0.0016064345836639404
1761132131057813000,9.01181298828125,0.025239944458007812,0.0011990442872047424,-0.008032187819480896
1761132131067813000,9.021813232421875,0.032421112060546875,0.015505796298384666,0.011126190423965454
1761132131077813000,9.03181298828125,0.018056869506835938,-0.008397441357374191,-0.005636438727378845
1761132131087812900,9.041812744140625,0.030027389526367188,-0.0011701881885528564,-0.005580917000770569
1761132131097813000,9.05181298828125,0.032421112060546875,0.0012896470725536346,-0.007901594042778015
1761132131107812900,9.061812744140624,0.027631759643554688,0.006058242172002792,-0.017476879060268402
1761132131117813800,9.071813720703124,0.032421112060546875,-0.020224712789058685,-0.01514635980129242
1761132131127814000,9.08181396484375,0.032421112060546875,0.008426425978541374,-0.019947655498981476
1761132131137813800,9.091813720703126,0.022844314575195312,-0.001223187893629074,-0.0007287412881851196
1761132131147814000,9.10181396484375,0.0228424072265625,-0.00596817210316658,-0.003067716956138611
1761132131157813800,9.111813720703125,0.037207603454589844,-0.005843900144100189,-0.012575849890708923
1761132131167814000,9.12181396484375,0.03481292724609375,-0.0011335574090480804,-0.010175138711929321
1761132131177813800,9.131813720703125,0.04438972473144531,0.013275779783725739,-0.026879236102104187
1761132131187814000,9.14181396484375,0.030025482177734375,0.00608975812792778,0.004206374287605286
1761132131197813800,9.151813720703124,0.03241920471191406,0.010919053107500076,-0.0005657821893692017
1761132131207814000,9.16181396484375,0.02763080596923828,-0.02493564784526825,-0.014935806393623352
1761132131217813000,9.17181298828125,0.03241920471191406,-0.0034071169793605804,-0.005357295274734497
1761132131227813000,9.181813232421876,0.02763080596923828,-0.020290926098823547,0.016121789813041687
1761132131237813000,9.19181298828125,0.027629852294921875,-0.005941066890954971,-0.007760211825370789
1761132131247813000,9.201813232421875,0.025236129760742188,-0.005902282893657684,-0.010157614946365356
1761132131257813200,9.211813232421875,0.020448684692382812,0.02048964984714985,0.001769423484802246
1761132131267813000,9.221813232421875,0.03002452850341797,-0.017826899886131287,-0.02923610806465149
1761132131277813000,9.23181298828125,0.03481292724609375,0.0013659410178661346,-0.012479886412620544
1761132131287813000,9.241813232421874,0.0228424072265625,0.011058662086725235,0.006644576787948608
1761132131297813000,9.25181298828125,0.0228424072265625,0.008664200082421303,-0.010114938020706177
1761132131307813000,9.261813232421876,0.022841453552246094,0.0038612335920333862,-0.012448832392692566
1761132131317814000,9.27181396484375,0.032418251037597656,0.011082667857408524,0.0019130557775497437
1761132131327814000,9.28181396484375,0.025236129760742188,-0.0032818876206874847,-0.002875104546546936
1761132131337813800,9.291813720703125,0.02762889862060547,-0.01293184608221054,-0.014781087636947632
1761132131347814000,9.30181396484375,0.0180511474609375,0.00614209845662117,0.00435948371887207
1761132131357813800,9.311813720703125,0.013264656066894531,0.0013491064310073853,-0.019641079008579254
1761132131367814000,9.32181396484375,0.025236129760742188,-0.015429720282554626,-0.010062605142593384
1761132131377813800,9.331813720703124,0.013264656066894531,-0.010586999356746674,0.0018451064825057983
1761132131387814000,9.34181396484375,0.015659332275390625,0.013296637684106827,0.006638452410697937
1761132131397813800,9.351813720703126,0.03002452850341797,0.010883022099733353,0.004245921969413757
1761132131407814000,9.36181396484375,0.025236129760742188,-0.0011078007519245148,0.013824254274368286
1761132131417813000,9.37181298828125,0.03002452850341797,-0.010690107941627502,0.001794368028640747
1761132131427813000,9.381813232421875,0.022841453552246094,0.006113506853580475,0.006638258695602417
1761132131437813000,9.39181298828125,0.02763080596923828,-0.008378550410270691,-0.017411284148693085
1761132131447813000,9.401813232421874,0.046784400939941406,-0.00361035019159317,-0.003044694662094116
1761132131457813000,9.41181298828125,0.03720855712890625,0.00111321359872818,-0.0222715362906456
1761132131467813000,9.421813232421876,0.025238037109375,0.00338541716337204,0.01119840145111084
1761132131487813000,9.441813232421875,0.04439067840576172,-0.011437039822340012,-0.010409832000732422
1761132131497813000,9.45181298828125,0.04439067840576172,-0.013950396329164505,-0.0008429586887359619
1761132131507813000,9.461813232421875,0.058754920959472656,-0.006904877722263336,-0.012802749872207642
1761132131517813800,9.471813720703125,0.049178123474121094,-0.002115819603204727,0.0015626996755599976
1761132131527814000,9.48181396484375,0.0036878585815429688,-0.002195049077272415,-0.03436335176229477
1761132131537813800,9.491813720703124,0.0036869049072265625,-0.0022100023925304413,-0.034303195774555206
1761132131547814000,9.50181396484375,-0.005889892578125,-0.0047843120992183685,-0.02237602323293686
1761132131557813800,9.511813720703126,0.02283954620361328,0.004538528621196747,0.008769646286964417
1761132131567814000,9.52181396484375,0.051568031311035156,-0.007865462452173233,0.006372004747390747
1761132131577813800,9.531813720703125,0.03241729736328125,-0.027196329087018967,0.03246711194515228
1761132131587814000,9.54181396484375,0.001293182373046875,0.006180165335536003,0.010871738195419312
1761132131597813800,9.551813720703125,0.03720664978027344,0.017968660220503807,-0.0011629462242126465
1761132131607814000,9.56181396484375,0.10663700103759766,0.032136522233486176,-0.0705982893705368
1761132131617813000,9.57181298828125,0.07311725616455078,-0.003926709294319153,-0.07050712406635284
1761132131627812900,9.581812744140626,-0.04419898986816406,-0.025312349200248718,-0.02016385644674301
1761132131637813000,9.59181298828125,-0.015467643737792969,-0.006045646965503693,0.00849844515323639
1761132131647812900,9.601812744140625,-0.07532215118408203,-0.02046814188361168,0.05161838233470917
1761132131657813000,9.61181298828125,0.15212631225585938,-0.020833563059568405,0.08979813754558563
1761132131667812900,9.621812744140625,0.05635643005371094,-0.00915588065981865,0.08982233703136444
1761132131677813000,9.63181298828125,0.008472442626953125,-0.01430283859372139,0.10892677307128906
1761132131687812900,9.641812744140625,0.10663986206054688,0.016549861058592796,0.04385325312614441
1761132131697813000,9.65181298828125,0.11143302917480469,0.0403033047914505,-0.045110151171684265
1761132131707812900,9.661812744140626,-0.0034847259521484375,0.019033093005418777,-0.11236747354269028
1761132131717813800,9.671813720703126,-0.10164260864257812,0.043388642370700836,-0.15329986810684204
1761132131727814000,9.68181396484375,0.01806926727294922,0.07715819776058197,-0.1749078631401062
1761132131737813800,9.691813720703125,0.04439735412597656,0.04600201174616814,-0.17433464527130127
1761132131747814000,9.70181396484375,-0.21180057525634766,-0.03534980118274689,-0.103568896651268
1761132131757813800,9.711813720703125,0.10421943664550781,-0.03745540976524353,0.05556568503379822
1761132131767814000,9.72181396484375,-0.03225135803222656,-0.03977709263563156,0.18739847838878632
1761132131777813800,9.731813720703125,-0.03225135803222656,-0.039551861584186554,0.18749813735485077
1761132131787814000,9.74181396484375,0.2167501449584961,-0.037065982818603516,0.17999319732189178
1761132131797813800,9.751813720703124,-0.130401611328125,-0.1037350744009018,0.19381633400917053
1761132131807814000,9.76181396484375,-0.04417991638183594,-0.02388625591993332,0.07931047677993774
1761132131817813000,9.77181298828125,0.09949111938476562,0.053179919719696045,-0.0511748269200325
1761132131827812900,9.781812744140625,-0.03218269348144531,-0.0019697286188602448,-0.1259196698665619
1761132131837813000,9.79181298828125,-0.02020740509033203,0.012569606304168701,-0.14534351229667664
1761132131847812900,9.801812744140625,0.04922294616699219,0.041127074509859085,-0.17880879342556
1761132131857813000,9.81181298828125,0.008514404296875,0.05523129552602768,-0.14487484097480774
1761132131867812900,9.821812744140624,0.04680919647216797,0.04299609735608101,-0.06262364983558655
1761132131877812700,9.831812744140626,0.053977012634277344,-0.00775531679391861,0.03887709975242615
1761132131887812900,9.841812744140626,0.058760643005371094,-0.02709820121526718,0.08948582410812378
1761132131897812700,9.851812744140625,0.04918384552001953,-0.05137922987341881,0.13013647496700287
1761132131907812900,9.861812744140625,0.08749198913574219,-0.0322347916662693,0.11325995624065399
1761132131917813800,9.871813720703125,-0.0681304931640625,0.010858315974473953,0.09167315065860748
1761132131927813600,9.881813720703125,0.056374549865722656,-0.0033289380371570587,0.021774008870124817
1761132131937813800,9.891813720703125,0.027647972106933594,0.006340580061078072,-0.0575374960899353
1761132131947813600,9.901813720703124,0.053986549377441406,0.0015431568026542664,-0.11749060451984406
1761132131957813800,9.911813720703124,-0.015445709228515625,0.025603754445910454,-0.13663432002067566
1761132131967813600,9.921813720703126,0.04919624328613281,0.04239744693040848,-0.12209489941596985
1761132131977813800,9.931813720703126,0.049187660217285156,0.013558899983763695,-0.049669645726680756
1761132131987813600,9.941813720703125,0.08748912811279297,-0.020027510821819305,-0.008588790893554688
1761132131997813800,9.951813720703125,-0.041802406311035156,-0.01040472462773323,0.05877915024757385
1761132132007814000,9.96181396484375,-0.0034971237182617188,-0.024677064269781113,0.09486165642738342
1761132132017813000,9.97181298828125,0.08269309997558594,-0.02708137035369873,0.0877978652715683
1761132132027812900,9.981812744140624,0.04438591003417969,-0.04382433742284775,0.07818038761615753
1761132132037813000,9.99181298828125,-0.0011005401611328125,-0.010243240743875504,0.013335108757019043
1761132132047812900,10.001812744140626,0.015659332275390625,-0.0030413419008255005,-0.03696396201848984
1761132132057812700,10.011812744140625,0.04199504852294922,0.013753408566117287,-0.06334268301725388
1761132132067812900,10.021812744140625,0.02763080596923828,0.023250099271535873,-0.07772092521190643
1761132132077812700,10.031812744140625,-0.008282661437988281,0.030476827174425125,-0.08963662385940552
1761132132087812900,10.041812744140625,0.013261795043945312,0.020815357565879822,-0.04637649655342102
1761132132097812700,10.051812744140625,0.04438209533691406,0.02315549924969673,-0.01495225727558136
1761132132107812900,10.061812744140624,0.04438018798828125,0.023131873458623886,-0.014753654599189758
1761132132117813800,10.071813720703124,0.4106912612915039,-0.13972382247447968,0.4737660884857178
1761132132127813600,10.081813720703124,-1.3251352310180664,0.18893086910247803,-0.3983790874481201
1761132132137813800,10.091813720703126,0.6663637161254883,-0.0076010562479496,0.16807681322097778
1761132132147814000,10.10181396484375,-0.16674137115478516,-0.009930331259965897,-0.054551564157009125
1761132132157813800,10.111813720703125,0.1014394760131836,-0.0792589858174324,0.026834949851036072
1761132132167814000,10.12181396484375,0.11358165740966797,-0.03185077756643295,0.027578599750995636
1761132132177813800,10.131813720703125,-0.005972862243652344,-0.000723525881767273,-0.04335813969373703
1761132132187814000,10.14181396484375,0.029993057250976562,0.024756764993071556,-0.022947758436203003
