time,seconds_elapsed,z,y,x
1761131508694663200,0.1266630859375,-0.18791742622852325,0.039477165788412094,-0.5585598945617676
1761131508724676000,0.156676025390625,-0.18791742622852325,0.039477165788412094,-0.5585598945617676
1761131508754676200,0.18667626953125,-0.2972623109817505,0.18425223231315613,0.22395847737789154
1761131508764676000,0.196676025390625,-0.3265838325023651,0.230677992105484,0.28993192315101624
1761131508774676200,0.20667626953125,-0.35101842880249023,0.27343854308128357,0.32963815331459045
1761131508784676000,0.216676025390625,-0.3742313086986542,0.2868776023387909,0.34002286195755005
1761131508794676200,0.22667626953125,-0.38644862174987793,0.25938865542411804,0.3155882656574249
1761131508804676000,0.236676025390625,-0.37972912192344666,0.19219347834587097,0.26916250586509705
1761131508814676200,0.24667626953125,-0.34552064538002014,0.1152244582772255,0.22518019378185272
1761131508824676400,0.25667626953125,-0.29420796036720276,0.06757696717977524,0.20379991829395294
1761131508834676200,0.26667626953125,-0.24533875286579132,0.05719225853681564,0.2007455974817276
1761131508844676400,0.27667626953125,-0.2105194330215454,0.0694095641374588,0.20990857481956482
1761131508854676200,0.28667626953125,-0.19219347834587097,0.09873109310865402,0.22823452949523926
1761131508864674600,0.296674560546875,-0.17753271758556366,0.12622003257274628,0.24778221547603607
1761131508874674700,0.3066748046875,-0.15309810638427734,0.14393512904644012,0.2709950804710388
1761131508884674600,0.316674560546875,-0.1152244582772255,0.1506546437740326,0.2972623109817505
1761131508894674700,0.3266748046875,-0.08040513843297958,0.1549306958913803,0.31986430287361145
1761131508904674600,0.336674560546875,-0.053527068346738815,0.1598176211118698,0.33391422033309937
1761131508914674700,0.3466748046875,-0.035811975598335266,0.15309810638427734,0.33880114555358887
1761131508924674600,0.356674560546875,-0.023594669997692108,0.1146135926246643,0.3381902575492859
1761131508934674700,0.3666748046875,-0.011988230049610138,0.04069889709353447,0.3216969072818756
1761131508944674600,0.376674560546875,0.0038942659739404917,-0.048487428575754166,0.29481884837150574
1761131508954674700,0.3866748046875,0.028939740732312202,-0.14989106357097626,0.25389087200164795
1761131508964674600,0.396674560546875,0.057039543986320496,-0.24029912054538727,0.20502164959907532
1761131508974674700,0.4066748046875,0.08452847599983215,-0.2647337317466736,0.1598176211118698
1761131508984674600,0.416674560546875,0.10468703508377075,-0.22991441190242767,0.10239628702402115
1761131508994674700,0.4266748046875,0.0924697294831276,-0.2189188301563263,0.06635523587465286
1761131509004674600,0.436674560546875,0.0619264654815197,-0.2079232633113861,0.033368512988090515
1761131509014674700,0.4466748046875,0.022831087931990623,-0.20486892759799957,-0.006337726954370737
1761131509024674800,0.4566748046875,-0.018096882849931717,-0.2134210467338562,-0.052152618765830994
1761131509034674700,0.4666748046875,-0.04558581858873367,-0.22563834488391876,-0.09124799817800522
1761131509044674800,0.4766748046875,-0.05841398984193802,-0.21708624064922333,-0.10896308720111847
1761131509054674700,0.4866748046875,-0.05902485549449921,-0.19509509205818176,-0.0918588638305664
1761131509064673800,0.496673828125,-0.05597052723169327,-0.15050192177295685,-0.03199406713247299
1761131509074674000,0.506673828125,-0.0645226389169693,-0.08391761034727097,0.07002042979001999
1761131509084673800,0.516673828125,-0.08895725011825562,-0.0038942659739404917,0.2166280895471573
1761131509094674000,0.526673828125,-0.13171781599521637,0.05474879592657089,0.4035528600215912
1761131509104673800,0.536673828125,-0.1854739636182785,0.02848159149289131,0.6100252866744995
1761131509114674000,0.546673828125,-0.22762365639209747,-0.10468703508377075,0.815276026725769
1761131509134674000,0.566673828125,-0.3174208402633667,-0.4516584873199463,1.0730611085891724
1761131509144673800,0.576673828125,-0.34368807077407837,-0.47303876280784607,1.0663416385650635
1761131509154674000,0.586673828125,-0.36445748805999756,-0.3856850564479828,0.9350056052207947
1761131509164674800,0.5966748046875,-0.382783442735672,-0.2647337317466736,0.6650031805038452
1761131509174674700,0.6066748046875,-0.39500072598457336,-0.1834886521100998,0.27954721450805664
1761131509184674800,0.6166748046875,-0.37972912192344666,-0.13095423579216003,-0.17004960775375366
1761131509194674700,0.6266748046875,-0.330859899520874,-0.0771980956196785,-0.6227007508277893
1761131509204674800,0.6366748046875,-0.26488643884658813,-0.0020616701804101467,-1.0277043581008911
1761131509214674700,0.6466748046875,-0.1964695304632187,0.17692184448242188,-1.5041793584823608
1761131509224674600,0.656674560546875,-0.18486309051513672,0.3418554663658142,-1.7088191509246826
1761131509234674700,0.6666748046875,-0.18303050100803375,0.4933500289916992,-1.8364900350570679
1761131509244674600,0.676674560546875,-0.1750892549753189,0.5238932967185974,-1.9079612493515015
1761131509254674700,0.6866748046875,-0.13110695779323578,0.501902163028717,-1.911015510559082
1761131509264673800,0.696673828125,-0.05291620269417763,0.5128977298736572,-1.846874713897705
1761131509274674000,0.706673828125,0.0466548316180706,0.4854087829589844,-1.7289776802062988
1761131509284673800,0.716673828125,0.17615826427936554,0.35040757060050964,-1.5664875507354736
1761131509294674000,0.726673828125,0.3362049460411072,0.1799761801958084,-1.3465760946273804
1761131509304673800,0.736673828125,0.5219079852104187,0.13416127860546112,-1.0570259094238281
1761131509314674000,0.746673828125,0.7124979496002197,0.30031663179397583,-0.7039458155632019
1761131509324673800,0.756673828125,0.8817076086997986,0.6399577260017395,-0.3245985209941864
1761131509334674000,0.766673828125,1.0209848880767822,1.013196349143982,0.026648996397852898
1761131509344673800,0.776673828125,1.1523209810256958,1.3235158920288086,0.31497737765312195
1761131509354674000,0.786673828125,1.2683852910995483,1.5122733116149902,0.5159520506858826
1761131509364674600,0.796674560546875,1.3569607734680176,1.507386326789856,0.6295729875564575
1761131509374674700,0.8066748046875,1.398499608039856,1.2862530946731567,0.6588945388793945
1761131509384674600,0.816674560546875,1.3948343992233276,0.8934667706489563,0.614912211894989
1761131509394674700,0.8266748046875,1.3477977514266968,0.39988765120506287,0.5251150131225586
1761131509404674600,0.836674560546875,1.2726613283157349,-0.12118039280176163,0.4139375686645508
1761131509414674700,0.8466748046875,1.201801061630249,-0.5518403649330139,0.2972623109817505
1761131509424674800,0.8566748046875,1.1474339962005615,-0.7992408275604248,0.17753271758556366
1761131509434674700,0.8666748046875,1.0979539155960083,-0.9324094653129578,0.051083605736494064
1761131509444674800,0.8766748046875,1.019152283668518,-0.9629526734352112,-0.10896308720111847
1761131509454674700,0.8866748046875,0.951957106590271,-0.8322275280952454,-0.18104518949985504
1761131509464673800,0.896673828125,0.8694903254508972,-0.6446918845176697,-0.21158844232559204
1761131509474674000,0.906673828125,0.7827474474906921,-0.41256311535835266,-0.1779908537864685
1761131509484673800,0.916673828125,0.6978371739387512,-0.15966489911079407,-0.07292203605175018
1761131509494674000,0.926673828125,0.6165921092033386,0.07857254147529602,0.09323330968618393
1761131509504673800,0.936673828125,0.5335144400596619,0.27404943108558655,0.29420796036720276
1761131509514674000,0.946673828125,0.4504367709159851,0.3937790095806122,0.4994587004184723
1761131509524673800,0.956673828125,0.3795763850212097,0.4267657399177551,0.6900486350059509
1761131509534674000,0.966673828125,0.32704198360443115,0.3980550765991211,0.8470410108566284
1761131509544673800,0.976673828125,0.2891683280467987,0.3168099820613861,0.9600511193275452
1761131509554674000,0.986673828125,0.2586250603199005,0.20929770171642303,1.024191975593567
1761131509564674600,0.996674560546875,0.2293035387992859,0.0944550409913063,1.03579843044281
1761131509574674700,1.0066748046875,0.1987602859735489,-0.019776761531829834,1.005255103111267
1761131509584674600,1.016674560546875,0.1724930703639984,-0.1175151988863945,0.9307295680046082
1761131509594674700,1.0266748046875,0.14072808623313904,-0.20425806939601898,0.8097782135009766
1761131509604674600,1.036674560546875,0.1077413558959961,-0.28611400723457336,0.6417902708053589
1761131509614674700,1.0466748046875,0.08269587904214859,-0.35208746790885925,0.4481460154056549
1761131509624674800,1.0566748046875,0.06375905871391296,-0.39729148149490356,0.25389087200164795
1761131509634674700,1.0666748046875,0.04787656292319298,-0.44799330830574036,0.07918340712785721
1761131509644674800,1.0766748046875,0.03871358558535576,-0.49625164270401,-0.057039543986320496
1761131509654674700,1.0866748046875,0.03627012297511101,-0.5011385679244995,-0.13523028790950775
1761131509664673800,1.096673828125,0.02344195358455181,-0.4553236961364746,-0.16577355563640594
1761131509674674000,1.106673828125,-0.036422841250896454,-0.33315062522888184,-0.14133894443511963
1761131509684673800,1.116673828125,-0.10239628702402115,-0.2842814028263092,-0.1071304902434349
1761131509694674000,1.126673828125,-0.1598176211118698,-0.2745075821876526,-0.07475463300943375
1761131509704673800,1.136673828125,-0.1915826052427292,-0.2855031490325928,-0.05520694702863693
1761131509714674000,1.146673828125,-0.20196732878684998,-0.32337677478790283,-0.05520694702863693
1761131509724673800,1.156673828125,-0.19952386617660522,-0.3710242807865143,-0.07475463300943375
1761131509734674000,1.166673828125,-0.20685423910617828,-0.4150065779685974,-0.11568260937929153
1761131509744673800,1.176673828125,-0.23495404422283173,-0.46937358379364014,-0.17737999558448792
1761131509754674000,1.186673828125,-0.2716059684753418,-0.5341253280639648,-0.24762949347496033
1761131509764674600,1.196674560546875,-0.30886873602867126,-0.5365687608718872,-0.32276591658592224
1761131509774674700,1.2066748046875,-0.34429892897605896,-0.4608214795589447,-0.4046218693256378
1761131509794674700,1.2266748046875,-0.4389830231666565,-0.3594178259372711,-0.6312528848648071
1761131509804674600,1.236674560546875,-0.48724138736724854,-0.477314829826355,-0.8047385811805725
1761131509814674700,1.2466748046875,-0.5061782002449036,-0.6410267353057861,-0.9947177171707153
1761131509824674600,1.256674560546875,-0.48601967096328735,-0.7601454257965088,-1.1804207563400269
1761131509834674700,1.2666748046875,-0.4469242990016937,-0.8377253413200378,-1.3563499450683594
1761131509844674600,1.276674560546875,-0.42982006072998047,-0.9214138388633728,-1.5396095514297485
1761131509854674700,1.2866748046875,-0.453643798828125,-0.9372963309288025,-1.7075974941253662
1761131509864673800,1.296673828125,-0.5055673718452454,-0.8029059767723083,-1.8230509757995605
1761131509874674000,1.306673828125,-0.5483279228210449,-0.4614323377609253,-1.8236618041992188
1761131509884673800,1.316673828125,-0.5660430192947388,0.09078984707593918,-1.6782759428024292
1761131509894674000,1.326673828125,-0.5385540723800659,0.718759298324585,-1.380173683166504
1761131509904673800,1.336673828125,-0.44997861981391907,1.2819770574569702,-0.9672287702560425
1761131509914674000,1.346673828125,-0.2166280895471573,1.726686954498291,-0.2537381649017334
1761131509924673800,1.356673828125,-0.025427265092730522,1.6912567615509033,0.2105194330215454
1761131509934674000,1.366673828125,0.1688278764486313,1.4267520904541016,0.6381251215934753
1761131509944673800,1.376673828125,0.32765284180641174,0.9777661561965942,1.0028116703033447
1761131509954674000,1.386673828125,0.4150065779685974,0.4139375686645508,1.2825878858566284
1761131509964674600,1.396674560546875,0.4150065779685974,-0.18898643553256989,1.4634040594100952
1761131509974674700,1.4066748046875,0.33742669224739075,-0.7387651801109314,1.5208253860473633
1761131509984674600,1.416674560546875,0.20059287548065186,-1.1291080713272095,1.4524084329605103
1761131509994674700,1.4266748046875,0.04237877577543259,-1.3392456769943237,1.2789227962493896
1761131510004674600,1.436674560546875,-0.10178542137145996,-1.3942235708236694,1.0186941623687744
1761131510014674700,1.4466748046875,-0.2154063582420349,-1.2781591415405273,0.7224245071411133
1761131510024674600,1.456674560546875,-0.29970577359199524,-0.9544005990028381,0.4475351572036743
1761131510034674700,1.4666748046875,-0.3778965175151825,-0.49930599331855774,0.22945626080036163
1761131510044674600,1.476674560546875,-0.46036332845687866,-0.04237877577543259,0.08407033234834671
1761131510054674700,1.4866748046875,-0.5385540723800659,0.30947959423065186,0.01748601719737053
1761131510064673800,1.496673828125,-0.5916993618011475,0.5422192811965942,0.015653422102332115
1761131510074674000,1.506673828125,-0.606360137462616,0.6662248969078064,0.05230533704161644
1761131510084673800,1.516673828125,-0.5849798321723938,0.6772204637527466,0.09750936180353165
1761131510094674200,1.526674072265625,-0.5416083931922913,0.5904776453971863,0.140269935131073
1761131510104674300,1.53667431640625,-0.4835762083530426,0.4121049642562866,0.17814357578754425
1761131510114674200,1.546674072265625,-0.4084397852420807,0.17264579236507416,0.2166280895471573
1761131510124674300,1.55667431640625,-0.31864258646965027,-0.07903069257736206,0.25816693902015686
1761131510134674200,1.566674072265625,-0.22029328346252441,-0.24090997874736786,0.31497737765312195
1761131510144674300,1.57667431640625,-0.09506590664386749,-0.22258402407169342,0.4371504485607147
1761131510154674200,1.586674072265625,-0.060246583074331284,-0.15905404090881348,0.5177846550941467
1761131510164675000,1.596675048828125,-0.059635721147060394,-0.10102184116840363,0.5794820189476013
1761131510174675200,1.60667529296875,-0.07185302674770355,-0.06375905871391296,0.6088035702705383
1761131510184675000,1.616675048828125,-0.0895681157708168,-0.07841982692480087,0.6069709658622742
1761131510194675200,1.62667529296875,-0.10056369006633759,-0.11385001242160797,0.5819255113601685
1761131510204675300,1.63667529296875,-0.11155926436185837,-0.12851077318191528,0.5318345427513123
1761131510217808100,1.64980810546875,-0.12866349518299103,-0.09918924421072006,0.46647197008132935
1761131510227808000,1.65980810546875,-0.14149166643619537,-0.010002918541431427,0.3980550765991211
1761131510237808000,1.66980810546875,-0.14393512904644012,0.11339186131954193,0.3369685411453247
1761131510247808000,1.67980810546875,-0.13416127860546112,0.263053834438324,0.2832123935222626
1761131510257808100,1.68980810546875,-0.10667234659194946,0.41149410605430603,0.24411702156066895
1761131510267807200,1.69980712890625,-0.05474879592657089,0.5477170348167419,0.22212587296962738
1761131510277807000,1.70980712890625,0.017333300784230232,0.6301838755607605,0.20502164959907532
1761131510287807200,1.71980712890625,0.09980010986328125,0.6271295547485352,0.17692184448242188
1761131510297807000,1.72980712890625,0.18532124161720276,0.5330562591552734,0.1396590620279312
1761131510307807200,1.73980712890625,0.2653445899486542,0.3943898677825928,0.09017898142337799
1761131510317807000,1.74980712890625,0.32765284180641174,0.24839307367801666,0.02603813074529171
1761131510327807200,1.75980712890625,0.36796995997428894,0.08590292185544968,-0.05887213721871376
1761131510337807000,1.76980712890625,0.38873937726020813,-0.08452847599983215,-0.16394096612930298
1761131510347807200,1.77980712890625,0.41195225715637207,-0.2079232633113861,-0.28244882822036743
1761131510357807000,1.78980712890625,0.44799330830574036,-0.223194882273674,-0.4009566605091095
1761131510367808000,1.79980810546875,0.49930599331855774,-0.08086328953504562,-0.49625164270401
1761131510377808100,1.80980810546875,0.5622251033782959,0.3785073757171631,-0.5817728042602539
1761131510387808000,1.81980810546875,0.5591707825660706,0.6466771960258484,-0.638583242893219
1761131510397807600,1.8298076171875,0.5231297016143799,0.8342128396034241,-0.7124979496002197
1761131510407807500,1.839807373046875,0.4760931134223938,0.986929178237915,-0.790688693523407
1761131510417807600,1.8498076171875,0.42416954040527344,1.0687850713729858,-0.8707120418548584
1761131510427807700,1.859807861328125,0.3844633102416992,0.9863182902336121,-0.9598983526229858
1761131510437807600,1.8698076171875,0.37224599719047546,0.8012261390686035,-1.0332021713256836
1761131510447807700,1.879807861328125,0.39790233969688416,0.6698901057243347,-1.0655781030654907
1761131510457807600,1.8898076171875,0.4565454125404358,0.614912211894989,-1.046641230583191
1761131510467806700,1.899806640625,0.5304601192474365,0.6039166450500488,-0.9922742247581482
1761131510477806800,1.909806884765625,0.619035542011261,0.6301838755607605,-0.9153051972389221
1761131510487806700,1.919806640625,0.7179957628250122,0.6833291053771973,-0.8242862820625305
1761131510497806800,1.929806884765625,0.8126798272132874,0.7230353951454163,-0.7564802765846252
1761131510507806500,1.939806396484375,0.8755989670753479,0.6894378066062927,-0.7412086129188538
1761131510517806600,1.949806640625,0.9043096303939819,0.5128977298736572,-0.7699192762374878
1761131510527806500,1.959806396484375,0.9550114274024963,0.2264019250869751,-0.7888560891151428
1761131510537806600,1.969806640625,1.039921760559082,-0.060704734176397324,-0.7424303293228149
1761131510547806500,1.979806396484375,1.1229994297027588,-0.24701863527297974,-0.619035542011261
1761131510557806600,1.989806640625,1.1559860706329346,-0.34353533387184143,-0.4467715620994568
1761131510567807200,1.99980712890625,1.1297188997268677,-0.3753003478050232,-0.24213171005249023
1761131510577807400,2.009807373046875,1.0631345510482788,-0.36369389295578003,-0.025274548679590225
1761131510587807200,2.01980712890625,0.9996046423912048,-0.344757080078125,0.19402606785297394
1761131510597807400,2.029807373046875,0.9770026206970215,-0.32765284180641174,0.4279874563217163
1761131510607807200,2.03980712890625,1.0118218660354614,-0.21219931542873383,0.825049877166748
1761131510617807400,2.049807373046875,1.019152283668518,-0.039935316890478134,1.0932197570800781
1761131510627807500,2.059807373046875,0.9934959411621094,0.20502164959907532,1.3393983840942383
1761131510637807400,2.069807373046875,0.933020293712616,0.43470698595046997,1.5305992364883423
1761131510647807500,2.079807373046875,0.8432230949401855,0.5684864521026611,1.6546049118041992
1761131510657807400,2.089807373046875,0.7448738217353821,0.634459912776947,1.7187457084655762
1761131510667806500,2.099806396484375,0.6349180936813354,0.6790530681610107,1.7156914472579956
1761131510677806600,2.109806640625,0.5292384028434753,0.6814965605735779,1.6436092853546143
1761131510687806500,2.119806396484375,0.4571562707424164,0.605749249458313,1.5110515356063843
1761131510697806600,2.129806640625,0.4314999282360077,0.4530329406261444,1.3363441228866577
1761131510707806500,2.139806396484375,0.45471280813217163,0.24900394678115845,1.1414780616760254
1761131510717806600,2.149806640625,0.5139667391777039,0.05474879592657089,0.948444664478302
1761131510727806500,2.159806396484375,0.5762749910354614,-0.09491318464279175,0.7548003792762756
1761131510737806600,2.169806640625,0.6159812211990356,-0.2439643144607544,0.5605452060699463
1761131510747806500,2.179806396484375,0.6251442432403564,-0.3905719518661499,0.39011383056640625
1761131510757806600,2.189806640625,0.6068182587623596,-0.4510476291179657,0.2575560510158539
1761131510767807500,2.199807373046875,0.5585598945617676,-0.4363868534564972,0.15187637507915497
1761131510777807400,2.209807373046875,0.4907538592815399,-0.4003458023071289,0.07063129544258118
1761131510787807500,2.219807373046875,0.4217261075973511,-0.34781140089035034,0.022372938692569733
1761131510797807400,2.229807373046875,0.3746894598007202,-0.25557073950767517,0.004046982154250145
1761131510807807500,2.239807373046875,0.33742669224739075,-0.1627192348241806,-0.005115996580570936
1761131510817807400,2.249807373046875,0.2934443950653076,-0.11201741546392441,-0.036880988627672195
1761131510827807500,2.259807373046875,0.23235787451267242,-0.102243572473526,-0.1126282811164856
1761131510837807400,2.269807373046875,0.1370628923177719,-0.1278999149799347,-0.2836705446243286
1761131510847807500,2.279807373046875,0.08391761034727097,-0.19937114417552948,-0.4101196527481079
1761131510857807400,2.289807373046875,0.033826664090156555,-0.36369389295578003,-0.5665011405944824
1761131510867806500,2.299806396484375,-0.019318614155054092,-0.5634468197822571,-0.7656432390213013
1761131510877806600,2.309806640625,-0.05780312418937683,-0.7314347624778748,-0.99166339635849
1761131510887806500,2.319806396484375,-0.07551821321249008,-0.8920923471450806,-1.2097423076629639
1761131510897806600,2.329806640625,-0.06635523587465286,-0.9867764711380005,-1.3740650415420532
1761131510907806500,2.339806396484375,-0.044974952936172485,-0.9470701813697815,-1.4528666734695435
1761131510917806600,2.349806640625,-0.015653422102332115,-0.6837872862815857,-1.429042935371399
1761131510927806500,2.359806396484375,0.006337726954370737,-0.25129470229148865,-1.3251957893371582
1761131510937806600,2.369806640625,0.01488984003663063,0.12744176387786865,-1.1785881519317627
1761131510947806500,2.379806396484375,0.04054617881774902,0.3479641079902649,-1.0057132244110107
1761131510957806600,2.389806640625,0.12912164628505707,0.4744132161140442,-0.790688693523407
1761131510967807500,2.399807373046875,0.27206411957740784,0.5593234896659851,-0.5225188732147217
1761131510977807400,2.409807373046875,0.4314999282360077,0.6326273083686829,-0.23174700140953064
1761131510987807500,2.419807373046875,0.5781075954437256,0.6582836508750916,0.05291620269417763
1761131510997807400,2.429807373046875,0.6935611367225647,0.6289620995521545,0.3058144152164459
1761131511007807500,2.439807373046875,0.7778605222702026,0.5849798321723938,0.5263367891311646
1761131511017807400,2.449807373046875,0.8334492444992065,0.5605452060699463,0.7028768062591553
1761131511027808000,2.45980810546875,0.8536078333854675,0.5281693339347839,0.8097782135009766
1761131511037807900,2.469807861328125,0.8322275280952454,0.44081562757492065,0.8378780484199524
1761131511047807700,2.479807861328125,0.7827474474906921,0.311312198638916,0.7908414006233215
1761131511057808000,2.489807861328125,0.7045567035675049,0.17203491926193237,0.6869943141937256
1761131511067807000,2.499806884765625,0.6135377883911133,0.036422841250896454,0.5318345427513123
1761131511077807000,2.50980712890625,0.48342347145080566,-0.060704734176397324,0.25328001379966736
1761131511087807000,2.519806884765625,0.43944117426872253,0.011988230049610138,0.10667234659194946
1761131511097807000,2.52980712890625,0.4247804284095764,0.18730655312538147,0.014431691728532314
1761131511107807000,2.539806884765625,0.4217261075973511,0.4224896728992462,-0.021609358489513397
1761131511117807000,2.54980712890625,0.41378483176231384,0.6411794424057007,-0.0038942659739404917
1761131511127807000,2.559806884765625,0.40340012311935425,0.796339213848114,0.0541379339993
1761131511137806800,2.569806884765625,0.39362630248069763,0.8959102630615234,0.13416127860546112
1761131511147807000,2.579806884765625,0.3911828398704529,0.9441685676574707,0.22212587296962738
1761131511157806800,2.589806884765625,0.4052327275276184,0.919734001159668,0.3082578778266907
1761131511167807700,2.599807861328125,0.4266130030155182,0.844597578048706,0.38583776354789734
1761131511177808000,2.609807861328125,0.444938987493515,0.7639633417129517,0.45120033621788025
1761131511187808000,2.61980810546875,0.45288023352622986,0.6650031805038452,0.49701523780822754
1761131511197807900,2.629807861328125,0.4455498456954956,0.5367214679718018,0.5165629386901855
1761131511207808000,2.63980810546875,0.43333253264427185,0.4169918894767761,0.5220606923103333
1761131511217808000,2.649807861328125,0.41867175698280334,0.31986430287361145,0.5147303342819214
1761131511227807700,2.659807861328125,0.3991240859031677,0.23923009634017944,0.4829653203487396
1761131511237807900,2.669807861328125,0.3753003478050232,0.1457677185535431,0.4218788146972656
1761131511247807700,2.679807861328125,0.3508657217025757,0.06085744872689247,0.33391422033309937
1761131511257808000,2.689807861328125,0.3245985209941864,-0.02099849283695221,0.2257910668849945
1761131511267807000,2.699806884765625,0.2952769994735718,-0.13584116101264954,0.09567677229642868
1761131511277807000,2.70980712890625,0.2745075821876526,-0.26229026913642883,-0.03565925732254982
1761131511287807000,2.719806884765625,0.2629011273384094,-0.3239876627922058,-0.1382846236228943
1761131511297807000,2.72980712890625,0.25129470229148865,-0.31299206614494324,-0.20547980070114136
1761131511307807000,2.739806884765625,0.22014056146144867,-0.2494620978832245,-0.2696206569671631
1761131511317807000,2.74980712890625,0.20547980070114136,-0.142560675740242,-0.28611400723457336
1761131511327806500,2.759806396484375,0.2036471962928772,0.013820826075971127,-0.28733575344085693
1761131511337806600,2.769806640625,0.20731239020824432,0.1500437706708908,-0.28122708201408386
1761131511347806500,2.779806396484375,0.22014056146144867,0.2661081850528717,-0.26656633615493774
1761131511357806600,2.789806640625,0.24152085185050964,0.3620140254497528,-0.24152085185050964
1761131511367807500,2.799807373046875,0.2738966941833496,0.43165266513824463,-0.2140319049358368
1761131511377807400,2.809807373046875,0.3105486333370209,0.453643798828125,-0.1938733607530594
1761131511387807500,2.819807373046875,0.34292447566986084,0.39988765120506287,-0.2036471962928772
1761131511397807400,2.829807373046875,0.36858081817626953,0.26427558064460754,-0.2488512247800827
1761131511407807500,2.839807373046875,0.396680623292923,0.07673994451761246,-0.32337677478790283
1761131511417807400,2.849807373046875,0.43944117426872253,-0.06925684958696365,-0.4003458023071289
1761131511427807500,2.859807373046875,0.5017494559288025,-0.07353290170431137,-0.45288023352622986
1761131511437807400,2.869807373046875,0.5585598945617676,0.03275764733552933,-0.4803691506385803
1761131511447807500,2.879807373046875,0.5976552963256836,0.15859588980674744,-0.5115233063697815
1761131511457807400,2.889807373046875,0.6281985640525818,0.2679407596588135,-0.5524512529373169
1761131511467806500,2.899806396484375,0.6727917194366455,0.3882812261581421,-0.5836054086685181
1761131511477806600,2.909806640625,0.7497607469558716,0.5000695586204529,-0.5823836326599121
1761131511487806500,2.919806396484375,0.8536078333854675,0.5342780351638794,-0.5414556860923767
1761131511497806600,2.929806640625,0.9641744494438171,0.5073999166488647,-0.45410194993019104
1761131511507806500,2.939806396484375,1.0558042526245117,0.5080108046531677,-0.32154420018196106
1761131511517806600,2.949806640625,1.1034517288208008,0.5752059817314148,-0.1676061451435089
1761131511527806500,2.959806396484375,1.107116937637329,0.6601162552833557,-0.03504839166998863
1761131511537806600,2.969806640625,1.087569236755371,0.7199810743331909,0.07185302674770355
1761131511547806500,2.979806396484375,1.0967321395874023,0.7267005443572998,0.08773551881313324
1761131511557806600,2.989806640625,1.1113929748535156,0.6509532928466797,0.0492510087788105
1761131511567807200,2.99980712890625,1.1132255792617798,0.3876703679561615,-0.05581781268119812
1761131511577807400,3.009807373046875,1.1022299528121948,-0.04787656292319298,-0.22624921798706055
1761131511587807200,3.01980712890625,1.116890788078308,-0.48892128467559814,-0.41806089878082275
1761131511597807400,3.029807373046875,1.179198980331421,-0.7228826880455017,-0.5567272901535034
1761131511607807200,3.03980712890625,1.2134073972702026,-0.7583128213882446,-0.6355289220809937
1761131511617807400,3.049807373046875,1.1767555475234985,-0.7143305540084839,-0.6746243238449097
1761131511627807500,3.059807373046875,1.1175016164779663,-0.5915466547012329,-0.6508005857467651
1761131511637807400,3.069807373046875,1.0808496475219727,-0.3453679382801056,-0.524962306022644
1761131511647807500,3.079807373046875,1.05946946144104,-0.02099849283695221,-0.32276591658592224
1761131511657807400,3.089807373046875,1.0228174924850464,0.28932106494903564,-0.09613491594791412
1761131511667806700,3.099806640625,0.9580658078193665,0.5153411626815796,0.12316570430994034
1761131511677806800,3.109806884765625,0.8927031755447388,0.6289620995521545,0.321086049079895
1761131511687806700,3.119806640625,0.8499426245689392,0.6570619344711304,0.5073999166488647
1761131511697806800,3.129806884765625,0.819399356842041,0.624686062335968,0.6656140685081482
1761131511707806700,3.139806640625,0.7870234847068787,0.5416083931922913,0.7896196842193604
1761131511717806800,3.149806884765625,0.7424303293228149,0.42615485191345215,0.8647561073303223
1761131511727806700,3.159806640625,0.6886742115020752,0.3125339448451996,0.8928559422492981
1761131511737806800,3.169806884765625,0.6343072056770325,0.22395847737789154,0.8769733905792236
1761131511747806700,3.179806640625,0.5848271250724792,0.15798501670360565,0.8189412355422974
1761131511757806800,3.189806884765625,0.5384013652801514,0.0797942727804184,0.7169266939163208
1761131511767807700,3.199807861328125,0.5011385679244995,-0.09796751290559769,0.501902163028717
1761131511777807600,3.2098076171875,0.5090798139572144,-0.17982345819473267,0.3577379584312439
1761131511787807700,3.219807861328125,0.525573194026947,-0.19998200237751007,0.2367866337299347
1761131511797807600,3.2298076171875,0.5219079852104187,-0.17737999558448792,0.14698944985866547
1761131511807807700,3.239807861328125,0.4712061882019043,-0.10835222154855728,0.09078984707593918
1761131511817807600,3.2498076171875,0.37713292241096497,-0.013057244941592216,0.048029281198978424
1761131511827807700,3.259807861328125,0.26167941093444824,0.05230533704161644,0.013820826075971127
1761131511837807600,3.2698076171875,0.1480584591627121,0.05841398984193802,-0.012446379289031029
1761131511847807700,3.279807861328125,0.048487428575754166,0.06330090761184692,-0.008781188167631626
1761131511857807600,3.2898076171875,-0.02603813074529171,0.09934195876121521,0.022372938692569733
1761131511867806700,3.299806640625,-0.08162686973810196,0.14210252463817596,0.06085744872689247
1761131511877806800,3.309806884765625,-0.12805262207984924,0.140269935131073,0.08040513843297958
1761131511887806700,3.319806640625,-0.15187637507915497,0.10545061528682709,0.0895681157708168
1761131511897806800,3.329806884765625,-0.1604284793138504,0.09201157838106155,0.09140071272850037
1761131511907806700,3.339806640625,-0.1702023297548294,0.08407033234834671,0.06146831437945366
1761131511917806800,3.349806884765625,-0.19341520965099335,0.047418415546417236,-0.014278975315392017
1761131511927806700,3.359806640625,-0.23434318602085114,-0.04482223838567734,-0.142560675740242
1761131511937806800,3.369806884765625,-0.2905427813529968,-0.223194882273674,-0.31177034974098206
1761131511947806700,3.379806640625,-0.3626248836517334,-0.4455498456954956,-0.5225188732147217
1761131511957806800,3.389806884765625,-0.43104177713394165,-0.6202573180198669,-0.7491498589515686
1761131511967807200,3.39980712890625,-0.46158504486083984,-0.6862307190895081,-0.9550114274024963
1761131511977807400,3.409807373046875,-0.45547640323638916,-0.6569092273712158,-1.116890788078308
1761131511987807200,3.41980712890625,-0.4328743815422058,-0.5878814458847046,-1.2323442697525024
1761131511997807400,3.429807373046875,-0.3626248836517334,-0.37774381041526794,-1.2836569547653198
1761131512007807200,3.43980712890625,-0.29848402738571167,-0.12545645236968994,-1.2274574041366577
1761131512017807400,3.449807373046875,-0.2526691257953644,0.1097266674041748,-1.122388482093811
1761131512027807200,3.45980712890625,-0.24228443205356598,0.2410627007484436,-0.99166339635849
1761131512037807400,3.469807373046875,-0.25816693902015686,0.2667190432548523,-0.839557945728302
1761131512047807200,3.47980712890625,-0.25328001379966736,0.24778221547603607,-0.6532440185546875
1761131512057807400,3.489807373046875,-0.1958586722612381,0.2459496259689331,-0.43333253264427185
1761131512067806500,3.499806396484375,-0.09506590664386749,0.2807689309120178,-0.19509509205818176
1761131512077806600,3.509806640625,0.022831087931990623,0.3216969072818756,0.04253149405121803
1761131512087806500,3.519806396484375,0.13034337759017944,0.34490978717803955,0.25511258840560913
1761131512097806600,3.529806640625,0.2085341215133667,0.32536208629608154,0.4243222773075104
1761131512107806500,3.539806396484375,0.25251641869544983,0.2520582675933838,0.5269476175308228
1761131512117806600,3.549806640625,0.2653445899486542,0.1451568603515625,0.5739842653274536
1761131512127806500,3.559806396484375,0.24518603086471558,0.018096882849931717,0.5648213028907776
1761131512137806300,3.569806396484375,0.1883755773305893,-0.11568260937929153,0.501902163028717
1761131512147806500,3.579806396484375,0.09857837855815887,-0.18715384602546692,0.40049853920936584
1761131512157806300,3.589806396484375,-0.01687515154480934,-0.1480584591627121,0.27954721450805664
1761131512167807200,3.59980712890625,-0.13293954730033875,-0.011224648915231228,0.16775886714458466
1761131512177807400,3.609807373046875,-0.22945626080036163,0.20379991829395294,0.09812022745609283
1761131512187807500,3.619807373046875,-0.30031663179397583,0.4786892831325531,0.07307475805282593
1761131512197807400,3.629807373046875,-0.35407277941703796,0.7548003792762756,0.08651378750801086
1761131512207807500,3.639807373046875,-0.38461601734161377,0.9936487078666687,0.1298852264881134
1761131512217807400,3.649807373046875,-0.391946405172348,1.1787408590316772,0.19341520965099335
1761131512227807200,3.65980712890625,-0.37056612968444824,1.2844204902648926,0.26916250586509705
1761131512237807400,3.669807373046875,-0.3082578778266907,1.2074514627456665,0.3925572633743286
1761131512257807400,3.689807373046875,-0.18730655312538147,0.8574257493019104,0.5104542970657349
1761131512267806500,3.699806396484375,-0.1298852264881134,0.6106361746788025,0.5092325210571289
1761131512277806600,3.709806640625,-0.06879869848489761,0.32902729511260986,0.47196975350379944
1761131512287806500,3.719806396484375,0.005115996580570936,0.06391177326440811,0.41515928506851196
1761131512297806600,3.729806640625,0.08575020730495453,-0.1376737505197525,0.34979671239852905
1761131512307806500,3.739806396484375,0.15416711568832397,-0.2690097689628601,0.2667190432548523
1761131512317806600,3.749806640625,0.1987602859735489,-0.33742669224739075,0.16470454633235931
1761131512327806500,3.759806396484375,0.2189188301563263,-0.3789655268192291,0.04314235970377922
1761131512337806600,3.769806640625,0.21647536754608154,-0.42905646562576294,-0.0973566472530365
1761131512347806500,3.779806396484375,0.20425806939601898,-0.4974733889102936,-0.254349023103714
1761131512357806600,3.789806640625,0.19204075634479523,-0.6068182587623596,-0.4168391823768616
1761131512367807200,3.79980712890625,0.18654297292232513,-0.7039458155632019,-0.5671120285987854
1761131512377807400,3.809807373046875,0.17921258509159088,-0.7705301642417908,-0.6923394203186035
1761131512387807200,3.81980712890625,0.16516269743442535,-0.7839691638946533,-0.7680866718292236
1761131512397807400,3.829807373046875,0.15050192177295685,-0.687452495098114,-0.7674758434295654
1761131512407807200,3.83980712890625,0.13461942970752716,-0.46448665857315063,-0.6862307190895081
1761131512417807400,3.849807373046875,0.11385001242160797,-0.14500413835048676,-0.5493969321250916
1761131512427807500,3.859807373046875,0.08025242388248444,0.16653713583946228,-0.3850741684436798
1761131512437807400,3.869807373046875,0.06131559982895851,0.36079227924346924,-0.20731239020824432
1761131512447807500,3.879807373046875,0.07170030474662781,0.41027235984802246,-0.03321579843759537
1761131512457807400,3.889807373046875,0.10957395285367966,0.35407277941703796,0.11766792088747025
1761131512467806500,3.899806396484375,0.1834886521100998,0.16409367322921753,0.25450173020362854
1761131512477806600,3.909806640625,0.2384665161371231,0.012599095702171326,0.27404943108558655
1761131512487806500,3.919806396484375,0.29772046208381653,-0.11079568415880203,0.24778221547603607
1761131512497806600,3.929806640625,0.35819610953330994,-0.18165604770183563,0.19219347834587097
1761131512507806500,3.939806396484375,0.40889793634414673,-0.1786017268896103,0.12438743561506271
1761131512517806600,3.949806640625,0.4571562707424164,-0.05398521572351456,0.05291620269417763
1761131512527806500,3.959806396484375,0.5078580975532532,0.17631098628044128,-0.011835514567792416
1761131512537806600,3.969806640625,0.5628359913825989,0.4322635233402252,-0.06864598393440247
1761131512547806500,3.979806396484375,0.6172029972076416,0.5971971154212952,-0.12056952714920044
1761131512557806600,3.989806640625,0.6734025478363037,0.6289620995521545,-0.16455182433128357
1761131512567807200,3.99980712890625,0.7424303293228149,0.6075818538665771,-0.17921258509159088
1761131512577807400,4.009807373046875,0.8273406028747559,0.654007613658905,-0.14439326524734497
1761131512587807200,4.01980712890625,0.9018661975860596,0.7444156408309937,-0.072311170399189
1761131512597807400,4.029807373046875,0.953178882598877,0.7786241173744202,0.008933904580771923
1761131512607807200,4.03980712890625,0.9977720379829407,0.7609090209007263,0.0999528244137764
1761131512617807400,4.049807373046875,1.0503064393997192,0.7102072238922119,0.18486309051513672
1761131512627806500,4.059806396484375,1.1065059900283813,0.6411794424057007,0.24472789466381073
1761131512637806600,4.069806640625,1.1559860706329346,0.5697082281112671,0.27832546830177307
1761131512647806500,4.079806396484375,1.1932488679885864,0.5080108046531677,0.26977336406707764
1761131512657806600,4.089806640625,1.2091313600540161,0.43592870235443115,0.20441077649593353
1761131512667805700,4.0998056640625,1.19202721118927,0.26488643884658813,0.05597052723169327
1761131512677805600,4.1098056640625,1.152931809425354,-0.1431715488433838,-0.182877779006958
1761131512687805700,4.1198056640625,1.1737011671066284,-0.6831763982772827,-0.4608214795589447
1761131512697805600,4.1298056640625,1.3832279443740845,-1.3862823247909546,-0.7265478372573853
1761131512707805700,4.1398056640625,1.5542702674865723,-1.6452891826629639,-0.7625889182090759
1761131512717805600,4.1498056640625,1.6972126960754395,-1.6776649951934814,-0.6929502487182617
1761131512727805400,4.159805419921875,1.7918968200683594,-1.513342261314392,-0.5194645524024963
1761131512737805600,4.1698056640625,1.8328248262405396,-1.2237921953201294,-0.26717719435691833
1761131512747805400,4.179805419921875,1.8358790874481201,-0.8707120418548584,0.04130976274609566
1761131512757805600,4.1898056640625,1.8230509757995605,-0.49930599331855774,0.391946405172348
1761131512767806500,4.199806396484375,1.8065576553344727,-0.10529789328575134,0.7560220956802368
1761131512777806300,4.209806396484375,1.780901312828064,0.3168099820613861,1.1048262119293213
1761131512787806500,4.219806396484375,1.7332537174224854,0.738306999206543,1.4047609567642212
1761131512797806300,4.229806396484375,1.6575064659118652,1.0852785110473633,1.6258941888809204
1761131512807806500,4.239806396484375,1.571374535560608,1.3149638175964355,1.767004132270813
1761131512817806300,4.249806396484375,1.5023467540740967,1.4554628133773804,1.8445839881896973
1761131512827806500,4.259806396484375,1.4400384426116943,1.5428165197372437,1.8696293830871582
1761131512837806300,4.269806396484375,1.3838388919830322,1.5678620338439941,1.832977533340454
1761131512847806500,4.279806396484375,1.339856505393982,1.5055537223815918,1.7389042377471924
1761131512857806300,4.289806396484375,1.303815484046936,1.3497830629348755,1.6045138835906982
1761131512867805700,4.2998056640625,1.2812135219573975,1.119486927986145,1.4469107389450073
1761131512877805600,4.3098056640625,1.2720504999160767,0.8360454440116882,1.281366229057312
1761131512887805700,4.3198056640625,1.278770089149475,0.531223714351654,1.1170434951782227
1761131512897805600,4.3298056640625,1.3001502752304077,0.24045182764530182,0.9618836641311646
1761131512907805700,4.3398056640625,1.3215305805206299,0.013209961354732513,0.8244389891624451
1761131512917805600,4.3498056640625,1.3172545433044434,-0.12118039280176163,0.7114289402961731
1761131512927806500,4.359806396484375,1.2390637397766113,-0.21708624064922333,0.5660430192947388
1761131512937806300,4.369806396484375,1.1565970182418823,-0.22258402407169342,0.4884631335735321
1761131512947806500,4.379806396484375,1.068021535873413,-0.17127133905887604,0.4328743815422058
1761131512957806300,4.389806396484375,0.9794460535049438,-0.09918924421072006,0.3943898677825928
1761131512967807200,4.39980712890625,0.8902597427368164,-0.03749185428023338,0.3717878460884094
1761131512977807400,4.409807373046875,0.8071820735931396,0.035811975598335266,0.3669009506702423
1761131512987807200,4.41980712890625,0.7228826880455017,0.12744176387786865,0.36506834626197815
1761131512997807400,4.429807373046875,0.6214790344238281,0.18791742622852325,0.34002286195755005
1761131513007807200,4.43980712890625,0.49869510531425476,0.17264579236507416,0.2764928936958313
1761131513017807400,4.449807373046875,0.34720054268836975,0.05291620269417763,0.1555415689945221
1761131513027807200,4.45980712890625,0.16455182433128357,-0.19509509205818176,-0.027718011289834976
1761131513037807400,4.469807373046875,-0.04253149405121803,-0.5842162370681763,-0.27695104479789734
1761131513047807200,4.47980712890625,-0.25022566318511963,-0.972115695476532,-0.5597816109657288
1761131513057807400,4.489807373046875,-0.4231005311012268,-1.22684645652771,-0.8407796621322632
1761131513067806500,4.499806396484375,-0.5611560940742493,-1.353906512260437,-1.1016191244125366
1761131513077806300,4.509806396484375,-0.6796639561653137,-1.3685672283172607,-1.322141408920288
1761131513087806500,4.519806396484375,-0.7664068341255188,-1.2091313600540161,-1.4693599939346313
1761131513097806300,4.529806396484375,-0.8281041979789734,-0.8047385811805725,-1.532279133796692
1761131513107806500,4.539806396484375,-0.8537605404853821,-0.18715384602546692,-1.5066227912902832
1761131513117806300,4.549806396484375,-0.8586474657058716,0.4799109995365143,-1.4156038761138916
1761131513127806500,4.559806396484375,-0.8476518988609314,1.0278571844100952,-1.2799917459487915
1761131513137806300,4.569806396484375,-0.8244389891624451,1.3888784646987915,-1.1003973484039307
1761131513147806500,4.579806396484375,-0.7664068341255188,1.5990161895751953,-0.8755989670753479
1761131513157806300,4.589806396484375,-0.577038586139679,1.8622990846633911,-0.47975829243659973
1761131513167807200,4.59980712890625,-0.41027235984802246,1.9869155883789062,-0.21708624064922333
1761131513177807400,4.609807373046875,-0.230677992105484,2.0076849460601807,0.013820826075971127
1761131513187807200,4.61980712890625,-0.035811975598335266,1.9026161432266235,0.20441077649593353
1761131513197807400,4.629807373046875,0.16455182433128357,1.6765960454940796,0.3473532497882843
1761131513207807200,4.63980712890625,0.36674821376800537,1.355280876159668,0.42982006072998047
1761131513217807400,4.649807373046875,0.5591707825660706,0.9783770442008972,0.4579198658466339
1761131513227807200,4.65980712890625,0.7418195009231567,0.6167448163032532,0.4432590901851654
1761131513237807400,4.669807373046875,0.9159160852432251,0.3284164369106293,0.3980550765991211
1761131513247807200,4.67980712890625,1.074741005897522,0.12255483865737915,0.32536208629608154
1761131513257807400,4.689807373046875,1.200579285621643,0.0009926559869199991,0.2367866337299347
1761131513267806500,4.699806396484375,1.2775483131408691,-0.04787656292319298,0.15126550197601318
1761131513277806600,4.709806640625,1.3123676776885986,-0.05520694702863693,0.0895681157708168
1761131513287806500,4.719806396484375,1.3123676776885986,0.022372938692569733,0.06085744872689247
1761131513297806600,4.729806640625,1.2799917459487915,0.23251058161258698,0.07368562370538712
1761131513307806500,4.739806396484375,1.220126986503601,0.5635995268821716,0.11766792088747025
1761131513317806300,4.749806396484375,1.1339949369430542,0.9337838888168335,0.17203491926193237
1761131513327806500,4.759806396484375,1.0313695669174194,1.2398273944854736,0.21479548513889313
1761131513337806300,4.769806396484375,0.951957106590271,1.4218652248382568,0.2367866337299347
1761131513347806500,4.779806396484375,0.9214138388633728,1.5275448560714722,0.24045182764530182
1761131513357806300,4.789806396484375,0.9311876893043518,1.5727488994598389,0.21907155215740204
1761131513367807200,4.79980712890625,0.9660070538520813,1.536707878112793,0.17753271758556366
1761131513377807400,4.809807373046875,1.0099893808364868,1.4133131504058838,0.11094839870929718
1761131513387807200,4.81980712890625,1.05946946144104,1.2147818803787231,0.0290924571454525
1761131513397807400,4.829807373046875,1.1352167129516602,0.8311585187911987,-0.11568260937929153
1761131513407807200,4.83980712890625,1.1889728307724,0.5361106395721436,-0.2189188301563263
1761131513417807400,4.849807373046875,1.249448537826538,0.2264019250869751,-0.3142138123512268
1761131513427807500,4.859807373046875,1.3074806928634644,-0.06803511828184128,-0.4003458023071289
1761131513437807400,4.869807373046875,1.3545173406600952,-0.3245985209941864,-0.47914743423461914
1761131513447807500,4.879807373046875,1.3875041007995605,-0.5475643277168274,-0.5530621409416199
1761131513457807400,4.889807373046875,1.4064408540725708,-0.7131088376045227,-0.6214790344238281
1761131513467806500,4.899806396484375,1.4064408540725708,-0.8255079984664917,-0.6789003610610962
1761131513477806600,4.909806640625,1.388725757598877,-0.9055313467979431,-0.7167739868164062
1761131513487806500,4.919806396484375,1.35940420627594,-0.9055313467979431,-0.7112762331962585
1761131513497806300,4.929806396484375,1.3258066177368164,-0.7943539023399353,-0.6453027725219727
1761131513507806500,4.939806396484375,1.2964850664138794,-0.5652794241905212,-0.516410231590271
1761131513517806300,4.949806396484375,1.265941858291626,-0.23785565793514252,-0.3355940878391266
1761131513527806500,4.959806396484375,1.2439507246017456,0.19708040356636047,-0.10468703508377075
1761131513537806300,4.969806396484375,1.2195161581039429,0.6613379716873169,0.14454598724842072
1761131513547806500,4.979806396484375,1.1749229431152344,1.0101420879364014,0.36934441328048706
1761131513557806300,4.989806396484375,1.1211668252944946,1.1726322174072266,0.5440518856048584
1761131513567807200,4.99980712890625,1.0894018411636353,1.2276101112365723,0.6723335385322571
1761131513577807400,5.009807373046875,1.0784062147140503,1.223944902420044,0.7511351704597473
1761131513587807200,5.01980712890625,1.0606911182403564,1.1127674579620361,0.7682393789291382
1761131513597807400,5.029807373046875,1.0417543649673462,0.9069058299064636,0.7291440367698669
1761131513607807200,5.03980712890625,1.0277043581008911,0.6772204637527466,0.6521750092506409
1761131513617807400,5.049807373046875,1.0160980224609375,0.4469242990016937,0.5422192811965942
1761131513627807200,5.05980712890625,0.9898307919502258,0.11766792088747025,0.3320816159248352
1761131513637807400,5.069807373046875,0.9690613746643066,-0.02955060638487339,0.1860848218202591
1761131513647807200,5.07980712890625,0.953178882598877,-0.1272890418767929,0.05719225853681564
1761131513657807400,5.089807373046875,0.9470701813697815,-0.14072808623313904,-0.036880988627672195
1761131513667806500,5.099806396484375,0.9476810693740845,-0.042989641427993774,-0.08575020730495453
1761131513677806600,5.109806640625,0.953178882598877,0.12866349518299103,-0.09857837855815887
1761131513687806500,5.119806396484375,0.951957106590271,0.32536208629608154,-0.09124799817800522
1761131513697806600,5.129806640625,0.933020293712616,0.501902163028717,-0.06803511828184128
1761131513707806500,5.139806396484375,0.9055313467979431,0.6827182769775391,-0.036880988627672195
1761131513717806600,5.149806640625,0.868268609046936,0.8219955563545227,-0.011224648915231228
1761131513727806500,5.159806396484375,0.838947057723999,0.7908414006233215,-0.01061378326267004
1761131513737806300,5.169806396484375,0.8426122665405273,0.5648213028907776,-0.030161472037434578
1761131513747806500,5.179806396484375,0.8853728175163269,0.30459266901016235,-0.0417679101228714
1761131513757806300,5.189806396484375,0.9592875242233276,0.16898059844970703,-0.019776761531829834
1761131513767807200,5.19980712890625,1.0252609252929688,0.2105194330215454,0.05047274008393288
1761131513777807400,5.209807373046875,1.0716867446899414,0.4683045744895935,0.14760030806064606
1761131513787807200,5.21980712890625,1.1046733856201172,0.9117927551269531,0.25022566318511963
1761131513797807400,5.229807373046875,1.1205558776855469,1.3516156673431396,0.3223077654838562
1761131513807807200,5.23980712890625,1.1303297281265259,1.6442201137542725,0.3326924741268158
1761131513817807400,5.249807373046875,1.1498774290084839,1.7779996395111084,0.2716059684753418
1761131513827807200,5.25980712890625,1.1804207563400269,1.7218000888824463,0.14454598724842072
1761131513837807400,5.269807373046875,1.218294382095337,1.377882957458496,-0.039324451237916946
1761131513847807200,5.27980712890625,1.275715708732605,0.757854700088501,-0.2488512247800827
1761131513857807400,5.289807373046875,1.4039974212646484,-0.4657084047794342,-0.5426774024963379
1761131513867806500,5.299806396484375,1.5237269401550293,-1.1883620023727417,-0.6752351522445679
1761131513877806300,5.309806396484375,1.645900011062622,-1.695991039276123,-0.7308239340782166
1761131513887806500,5.319806396484375,1.7301994562149048,-1.950110912322998,-0.7137196660041809
1761131513897806300,5.329806396484375,1.7821229696273804,-1.8621463775634766,-0.5793293118476868
1761131513907806500,5.339806396484375,1.7790687084197998,-1.45714271068573,-0.3453679382801056
1761131513917806300,5.349806396484375,1.6996561288833618,-0.8658251166343689,-0.04787656292319298
1761131513927806500,5.359806396484375,1.5542702674865723,-0.2341904640197754,0.26366472244262695
1761131513937806300,5.369806396484375,1.3649020195007324,0.34002286195755005,0.5642104148864746
1761131513947806500,5.379806396484375,1.1547644138336182,0.7431939244270325,0.825049877166748
1761131513957806300,5.389806396484375,0.9641744494438171,0.977155327796936,1.0272462368011475
1761131513967807200,5.39980712890625,0.819399356842041,1.1115456819534302,1.1720213890075684
1761131513977807400,5.409807373046875,0.7149413824081421,1.178130030632019,1.250822901725769
1761131513987807200,5.41980712890625,0.6239224672317505,1.1775190830230713,1.250822901725769
1761131513997807400,5.429807373046875,0.5518403649330139,1.099939227104187,1.1897363662719727
1761131514007807200,5.43980712890625,0.506025493144989,0.9692140817642212,1.080391526222229
1761131514017807400,5.449807373046875,0.4876995384693146,0.8012261390686035,0.938670814037323
1761131514027807000,5.459806884765625,0.4809800088405609,0.5892558693885803,0.7657959461212158
1761131514037807000,5.46980712890625,0.4754822254180908,0.35407277941703796,0.5690973401069641
1761131514047807000,5.479806884765625,0.45959973335266113,0.1353830099105835,0.35957056283950806
1761131514057807000,5.48980712890625,0.4205043613910675,-0.05520694702863693,0.14332425594329834
1761131514067806200,5.49980615234375,0.3557526469230652,-0.21586450934410095,-0.07108944654464722
1761131514077806000,5.50980615234375,0.2800053656101227,-0.3362049460411072,-0.264122873544693
1761131514087806200,5.51980615234375,0.1737148016691208,-0.38873937726020813,-0.47975829243659973
1761131514097806000,5.52980615234375,0.1175151988863945,-0.3441462218761444,-0.5640577077865601
1761131514107806200,5.53980615234375,0.06620252132415771,-0.2738966941833496,-0.6086508631706238
1761131514117806300,5.549806396484375,0.02038762718439102,-0.1932624876499176,-0.6227007508277893
1761131514127806200,5.55980615234375,-0.008933904580771923,-0.0918588638305664,-0.6074291467666626
1761131514137806300,5.569806396484375,-0.03275764733552933,0.04253149405121803,-0.5665011405944824
1761131514147806200,5.57980615234375,-0.06146831437945366,0.1702023297548294,-0.5084689855575562
1761131514157806300,5.589806396484375,-0.09323330968618393,0.3070361316204071,-0.42844560742378235
1761131514167807200,5.59980712890625,-0.11705705523490906,0.48052188754081726,-0.32704198360443115
1761131514177807000,5.60980712890625,-0.130496084690094,0.6582836508750916,-0.21464277803897858
1761131514187807200,5.61980712890625,-0.14821118116378784,0.7902305722236633,-0.12851077318191528
1761131514197807000,5.62980712890625,-0.17386752367019653,0.8452084064483643,-0.08819366991519928
1761131514207807200,5.63980712890625,-0.2105194330215454,0.8134434223175049,-0.09552405029535294
1761131514217807000,5.64980712890625,-0.26366472244262695,0.6515641212463379,-0.16210836172103882
1761131514227807200,5.65980712890625,-0.34368807077407837,0.3369685411453247,-0.2903900742530823
1761131514237807000,5.66980712890625,-0.42982006072998047,-0.07353290170431137,-0.44860416650772095
1761131514247807200,5.67980712890625,-0.4854087829589844,-0.4314999282360077,-0.5976552963256836
1761131514257807000,5.68980712890625,-0.4945717751979828,-0.5738315582275391,-0.6905068159103394
1761131514267806200,5.69980615234375,-0.49090659618377686,-0.5127450227737427,-0.7277695536613464
1761131514277806300,5.709806396484375,-0.5080108046531677,-0.33131805062294006,-0.7222718000411987
1761131514287806200,5.71980615234375,-0.5318345427513123,-0.05581781268119812,-0.6746243238449097
1761131514297806300,5.729806396484375,-0.5544365644454956,0.19463694095611572,-0.5982661247253418
1761131514307806200,5.73980615234375,-0.5471062064170837,0.3412446081638336,-0.48464521765708923
1761131514317806300,5.749806396484375,-0.4432590901851654,0.43165266513824463,-0.22991441190242767
1761131514327806500,5.759806396484375,-0.3271946907043457,0.511676013469696,-0.005726861767470837
1761131514337806600,5.769806640625,-0.21174116432666779,0.6705009937286377,0.23861923813819885
1761131514347806500,5.779806396484375,-0.11766792088747025,0.9893726110458374,0.47563496232032776
1761131514367807200,5.79980712890625,0.006337726954370737,1.8360317945480347,0.8500953316688538
1761131514377807400,5.809807373046875,0.07353290170431137,2.1830034255981445,0.9692140817642212
1761131514387807200,5.81980712890625,0.14866933226585388,2.217822551727295,1.016250729560852
1761131514397807400,5.829807373046875,0.19631682336330414,1.649717926979065,0.9319512844085693
1761131514407807200,5.83980712890625,0.182877779006958,0.511676013469696,0.6656140685081482
1761131514417807400,5.849807373046875,0.14011721312999725,-0.7418195009231567,0.29359710216522217
1761131514427807500,5.859807373046875,0.10407616943120956,-1.695991039276123,-0.11323914676904678
1761131514437807400,5.869807373046875,0.03871358558535576,-2.2592086791992188,-0.5701663494110107
1761131514447807500,5.879807373046875,-0.051083605736494064,-2.4070382118225098,-1.0393108129501343
1761131514457807400,5.889807373046875,-0.12683089077472687,-2.0179169178009033,-1.4492014646530151
1761131514467806500,5.899806396484375,-0.12438743561506271,-1.2836569547653198,-1.7564666271209717
1761131514477806600,5.909806640625,-0.030925052240490913,-0.4974733889102936,-1.9397262334823608
1761131514487806500,5.919806396484375,0.13034337759017944,0.13416127860546112,-2.017306089401245
1761131514497806300,5.929806396484375,0.3044399619102478,0.49579349160194397,-2.0154736042022705
1761131514507806500,5.939806396484375,0.4217261075973511,0.46525025367736816,-1.9653825759887695
1761131514517806300,5.949806396484375,0.49441906809806824,0.26855164766311646,-1.864589810371399
1761131514527806500,5.959806396484375,0.5298492312431335,0.16959145665168762,-1.7069865465164185
1761131514537806300,5.969806396484375,0.516410231590271,0.1964695304632187,-1.506011962890625
1761131514547806500,5.979806396484375,0.4718170464038849,0.34490978717803955,-1.2714396715164185
1761131514557806300,5.989806396484375,0.42844560742378235,0.8000044226646423,-0.8548295497894287
1761131514567807200,5.99980712890625,0.41378483176231384,1.145754098892212,-0.5719989538192749
1761131514577807400,6.009807373046875,0.37774381041526794,1.4114805459976196,-0.3105486333370209
1761131514587807200,6.01980712890625,0.33253976702690125,1.575803279876709,-0.07903069257736206
1761131514597807400,6.029807373046875,0.28672486543655396,1.6381114721298218,0.11766792088747025
1761131514607807200,6.03980712890625,0.2629011273384094,1.5806901454925537,0.2673299014568329
1761131514617807400,6.049807373046875,0.2653445899486542,1.4157565832138062,0.35957056283950806
1761131514627806500,6.059806396484375,0.30260735750198364,1.2025645971298218,0.3992767930030823
1761131514637806300,6.069806396484375,0.38690677285194397,0.9710466861724854,0.3986659348011017
1761131514647806500,6.079806396484375,0.5133558511734009,0.7132615447044373,0.3638466000556946
1761131514657806300,6.089806396484375,0.6715700030326843,0.45120033621788025,0.30459266901016235
1761131514667806500,6.099806396484375,0.8365035653114319,0.23434318602085114,0.23923009634017944
1761131514677806300,6.109806396484375,0.9861655831336975,0.07673994451761246,0.17814357578754425
1761131514687806500,6.119806396484375,1.1010082960128784,0.013209961354732513,0.15431983768939972
1761131514697806300,6.129806396484375,1.1749229431152344,0.03153591975569725,0.16775886714458466
1761131514707806500,6.139806396484375,1.1889728307724,0.08407033234834671,0.21418462693691254
1761131514717806300,6.149806396484375,1.1510992050170898,0.13843733072280884,0.2819906771183014
1761131514727806500,6.159806396484375,1.0643563270568848,0.16409367322921753,0.3522401750087738
1761131514737806300,6.169806396484375,0.9470701813697815,0.11155926436185837,0.39622247219085693
1761131514747806500,6.179806396484375,0.8230645656585693,-0.0264962799847126,0.4072180390357971
1761131514757806300,6.189806396484375,0.6996697783470154,-0.21097758412361145,0.3882812261581421
1761131514767807200,6.19980712890625,0.580551028251648,-0.415617436170578,0.3479641079902649
1761131514777807000,6.20980712890625,0.4724279046058655,-0.5787184834480286,0.2960405647754669
1761131514787807200,6.21980712890625,0.3294854462146759,-0.6544657349586487,0.20868684351444244
1761131514797807000,6.22980712890625,0.25129470229148865,-0.5891031622886658,0.14332425594329834
1761131514807807200,6.23980712890625,0.17188221216201782,-0.5029711723327637,0.08223773539066315
1761131514817807000,6.24980712890625,0.08330674469470978,-0.4363868534564972,0.04130976274609566
1761131514827807200,6.25980712890625,-0.013209961354732513,-0.47487136721611023,0.008933904580771923
1761131514837807400,6.269807373046875,-0.09873109310865402,-0.6074291467666626,0.0009926559869199991
1761131514847807200,6.27980712890625,-0.15615242719650269,-0.6880633234977722,0.04314235970377922
1761131514857807400,6.289807373046875,-0.1915826052427292,-0.6758460402488708,0.1408807933330536
1761131514867806500,6.299806396484375,-0.22762365639209747,-0.5872705578804016,0.292375385761261
1761131514877806300,6.309806396484375,-0.27343854308128357,-0.4553236961364746,0.47196975350379944
1761131514887806500,6.319806396484375,-0.3161991238594055,-0.28183794021606445,0.673555314540863
1761131514897806300,6.329806396484375,-0.3333033621311188,-0.03565925732254982,0.8940776586532593
1761131514907806500,6.339806396484375,-0.321086049079895,0.25999951362609863,1.1304824352264404
1761131514917806300,6.349806396484375,-0.2880993187427521,0.6454554796218872,1.368109107017517
1761131514927807200,6.35980712890625,-0.24350616335868835,1.120708703994751,1.5727488994598389
1761131514937807400,6.369807373046875,-0.1860848218202591,1.5776358842849731,1.7175240516662598
1761131514947807200,6.37980712890625,-0.1549306958913803,1.6491070985794067,1.745012879371643
1761131514957807400,6.389807373046875,-0.17875444889068604,0.6808856725692749,1.5635859966278076
1761131514967807200,6.39980712890625,-0.16714800894260406,-1.1779773235321045,1.2111166715621948
1761131514977807400,6.409807373046875,-0.0009926559869199991,-2.907336711883545,0.8268824815750122
1761131514987807200,6.41980712890625,0.2690097689628601,-3.7625482082366943,0.4847979247570038
1761131514997807400,6.429807373046875,0.4400520622730255,-3.6904659271240234,0.1555415689945221
1761131515007807200,6.43980712890625,0.3557526469230652,-2.9036715030670166,-0.17004960775375366
1761131515017807400,6.449807373046875,-0.14271339774131775,-1.2127965688705444,-0.6031530499458313
1761131515027807200,6.45980712890625,-0.5196172595024109,-0.12423472106456757,-0.8169559240341187
1761131515037807400,6.469807373046875,-0.7835110425949097,0.7657959461212158,-0.9220247268676758
1761131515047807200,6.47980712890625,-0.90018630027771,1.2935835123062134,-0.9372963309288025
1761131515057807400,6.489807373046875,-0.9264535307884216,1.4945582151412964,-0.8945357799530029
1761131515067806500,6.499806396484375,-0.919123113155365,1.422476053237915,-0.8218428492546082
1761131515077806600,6.509806640625,-0.909960150718689,1.0681742429733276,-0.7369325757026672
1761131515087806500,6.519806396484375,-0.8965210914611816,0.5177846550941467,-0.6410267353057861
1761131515097806600,6.529806640625,-0.8623126745223999,-0.07475463300943375,-0.5329035520553589
1761131515107806500,6.539806396484375,-0.7975609302520752,-0.4907538592815399,-0.41745004057884216
1761131515117806600,6.549806640625,-0.7199810743331909,-0.609872579574585,-0.2903900742530823
1761131515127806500,6.559806396484375,-0.6686683893203735,-0.4767039716243744,-0.14072808623313904
1761131515137806300,6.569806396484375,-0.6546184420585632,-0.15355625748634338,0.026648996397852898
1761131515147806500,6.579806396484375,-0.6692792177200317,0.2777146100997925,0.20746511220932007
1761131515157806300,6.589806396484375,-0.7212027907371521,0.7004333734512329,0.3876703679561615
1761131515167807200,6.59980712890625,-0.7920631766319275,1.005255103111267,0.557490885257721
1761131515177807400,6.609807373046875,-0.8543714284896851,1.1420888900756836,0.7040985822677612
1761131515187807500,6.619807373046875,-0.8928559422492981,1.1329259872436523,0.8091673851013184
1761131515197807400,6.629807373046875,-0.9007971882820129,0.9973138570785522,0.8641452193260193
1761131515207807500,6.639807373046875,-0.8781951665878296,0.7829001545906067,0.8714756369590759
1761131515217807400,6.649807373046875,-0.8207738399505615,0.5354997515678406,0.8433758020401001
1761131515227807200,6.65980712890625,-0.7346417903900146,0.31009048223495483,0.786565363407135
1761131515237807400,6.669807373046875,-0.6289620995521545,0.13355042040348053,0.7016550898551941
1761131515247807200,6.67980712890625,-0.4646393656730652,-0.07475463300943375,0.5391649603843689
1761131515257807400,6.689807373046875,-0.36140313744544983,-0.1834886521100998,0.4237114191055298
1761131515267806500,6.699806396484375,-0.2813797891139984,-0.26106852293014526,0.3180317282676697
1761131515277806300,6.709806396484375,-0.21174116432666779,-0.3465896546840668,0.22456933557987213
1761131515287806500,6.719806396484375,-0.13660474121570587,-0.47853657603263855,0.15676330029964447
1761131515297806300,6.729806396484375,-0.03275764733552933,-0.6501896977424622,0.11705705523490906
1761131515307806500,6.739806396484375,0.10285443812608719,-0.7943539023399353,0.12316570430994034
1761131515317806300,6.749806396484375,0.24457517266273499,-0.8132907152175903,0.18486309051513672
1761131515327806500,6.759806396484375,0.3496440052986145,-0.6416375637054443,0.282601535320282
1761131515337806300,6.769806396484375,0.3960697650909424,-0.45898887515068054,0.3833943009376526
1761131515347806500,6.779806396484375,0.4150065779685974,-0.6532440185546875,0.4426482319831848
1761131515357806300,6.789806396484375,0.4614323377609253,-1.1291080713272095,0.4835762083530426
1761131515367807200,6.79980712890625,0.5603924989700317,-1.5542702674865723,0.5593234896659851
1761131515377807400,6.809807373046875,0.7106653451919556,-1.7943402528762817,0.6607271432876587
1761131515387807200,6.81980712890625,0.8566621541976929,-1.8144989013671875,0.748080849647522
1761131515397807400,6.829807373046875,0.9452376365661621,-1.6367371082305908,0.7975609302520752
1761131515407807200,6.83980712890625,0.9635635614395142,-1.2543354034423828,0.8238281607627869
1761131515417807400,6.849807373046875,0.9293550848960876,-0.8230645656585693,0.8262715935707092
1761131515427807200,6.85980712890625,0.9091965556144714,-0.49441906809806824,0.8073347806930542
1761131515437807400,6.869807373046875,0.9641744494438171,-0.3502548635005951,0.7792350053787231
1761131515447807200,6.87980712890625,1.1083385944366455,-0.38873937726020813,0.7535786628723145
1761131515457807400,6.889807373046875,1.2861003875732422,-0.4925864636898041,0.7303657531738281
1761131515467806500,6.899806396484375,1.4339298009872437,-0.5652794241905212,0.7071529030799866
1761131515477806300,6.909806396484375,1.542052984237671,-0.4565454125404358,0.6705009937286377
1761131515487806500,6.919806396484375,1.552437663078308,-0.20914499461650848,0.6417902708053589
1761131515497806300,6.929806396484375,1.5286139249801636,0.1097266674041748,0.6094144582748413
1761131515507806500,6.939806396484375,1.4858533143997192,0.4994587004184723,0.5849798321723938
1761131515517806300,6.949806396484375,1.4320971965789795,0.9527207016944885,0.5752059817314148
1761131515527806500,6.959806396484375,1.361236810684204,1.393154501914978,0.5727625489234924
1761131515537806300,6.969806396484375,1.276937484741211,1.7492890357971191,0.5690973401069641
1761131515547806500,6.979806396484375,1.189583659172058,2.0260109901428223,0.5581017732620239
1761131515557806300,6.989806396484375,1.1156690120697021,2.23492693901062,0.5379431843757629
1761131515567807200,6.99980712890625,1.058247685432434,2.3809237480163574,0.50251305103302
1761131515577807400,7.009807373046875,1.0246500968933105,2.489046812057495,0.4487568736076355
1761131515587807200,7.01980712890625,1.020374059677124,2.558685541152954,0.373009592294693
1761131515597807400,7.029807373046875,1.0515282154083252,2.5825092792510986,0.27893635630607605
1761131515607807200,7.03980712890625,1.115058183670044,2.574568033218384,0.16959145665168762
1761131515617807400,7.049807373046875,1.2042444944381714,2.5519659519195557,0.04864014685153961
1761131515627807200,7.05980712890625,1.305037260055542,2.5647940635681152,-0.072311170399189
1761131515637807400,7.069807373046875,1.4162147045135498,2.6405413150787354,-0.18226692080497742
1761131515647807200,7.07980712890625,1.531057357788086,2.76515793800354,-0.28244882822036743
1761131515657807400,7.089807373046875,1.6465109586715698,2.8806114196777344,-0.3759112060070038
1761131515667806500,7.099806396484375,1.7644078731536865,2.943530559539795,-0.4650975167751312
1761131515677806600,7.109806640625,1.8884135484695435,2.924593687057495,-0.5475643277168274
1761131515687806500,7.119806396484375,2.0240256786346436,2.810361862182617,-0.6159812211990356
1761131515697806600,7.129806640625,2.1712441444396973,2.6216044425964355,-0.6593526601791382
1761131515707806500,7.139806396484375,2.402151107788086,2.237370252609253,-0.6746243238449097
1761131515717806300,7.149806396484375,2.5524239540100098,1.917887806892395,-0.658130943775177
1761131515727806500,7.159806396484375,2.689868688583374,1.5360970497131348,-0.6324746012687683
1761131515737806300,7.169806396484375,2.815706968307495,1.1078804731369019,-0.600098729133606
1761131515747806500,7.179806396484375,2.9281063079833984,0.6375142335891724,-0.5756641626358032
1761131515757806300,7.189806396484375,3.021568536758423,0.17447838187217712,-0.5457317233085632
1761131515767807200,7.19980712890625,3.097315788269043,-0.25190556049346924,-0.5182427763938904
1761131515777807400,7.209807373046875,3.1522936820983887,-0.6135377883911133,-0.496862530708313
1761131515787807200,7.21980712890625,3.2103259563446045,-0.8426122665405273,-0.46387580037117004
1761131515797807400,7.229807373046875,3.301344871520996,-0.8493317365646362,-0.3911828398704529
1761131515807807200,7.23980712890625,3.429015636444092,-0.6666830778121948,-0.28122708201408386
1761131515817807400,7.249807373046875,3.555464744567871,-0.34781140089035034,-0.152334526181221
1761131515827806500,7.259806396484375,3.642207622528076,0.030925052240490913,-0.02710714563727379
1761131515837806600,7.269806640625,3.6764161586761475,0.382783442735672,0.07612907886505127
1761131515847806500,7.279806396484375,3.652592420578003,0.6405685544013977,0.1659262776374817
1761131515857806600,7.289806640625,3.6043341159820557,0.7609090209007263,0.25389087200164795
1761131515867806500,7.299806396484375,3.5707364082336426,0.7932848930358887,0.34429892897605896
1761131515877806600,7.309806640625,3.568903923034668,0.796339213848114,0.4395939111709595
1761131515887806500,7.319806396484375,3.575012445449829,0.825049877166748,0.5458844304084778
1761131515897806600,7.329806640625,3.577455997467041,0.9337838888168335,0.6478989720344543
1761131515907806500,7.339806396484375,3.555464744567871,1.0877219438552856,0.7328092455863953
1761131515917806600,7.349806640625,3.4974327087402344,1.2117276191711426,0.7993935346603394
1761131515927806500,7.359806396484375,3.4064137935638428,1.280144453048706,0.8531496524810791
1761131515937806600,7.369806640625,3.314783811569214,1.2874748706817627,0.9050732254981995
1761131515947806500,7.379806396484375,3.1791718006134033,1.2477686405181885,0.9716575145721436
1761131515957806600,7.389806640625,3.0569987297058105,1.235551357269287,1.0058659315109253
1761131515967807500,7.399807373046875,2.8890109062194824,1.2215014696121216,1.0205267667770386
1761131515977807400,7.409807373046875,2.6862034797668457,1.1506410837173462,1.024802803993225
1761131515987807500,7.419807373046875,2.4766767024993896,0.9875400066375732,1.026024580001831
1761131515997807400,7.429807373046875,2.29647159576416,0.7822893261909485,1.0467939376831055
1761131516007807500,7.439807373046875,2.1669681072235107,0.5464953184127808,1.101161003112793
1761131516017807400,7.449807373046875,2.0802252292633057,0.321086049079895,1.1872929334640503
1761131516027806500,7.459806396484375,2.011197566986084,0.24533875286579132,1.3137420415878296
1761131516037806600,7.469806640625,1.922011137008667,0.36018142104148865,1.4572954177856445
1761131516047806500,7.479806396484375,1.7912859916687012,0.6045275330543518,1.5867987871170044
1761131516057806600,7.489806640625,1.6422348022460938,0.938670814037323,1.6955327987670898
1761131516067805700,7.4998056640625,1.4986815452575684,1.2929726839065552,1.77433443069458
1761131516077805800,7.509805908203125,1.3673454523086548,1.4963908195495605,1.8170950412750244
1761131516087805700,7.5198056640625,1.2439507246017456,1.5305992364883423,1.8378643989562988
1761131516097805800,7.529805908203125,1.1254428625106812,1.4927256107330322,1.842751383781433
1761131516107805700,7.5398056640625,1.0063241720199585,1.4059827327728271,1.8274797201156616
1761131516117805800,7.549805908203125,0.8951466679573059,1.289918303489685,1.7810540199279785
1761131516127806500,7.559806396484375,0.799851655960083,1.167134404182434,1.6991980075836182
1761131516137806300,7.569806396484375,0.7387651801109314,1.0877219438552856,1.5971835851669312
1761131516147806500,7.579806396484375,0.7143305540084839,1.0687850713729858,1.4847843647003174
1761131516157806300,7.589806396484375,0.7198283076286316,1.090165376663208,1.3620004653930664
1761131516167806500,7.599806396484375,0.7540367841720581,1.1274281740188599,1.2398273944854736
1761131516177806600,7.609806640625,0.8444448709487915,1.3039681911468506,1.1145999431610107
1761131516187806500,7.619806396484375,0.8982009887695312,1.4737887382507324,1.0657308101654053
1761131516197806600,7.629806640625,0.9269116520881653,1.6350572109222412,1.0321332216262817
1761131516207806500,7.639806396484375,0.9293550848960876,1.7926604747772217,1.003422498703003
1761131516217806600,7.649806640625,0.9110291600227356,1.9356029033660889,0.9698249101638794
1761131516227806500,7.659806396484375,0.9006444215774536,2.078545331954956,0.938670814037323
1761131516237806600,7.669806640625,0.9122508764266968,2.193387985229492,0.9233991503715515
1761131516247806500,7.679806396484375,0.933631181716919,2.2776873111724854,0.9270643591880798
1761131516257806600,7.689806640625,0.951957106590271,2.3118958473205566,0.9325621724128723
1761131516267805700,7.6998056640625,0.9647852778434753,2.2776873111724854,0.9172905087471008
1761131516277805600,7.7098056640625,0.9690613746643066,2.159790515899658,0.8757516741752625
1761131516287805700,7.7198056640625,0.981278657913208,2.0009653568267822,0.8177194595336914
1761131516297805600,7.7298056640625,1.0044915676116943,1.8482491970062256,0.7419722080230713
1761131516307805700,7.7398056640625,1.0277043581008911,1.7108044624328613,0.6503424048423767
1761131516317805600,7.7498056640625,1.0417543649673462,1.575803279876709,0.5422192811965942
1761131516327806500,7.759806396484375,1.0503064393997192,1.4572954177856445,0.4176027476787567
1761131516337806600,7.769806640625,1.0637454986572266,1.4017066955566406,0.29481884837150574
1761131516347806500,7.779806396484375,1.0912344455718994,1.4249194860458374,0.1811978965997696
1761131516357806600,7.789806640625,1.1254428625106812,1.4945582151412964,0.09017898142337799
1761131516367807200,7.79980712890625,1.1547644138336182,1.5782467126846313,0.01992947794497013
1761131516377807400,7.809807373046875,1.1816424131393433,1.6271159648895264,-0.039324451237916946
1761131516387807200,7.81980712890625,1.2146291732788086,1.64177668094635,-0.08513934165239334
1761131516397807400,7.829807373046875,1.2470049858093262,1.64177668094635,-0.1175151988863945
1761131516407807200,7.83980712890625,1.285489559173584,1.5709162950515747,-0.1376737505197525
1761131516417807400,7.849807373046875,1.294041633605957,1.478064775466919,-0.11812606453895569
1761131516427807500,7.859807373046875,1.2812135219573975,1.3986523151397705,-0.07170030474662781
1761131516437807400,7.869807373046875,1.2347877025604248,1.3131312131881714,-0.019165897741913795
1761131516447807500,7.879807373046875,1.1645382642745972,1.1982885599136353,0.019318614155054092
1761131516457807400,7.889807373046875,1.085736632347107,1.0779480934143066,0.03764457255601883
1761131516467806500,7.899806396484375,1.0026589632034302,0.977155327796936,0.03459024429321289
1761131516477806600,7.909806640625,0.9317985773086548,0.8781951665878296,0.009544769302010536
1761131516487806500,7.919806396484375,0.8762098550796509,0.7664068341255188,-0.030772335827350616
1761131516497806300,7.929806396484375,0.8420013785362244,0.6680575013160706,-0.07536549866199493
1761131516507806500,7.939806396484375,0.8151233196258545,0.6301838755607605,-0.11629346758127213
1761131516517806300,7.949806396484375,0.7882452607154846,0.6778313517570496,-0.14561499655246735
1761131516527806500,7.959806396484375,0.7509824633598328,0.7792350053787231,-0.16516269743442535
1761131516537806300,7.969806396484375,0.7094436287879944,0.9026297330856323,-0.17493653297424316
1761131516547806500,7.979806396484375,0.65874183177948,1.0748937129974365,-0.1731039434671402
1761131516557806300,7.989806396484375,0.5750532746315002,1.2923617362976074,-0.1834886521100998
1761131516567807200,7.99980712890625,0.44371724128723145,1.443245530128479,-0.23480132222175598
1761131516577807400,8.009807373046876,0.3099377453327179,1.4566845893859863,-0.32765284180641174
1761131516587807200,8.01980712890625,0.22624921798706055,1.2844204902648926,-0.43821945786476135
1761131516597807400,8.029807373046875,0.22136229276657104,0.9490554928779602,-0.5176319479942322
1761131516607807200,8.03980712890625,0.273285835981369,0.5745950937271118,-0.5524512529373169
1761131516617807400,8.049807373046875,0.3307071626186371,0.2606103718280792,-0.5371796488761902
1761131516627806500,8.059806396484374,0.36247217655181885,0.12805262207984924,-0.487088680267334
1761131516637806300,8.069806396484376,0.3245985209941864,0.22884538769721985,-0.3991240859031677
1761131516647806500,8.079806396484376,0.2653445899486542,0.3571271002292633,-0.36796995997428894
1761131516657806300,8.089806396484375,0.2079232633113861,0.4334852397441864,-0.3753003478050232
1761131516667805700,8.0998056640625,0.1731039434671402,0.4285983145236969,-0.42844560742378235
1761131516677805600,8.1098056640625,0.15599970519542694,0.36018142104148865,-0.5261840224266052
1761131516687805700,8.1198056640625,0.15477798879146576,0.29359710216522217,-0.6508005857467651
1761131516697805600,8.1298056640625,0.15905404090881348,0.2862667143344879,-0.7729735970497131
1761131516707805700,8.1398056640625,0.18165604770183563,0.3992767930030823,-0.8688794374465942
1761131516717805600,8.1498056640625,0.1987602859735489,0.595364511013031,-0.9391289353370667
1761131516727805400,8.159805419921875,0.2140319049358368,0.8305476307868958,-0.980667769908905
1761131516737805600,8.1698056640625,0.223194882273674,1.0687850713729858,-0.9855546951293945
1761131516747805400,8.179805419921875,0.24274258315563202,1.2667053937911987,-0.962341845035553
1761131516757805600,8.1898056640625,0.2683989107608795,1.3503940105438232,-0.9220247268676758
1761131516767806500,8.199806396484375,0.2952769994735718,1.2990813255310059,-0.8902597427368164
1761131516777806300,8.209806396484375,0.3398701548576355,1.1402562856674194,-0.8768206834793091
1761131516787806500,8.219806396484374,0.4150065779685974,0.9007971882820129,-0.8603273630142212
1761131516797806300,8.229806396484374,0.5212971568107605,0.6430120468139648,-0.8242862820625305
1761131516807806500,8.239806396484376,0.6440810561180115,0.4493677318096161,-0.7583128213882446
1761131516817806300,8.249806396484376,0.7570911049842834,0.3638466000556946,-0.648967981338501
1761131516827805700,8.2598056640625,0.8407796621322632,0.3583488166332245,-0.49930599331855774
1761131516837805600,8.2698056640625,0.8859837055206299,0.4469242990016937,-0.32704198360443115
1761131516847805700,8.2798056640625,0.8792641758918762,0.6100252866744995,-0.1578323096036911
1761131516857805600,8.2898056640625,0.8120689988136292,0.7364743947982788,-0.025885414332151413
1761131516867804700,8.2998046875,0.7021132707595825,0.7535786628723145,0.051083605736494064
1761131516877804800,8.3098046875,0.5628359913825989,0.673555314540863,0.1146135926246643
1761131516887804700,8.3198046875,0.5023602843284607,0.6399577260017395,0.13171781599521637
1761131516897804500,8.329804443359375,0.4473824203014374,0.6228534579277039,0.11155926436185837
1761131516907804700,8.3398046875,0.3899610936641693,0.6197991371154785,0.05169447138905525
1761131516917804800,8.3498046875,0.334983229637146,0.6240752339363098,-0.052152618765830994
1761131516927805400,8.359805419921875,0.2940552532672882,0.6069709658622742,-0.1938733607530594
1761131516937805600,8.3698056640625,0.2897791862487793,0.5519931316375732,-0.3563635051250458
1761131516947805400,8.379805419921874,0.3337614834308624,0.49090659618377686,-0.49991685152053833
1761131516957805600,8.3898056640625,0.406454473733902,0.4591415822505951,-0.6080399751663208
1761131516967806500,8.399806396484376,0.46815183758735657,0.47258061170578003,-0.677678644657135
1761131516977806300,8.409806396484376,0.49625164270401,0.5043455958366394,-0.7094436287879944
1761131516987806500,8.419806396484375,0.4919756054878235,0.5361106395721436,-0.7057784199714661
1761131516997806300,8.429806396484375,0.47364965081214905,0.5648213028907776,-0.6648504734039307
1761131517007806500,8.439806396484375,0.4565454125404358,0.586812436580658,-0.5872705578804016
1761131517017806300,8.449806396484375,0.4504367709159851,0.6130796074867249,-0.4803691506385803
1761131517027805700,8.4598056640625,0.45288023352622986,0.6307947039604187,-0.3508657217025757
1761131517037805600,8.4698056640625,0.457767128944397,0.6717227101325989,-0.21158844232559204
1761131517047805700,8.4798056640625,0.4357759952545166,0.7511351704597473,-0.0924697294831276
1761131517057805600,8.4898056640625,0.37285688519477844,0.8604800701141357,-0.017333300784230232
1761131517067804700,8.4998046875,0.2751184403896332,1.003422498703003,0.013820826075971127
1761131517077804800,8.5098046875,0.16638441383838654,1.128039002418518,0.005268712528049946
1761131517087804700,8.5198046875,0.07170030474662781,1.1903473138809204,-0.03810271993279457
1761131517097804800,8.5298046875,0.012446379289031029,1.1903473138809204,-0.11079568415880203
1761131517107804700,8.5398046875,-0.014431691728532314,1.1237629652023315,-0.26717719435691833
1761131517117804800,8.5498046875,-0.012599095702171326,1.0461831092834473,-0.3862959146499634
1761131517127805700,8.5598056640625,-0.023594669997692108,0.9160687923431396,-0.5109124183654785
1761131517137805600,8.5698056640625,-0.0742964819073677,0.7829001545906067,-0.6404158473014832
1761131517147805700,8.5798056640625,-0.15309810638427734,0.6784422397613525,-0.7424303293228149
1761131517157805600,8.5898056640625,-0.20807597041130066,0.6228534579277039,-0.7986299395561218
1761131517167806500,8.599806396484375,-0.22029328346252441,0.6075818538665771,-0.7986299395561218
1761131517177806600,8.609806640625,-0.20990857481956482,0.614912211894989,-0.7601454257965088
1761131517187806500,8.619806396484375,-0.18975001573562622,0.6014732122421265,-0.7094436287879944
1761131517197806600,8.629806640625,-0.16714800894260406,0.5678756237030029,-0.6514114141464233
1761131517207806700,8.639806640625,-0.1549306958913803,0.5752059817314148,-0.5652794241905212
1761131517217806600,8.649806640625,-0.18180876970291138,0.605749249458313,-0.4608214795589447
1761131517227806500,8.659806396484376,-0.24900394678115845,0.5837581157684326,-0.35758525133132935
1761131517237806600,8.669806640625,-0.3271946907043457,0.5275585055351257,-0.2897791862487793
1761131517247806500,8.679806396484375,-0.3870594799518585,0.4493677318096161,-0.2952769994735718
1761131517257806600,8.689806640625,-0.3882812261581421,0.30886873602867126,-0.3862959146499634
1761131517267805700,8.6998056640625,-0.3326924741268158,0.0694095641374588,-0.5384013652801514
1761131517277805800,8.709805908203125,-0.2459496259689331,-0.23663392663002014,-0.7124979496002197
1761131517287805700,8.7198056640625,-0.16898059844970703,-0.5603924989700317,-0.8792641758918762
1761131517297805800,8.729805908203126,-0.13171781599521637,-0.8114581108093262,-0.9983828663825989
1761131517307805700,8.7398056640625,-0.13843733072280884,-0.7931321859359741,-1.0533607006072998
1761131517317805800,8.749805908203125,-0.18364135921001434,-0.6526331305503845,-1.0710757970809937
1761131517327806500,8.759806396484375,-0.2361757755279541,-0.4663192629814148,-1.0600802898406982
1761131517337806300,8.769806396484375,-0.30214923620224,-0.06253732740879059,-0.9800569415092468
1761131517347806500,8.779806396484375,-0.34002286195755005,0.03214678168296814,-0.9000335931777954
1761131517357806300,8.789806396484375,-0.3424663245677948,-0.10346530377864838,-0.8029059767723083
1761131517367807200,8.79980712890625,-0.2813797891139984,-0.28611400723457336,-0.6501896977424622
1761131517377807400,8.809807373046874,-0.1915826052427292,-0.3789655268192291,-0.4467715620994568
1761131517387807200,8.81980712890625,-0.13660474121570587,-0.3588069677352905,-0.23174700140953064
1761131517397807400,8.829807373046876,-0.1408807933330536,-0.23480132222175598,-0.039324451237916946
1761131517407807200,8.83980712890625,-0.20318904519081116,-0.04421137273311615,0.11705705523490906
1761131517417807400,8.849807373046875,-0.2813797891139984,0.1249983012676239,0.2355649173259735
1761131517427807200,8.85980712890625,-0.34002286195755005,0.23861923813819885,0.3161991238594055
1761131517437807400,8.869807373046875,-0.3687335252761841,0.3155882656574249,0.3620140254497528
1761131517447807200,8.87980712890625,-0.38461601734161377,0.38033998012542725,0.36629006266593933
1761131517457807400,8.889807373046875,-0.4035528600215912,0.44997861981391907,0.330859899520874
1761131517467806500,8.899806396484376,-0.4334852397441864,0.4896848499774933,0.2654972970485687
1761131517477806300,8.909806396484376,-0.4750240743160248,0.41577014327049255,0.1659262776374817
1761131517487806500,8.919806396484375,-0.5128977298736572,0.18180876970291138,0.03520110994577408
1761131517497806300,8.929806396484375,-0.5324454307556152,-0.09796751290559769,-0.10346530377864838
1761131517507806500,8.939806396484375,-0.531223714351654,-0.2855031490325928,-0.24762949347496033
1761131517517806300,8.949806396484375,-0.5043455958366394,-0.415617436170578,-0.40278926491737366
1761131517527806500,8.959806396484375,-0.4469242990016937,-0.467540979385376,-0.5573381781578064
1761131517537806300,8.969806396484374,-0.37545305490493774,-0.4602105915546417,-0.6898959279060364
1761131517547806500,8.979806396484374,-0.29909488558769226,-0.47853657603263855,-0.790688693523407
1761131517557806300,8.989806396484376,-0.2154063582420349,-0.65874183177948,-0.8444448709487915
1761131517567807200,8.99980712890625,-0.0541379339993,-0.8529969453811646,-0.7479281425476074
1761131517577807000,9.00980712890625,0.04115704447031021,-0.7155522704124451,-0.534736156463623
1761131517587807200,9.01980712890625,0.07658722996711731,-0.49991685152053833,-0.26167941093444824
1761131517597807000,9.02980712890625,0.03504839166998863,-0.29649871587753296,0.019318614155054092
1761131517607807200,9.03980712890625,-0.06085744872689247,-0.15905404090881348,0.2777146100997925
1761131517617807000,9.04980712890625,-0.14698944985866547,-0.08391761034727097,0.5037347674369812
1761131517627807200,9.05980712890625,-0.17875444889068604,-0.0417679101228714,0.7016550898551941
1761131517637807400,9.069807373046874,-0.15248723328113556,-0.04237877577543259,0.8653669953346252
1761131517647807200,9.07980712890625,-0.08834638446569443,-0.08025242388248444,0.9789879322052002
1761131517657807400,9.089807373046876,-0.014431691728532314,-0.14439326524734497,1.0370200872421265
1761131517667806500,9.099806396484375,0.05337435007095337,-0.1932624876499176,1.0419070720672607
1761131517677806300,9.109806396484375,0.10163270682096481,-0.21586450934410095,1.0125855207443237
1761131517687806500,9.119806396484375,0.11873693019151688,-0.21158844232559204,0.9637162685394287
1761131517697806300,9.129806396484375,0.10957395285367966,-0.14866933226585388,0.9258426427841187
1761131517707806500,9.139806396484374,0.06803511828184128,-0.03627012297511101,0.9056841135025024
1761131517717806300,9.149806396484376,-0.008323038928210735,0.06330090761184692,0.8873581290245056
1761131517727806500,9.159806396484376,-0.11400272697210312,0.1298852264881134,0.8641452193260193
1761131517737806300,9.169806396484375,-0.22762365639209747,0.12805262207984924,0.8378780484199524
1761131517747806500,9.179806396484375,-0.34063372015953064,0.041920628398656845,0.8000044226646423
1761131517757806300,9.189806396484375,-0.4426482319831848,-0.07047858089208603,0.7621307373046875
1761131517767807200,9.19980712890625,-0.5361106395721436,-0.17737999558448792,0.7376961708068848
1761131517777807400,9.209807373046875,-0.6204100251197815,-0.27572929859161377,0.7358635663986206
1761131517787807200,9.21980712890625,-0.6845508813858032,-0.41256311535835266,0.7450265288352966
1761131517797807400,9.229807373046874,-0.7450265288352966,-0.7467064261436462,0.7297548651695251
1761131517807807200,9.23980712890625,-0.7602981328964233,-0.9647852778434753,0.6546184420585632
1761131517817807400,9.249807373046876,-0.7419722080230713,-1.1315515041351318,0.5177846550941467
1761131517827807200,9.25980712890625,-0.6772204637527466,-1.2317334413528442,0.3363576829433441
1761131517837807400,9.269807373046875,-0.5843689441680908,-1.256168007850647,0.13416127860546112
1761131517847807200,9.27980712890625,-0.4994587004184723,-1.1816424131393433,-0.06436992436647415
1761131517857807400,9.289807373046875,-0.45608726143836975,-1.0099893808364868,-0.24579690396785736
1761131517867806500,9.299806396484374,-0.4780784249305725,-0.858494758605957,-0.4168391823768616
1761131517877806300,9.309806396484374,-0.5617669224739075,-0.838947057723999,-0.5817728042602539
1761131517887806500,9.319806396484376,-0.6619488596916199,-0.971504807472229,-0.7405977249145508
1761131517897806300,9.329806396484376,-0.7236462235450745,-1.1932488679885864,-0.8719337582588196
1761131517907806500,9.339806396484375,-0.7328092455863953,-1.3752866983413696,-0.9544005990028381
1761131517917806300,9.349806396484375,-0.7273114323616028,-1.4101060628890991,-0.9666178822517395
1761131517927806500,9.359806396484375,-0.7254788279533386,-1.2054661512374878,-0.8963683843612671
1761131517937806300,9.369806396484375,-0.728533148765564,-0.8242862820625305,-0.7430412173271179
1761131517947806500,9.379806396484375,-0.7431939244270325,-0.4266130030155182,-0.5432882905006409
1761131517957806300,9.389806396484374,-0.7700719833374023,-0.14500413835048676,-0.3307071626186371
1761131517967807200,9.39980712890625,-0.7969500422477722,-0.005115996580570936,-0.10835222154855728
1761131517977807000,9.40980712890625,-0.8219955563545227,0.03214678168296814,0.10300715267658234
1761131517987807200,9.41980712890625,-0.8531496524810791,-0.03443752974271774,0.26366472244262695
1761131517997807000,9.42980712890625,-0.8794168829917908,-0.18471038341522217,0.3589596748352051
1761131518007807200,9.43980712890625,-0.8922450542449951,-0.3551417887210846,0.38583776354789734
1761131518017807000,9.44980712890625,-0.8916341662406921,-0.47975829243659973,0.3424663245677948
1761131518027807200,9.45980712890625,-0.8946884870529175,-0.5304601192474365,0.1506546437740326
1761131518037807400,9.469807373046875,-0.9142361879348755,-0.5084689855575562,-0.04909829422831535
1761131518047807200,9.47980712890625,-0.947833776473999,-0.4510476291179657,-0.273285835981369
1761131518057807400,9.489807373046874,-0.9844856858253479,-0.36308303475379944,-0.47975829243659973
1761131518067806500,9.499806396484376,-1.0278571844100952,-0.2690097689628601,-0.6361398100852966
1761131518077806300,9.509806396484375,-1.0773372650146484,-0.1877647042274475,-0.7387651801109314
1761131518087806500,9.519806396484375,-1.1365911960601807,-0.1175151988863945,-0.7900778651237488
1761131518097806300,9.529806396484375,-1.1995102167129517,-0.05337435007095337,-0.8126798272132874
1761131518107806500,9.539806396484375,-1.2563207149505615,-0.042989641427993774,-0.8273406028747559
1761131518117806300,9.549806396484374,-1.2948052883148193,-0.10590875893831253,-0.8340601325035095
1761131518127806500,9.559806396484374,-1.3100768327713013,-0.23235787451267242,-0.82917320728302
1761131518137806300,9.569806396484376,-1.2868640422821045,-0.3759112060070038,-0.8126798272132874
1761131518147806500,9.579806396484376,-1.2269991636276245,-0.4455498456954956,-0.7656432390213013
1761131518157806300,9.589806396484375,-1.1451432704925537,-0.43455424904823303,-0.7008914947509766
1761131518167807200,9.59980712890625,-1.0590112209320068,-0.4162282943725586,-0.619646430015564
1761131518177807400,9.609807373046875,-0.9808205366134644,-0.4302782118320465,-0.5219079852104187
1761131518197807400,9.629807373046875,-0.8855255246162415,-0.6727917194366455,-0.29588785767555237
1761131518207807200,9.63980712890625,-0.8562039732933044,-0.7412086129188538,-0.17066048085689545
1761131518217807400,9.649807373046874,-0.8500953316688538,-0.8248971700668335,-0.06498079001903534
1761131518227807700,9.659807861328124,-0.8629235029220581,-0.8951466679573059,0.024205535650253296
1761131518237807600,9.6698076171875,-0.8861364126205444,-0.9281333684921265,0.09934195876121521
1761131518247807700,9.679807861328126,-0.9105709791183472,-0.9470701813697815,0.16653713583946228
1761131518257807600,9.6898076171875,-0.9368382096290588,-0.9342420101165771,0.23923009634017944
1761131518267807000,9.699806884765625,-1.0254136323928833,-0.5744423866271973,0.3577379584312439
1761131518277806800,9.709806884765625,-1.1274281740188599,-0.22502748668193817,0.4194353520870209
1761131518287807000,9.719806884765624,-1.2398273944854736,0.0797942727804184,0.453643798828125
1761131518297806800,9.729806884765624,-1.3241267204284668,0.29848402738571167,0.44509169459342957
1761131518307807000,9.739806884765626,-1.3577243089675903,0.4231005311012268,0.39622247219085693
1761131518317806800,9.749806884765626,-1.33878755569458,0.4420373737812042,0.3009274899959564
1761131518327806700,9.759806640625,-1.2734249830245972,0.3785073757171631,0.17081318795681
1761131518337806800,9.769806884765625,-1.1775190830230713,0.282601535320282,0.01748601719737053
1761131518347806700,9.779806640625,-1.0553460121154785,0.1757001131772995,-0.13095423579216003
1761131518357806800,9.789806884765625,-0.9270643591880798,0.13110695779323578,-0.2537381649017334
1761131518367807700,9.799807861328125,-0.8213846683502197,0.22273674607276917,-0.3453679382801056
1761131518377807600,9.8098076171875,-0.7444156408309937,0.4389830231666565,-0.4107305109500885
1761131518387807700,9.819807861328124,-0.6808856725692749,0.644844651222229,-0.46448665857315063
1761131518397807600,9.8298076171875,-0.605749249458313,0.6888269186019897,-0.5170210599899292
1761131518407807700,9.839807861328126,-0.5086216926574707,0.5477170348167419,-0.5591707825660706
1761131518417807600,9.8498076171875,-0.4243222773075104,0.20807597041130066,-0.6074291467666626
1761131518427807700,9.859807861328125,-0.3681226670742035,-0.24640776216983795,-0.6734025478363037
1761131518437807600,9.8698076171875,-0.32475122809410095,-0.5939900875091553,-0.7265478372573853
1761131518447807700,9.879807861328125,-0.27527114748954773,-0.6984480619430542,-0.7369325757026672
1761131518457807600,9.8898076171875,-0.23251058161258698,-0.5726097822189331,-0.6947828531265259
1761131518467806700,9.899806640625,-0.17936530709266663,-0.2793944776058197,-0.5787184834480286
1761131518477806800,9.909806884765626,-0.12194397300481796,0.05597052723169327,-0.40340012311935425
1761131518487806700,9.919806640625,-0.08223773539066315,0.3516293168067932,-0.20975585281848907
1761131518497806800,9.929806884765625,-0.053527068346738815,0.4878522455692291,0.029703322798013687
1761131518507806700,9.939806640625,-0.04314235970377922,0.3882812261581421,0.14698944985866547
1761131518517806800,9.949806884765625,-0.04253149405121803,0.2111303061246872,0.21907155215740204
1761131518527806500,9.959806396484375,-0.06207918003201485,-0.008170322515070438,0.22762365639209747
1761131518537806300,9.969806396484374,-0.09323330968618393,-0.24640776216983795,0.16165021061897278
1761131518547806500,9.979806396484374,-0.11094839870929718,-0.4663192629814148,0.035811975598335266
1761131518557806300,9.989806396484376,-0.11094839870929718,-0.6721808314323425,-0.12179125845432281
1761131518567807200,9.99980712890625,-0.09017898142337799,-0.8407796621322632,-0.2726749777793884
1761131518577807400,10.009807373046876,-0.05719225853681564,-0.9098074436187744,-0.3698025345802307
1761131518587807200,10.01980712890625,-0.030314188450574875,-0.8688794374465942,-0.38324159383773804
1761131518597807400,10.029807373046875,-0.0290924571454525,-0.7729735970497131,-0.3191007375717163
1761131518607807200,10.03980712890625,-0.053527068346738815,-0.629420280456543,-0.19631682336330414
1761131518617807400,10.049807373046875,-0.09078984707593918,-0.4510476291179657,-0.03260493278503418
1761131518627807200,10.05980712890625,-0.1353830099105835,-0.2879466116428375,0.1500437706708908
1761131518637807400,10.069807373046874,-0.1702023297548294,-0.15966489911079407,0.33024901151657104
1761131518647807200,10.07980712890625,-0.1860848218202591,-0.09613491594791412,0.501902163028717
1761131518657807000,10.08980712890625,-0.18425223231315613,-0.11323914676904678,0.6369034051895142
1761131518667806500,10.099806396484375,-0.16653713583946228,-0.14011721312999725,0.7505242824554443
1761131518677806300,10.109806396484375,-0.14882203936576843,-0.12423472106456757,0.8403214812278748
1761131518687806500,10.119806396484375,-0.14882203936576843,-0.082085020840168,0.8934667706489563
1761131518697806300,10.129806396484375,-0.17325665056705475,-0.039935316890478134,0.9105709791183472
1761131518707806500,10.139806396484374,-0.21784982085227966,-0.03260493278503418,0.8989645838737488
1761131518717806300,10.149806396484376,-0.2618321180343628,-0.0466548316180706,0.8641452193260193
1761131518727806200,10.15980615234375,-0.3161991238594055,-0.07903069257736206,0.7920631766319275
1761131518737806300,10.169806396484375,-0.3516293168067932,-0.09796751290559769,0.7328092455863953
1761131518747806200,10.17980615234375,-0.38583776354789734,-0.09796751290559769,0.6723335385322571
1761131518757806300,10.189806396484375,-0.42554399371147156,-0.0869719386100769,0.6173557043075562
1761131518767807200,10.19980712890625,-0.4683045744895935,-0.1175151988863945,0.5635995268821716
1761131518777807000,10.20980712890625,-0.5220606923103333,-0.2030363380908966,0.5080108046531677
1761131518787807200,10.21980712890625,-0.5794820189476013,-0.3514765799045563,0.444480836391449
1761131518797807000,10.22980712890625,-0.6228534579277039,-0.515188455581665,0.3736204504966736
1761131518807807200,10.23980712890625,-0.6454554796218872,-0.6245333552360535,0.31925344467163086
1761131518817807000,10.24980712890625,-0.6582836508750916,-0.6550766229629517,0.28932106494903564
1761131518827807000,10.259806884765625,-0.6857725977897644,-0.609872579574585,0.26855164766311646
1761131518837807000,10.26980712890625,-0.7425830364227295,-0.5322927236557007,0.2361757755279541
1761131518847807000,10.279806884765625,-0.8109999895095825,-0.43944117426872253,0.18303050100803375
1761131518857807000,10.28980712890625,-0.870864748954773,-0.3453679382801056,0.12438743561506271
1761131518867806200,10.29980615234375,-0.8959102630615234,-0.2751184403896332,0.08101600408554077
1761131518877806000,10.30980615234375,-0.8818603157997131,-0.24029912054538727,0.06635523587465286
1761131518887806200,10.31980615234375,-0.8397106528282166,-0.24579690396785736,0.07796167582273483
1761131518897806000,10.32980615234375,-0.7853436470031738,-0.2848922908306122,0.10667234659194946
1761131518907806200,10.33980615234375,-0.7376961708068848,-0.32826370000839233,0.1256091594696045
1761131518917806000,10.34980615234375,-0.7016550898551941,-0.38812851905822754,0.1146135926246643
1761131518927806200,10.35980615234375,-0.6772204637527466,-0.49930599331855774,0.07368562370538712
1761131518937806000,10.36980615234375,-0.6619488596916199,-0.6055965423583984,0.018096882849931717
1761131518947806200,10.37980615234375,-0.6613379716873169,-0.6062073707580566,-0.03199406713247299
1761131518957806000,10.38980615234375,-0.7236462235450745,-0.5041928887367249,-0.12545645236968994
1761131518967807000,10.399806884765624,-0.8085564970970154,-0.5188536643981934,-0.21036672592163086
1761131518977807000,10.40980712890625,-0.9154579043388367,-0.5750532746315002,-0.30199649930000305
1761131518987807000,10.419806884765626,-1.0303006172180176,-0.6361398100852966,-0.40340012311935425
1761131518997807000,10.42980712890625,-1.1158217191696167,-0.6324746012687683,-0.47792568802833557
1761131519007807000,10.439806884765625,-1.1341476440429688,-0.5103015303611755,-0.4925864636898041
1761131519017807000,10.44980712890625,-1.091387152671814,-0.27206411957740784,-0.43455424904823303
1761131519027807000,10.459806884765625,-1.003422498703003,0.038866300135850906,-0.2983313202857971
1761131519037807000,10.46980712890625,-0.8916341662406921,0.36079227924346924,-0.08636107295751572
1761131519047807000,10.479806884765624,-0.7908414006233215,0.5507713556289673,0.16959145665168762
1761131519057807000,10.48980712890625,-0.7364743947982788,0.5263367891311646,0.4029420018196106
1761131519067806200,10.49980615234375,-0.738917887210846,0.3223077654838562,0.5703190565109253
1761131519077806000,10.50980615234375,-0.7755697965621948,0.010155634954571724,0.6491206884384155
1761131519087806200,10.51980615234375,-0.825049877166748,-0.34720054268836975,0.6289620995521545
1761131519097806000,10.52980615234375,-0.8684213161468506,-0.6636287569999695,0.531223714351654
1761131519107806200,10.53980615234375,-0.8843038082122803,-0.8163450360298157,0.3785073757171631
1761131519117806000,10.54980615234375,-0.8568148612976074,-0.7570911049842834,0.2056325078010559
1761131519127806200,10.55980615234375,-0.7816784381866455,-0.5139667391777039,0.05047274008393288
1761131519137806300,10.569806396484376,-0.6949355602264404,-0.18043431639671326,-0.07536549866199493
1761131519147806200,10.57980615234375,-0.6216317415237427,0.12805262207984924,-0.16394096612930298
1761131519157806300,10.589806396484375,-0.5807037949562073,0.311312198638916,-0.20731239020824432
1761131519167807200,10.59980712890625,-0.5550474524497986,0.35590535402297974,-0.20731239020824432
1761131519177807400,10.609807373046875,-0.5324454307556152,0.30520355701446533,-0.16577355563640594
1761131519187807200,10.61980712890625,-0.5293911099433899,0.11705705523490906,-0.03565925732254982
1761131519197807400,10.629807373046875,-0.5623778104782104,-0.036880988627672195,0.07307475805282593
1761131519207807200,10.63980712890625,-0.6143013834953308,-0.15905404090881348,0.18180876970291138
1761131519217807400,10.649807373046874,-0.6656140685081482,-0.24701863527297974,0.2807689309120178
1761131519227807000,10.659806884765626,-0.7022659778594971,-0.2903900742530823,0.36506834626197815
1761131519237806800,10.669806884765626,-0.7297548651695251,-0.26106852293014526,0.4218788146972656
1761131519247807000,10.679806884765625,-0.7505242824554443,-0.20609065890312195,0.45120033621788025
1761131519257806800,10.689806884765625,-0.76762855052948,-0.18471038341522217,0.45120033621788025
1761131519267806200,10.69980615234375,-0.776180624961853,-0.19142989814281464,0.42126795649528503
1761131519277806000,10.70980615234375,-0.777402400970459,-0.17737999558448792,0.382783442735672
1761131519287806200,10.71980615234375,-0.7731263041496277,-0.1321759670972824,0.34002286195755005
1761131519297806000,10.72980615234375,-0.7786241173744202,-0.08025242388248444,0.2905427813529968
1761131519307806200,10.73980615234375,-0.7829001545906067,-0.045433104038238525,0.23495404422283173
1761131519317806000,10.74980615234375,-0.7664068341255188,-0.030772335827350616,0.190360888838768
1761131519327806200,10.75980615234375,-0.7193701863288879,-0.0020616701804101467,0.16714800894260406
1761131519337806000,10.76980615234375,-0.6607271432876587,0.03214678168296814,0.15248723328113556
1761131519347806200,10.77980615234375,-0.5971971154212952,0.07246389240026474,0.13782647252082825
1761131519357806000,10.78980615234375,-0.531223714351654,0.13293954730033875,0.12316570430994034
1761131519367807000,10.799806884765625,-0.453643798828125,0.18425223231315613,0.10117455571889877
1761131519377807000,10.80980712890625,-0.3577379584312439,0.19952386617660522,0.09078984707593918
1761131519387807000,10.819806884765624,-0.24289529025554657,0.180587038397789,0.10239628702402115
1761131519397807000,10.82980712890625,-0.12377656996250153,0.2013564556837082,0.13782647252082825
1761131519407807000,10.839806884765625,-0.03459024429321289,0.2673299014568329,0.17386752367019653
1761131519417807000,10.84980712890625,0.02344195358455181,0.301538348197937,0.18669569492340088
1761131519427807000,10.859806884765625,0.031383201479911804,0.24045182764530182,0.15248723328113556
1761131519437807000,10.86980712890625,0.03627012297511101,0.19830213487148285,0.08834638446569443
1761131519447807000,10.879806884765625,0.03810271993279457,0.19952386617660522,0.008933904580771923
1761131519457807000,10.88980712890625,0.03871358558535576,0.15126550197601318,-0.09308059513568878
1761131519467806200,10.89980615234375,0.04787656292319298,0.010155634954571724,-0.21525363624095917
1761131519477806000,10.90980615234375,0.07964155822992325,-0.20425806939601898,-0.3502548635005951
1761131519487806000,10.919805908203125,0.14989106357097626,-0.39729148149490356,-0.46326494216918945
1761131519497806000,10.92980615234375,0.2384665161371231,-0.4956407845020294,-0.524962306022644
1761131519507806000,10.939805908203125,0.3093268871307373,-0.5683337450027466,-0.535347044467926
1761131519517806000,10.94980615234375,0.3410918712615967,-0.6062073707580566,-0.48953214287757874
1761131519527806500,10.959806396484375,0.3441462218761444,-0.5286275148391724,-0.3759112060070038
1761131519537806300,10.969806396484374,0.34231361746788025,-0.2696206569671631,-0.18043431639671326
1761131519547806500,10.979806396484374,0.3410918712615967,0.12133310735225677,0.08040513843297958
1761131519557806300,10.989806396484376,0.315435528755188,0.4799109995365143,0.32963815331459045
1761131519567807200,10.99980712890625,0.2787836194038391,0.6527858972549438,0.531223714351654
1761131519577807000,11.00980712890625,0.24090997874736786,0.7053202986717224,0.6772204637527466
1761131519587807200,11.01980712890625,0.20059287548065186,0.6509532928466797,0.758465588092804
1761131519597807000,11.02980712890625,0.14683672785758972,0.4878522455692291,0.7645742297172546
1761131519607807200,11.03980712890625,0.09002626687288284,0.24778221547603607,0.6979898810386658
1761131519617807000,11.04980712890625,0.05826127156615257,-0.008781188167631626,0.5739842653274536
1761131519627807200,11.05980712890625,0.07353290170431137,-0.17493653297424316,0.4169918894767761
1761131519637807000,11.06980712890625,0.13461942970752716,-0.19937114417552948,0.2416735589504242
1761131519647807200,11.07980712890625,0.22075143456459045,-0.08758280426263809,0.07551821321249008
1761131519657807000,11.08980712890625,0.36308303475379944,0.22273674607276917,-0.0924697294831276
1761131519667806200,11.09980615234375,0.4046218693256378,0.3675118088722229,-0.152334526181221
1761131519677806300,11.109806396484375,0.3459787964820862,0.49762609601020813,-0.07903069257736206
1761131519687806200,11.11980615234375,0.15111279487609863,0.3107013404369354,0.04069889709353447
1761131519697806300,11.129806396484375,-0.018707748502492905,-0.20670153200626373,0.09384417533874512
1761131519707806200,11.13980615234375,-0.048029281198978424,-0.7558693885803223,0.026648996397852898
1761131519717806300,11.149806396484376,0.02038762718439102,-1.1572078466415405,-0.0668133869767189
1761131519727806200,11.15980615234375,0.07292203605175018,-1.331915259361267,-0.14622586965560913
1761131519737806300,11.169806396484375,0.06253732740879059,-1.2622766494750977,-0.16027577221393585
