time,seconds_elapsed,z,y,x
1761131770054014200,0.10401416015625,-0.011377365328371525,-0.012446379289031029,-0.008170322515070438
1761131770084011300,0.13401123046875,-0.011377365328371525,-0.012446379289031029,-0.008170322515070438
1761131770094011100,0.14401123046875,-0.011377365328371525,-0.012446379289031029,-0.008170322515070438
1761131770104011300,0.15401123046875,0.00022907447419129312,-0.013057244941592216,0.0022143865935504436
1761131770114011100,0.16401123046875,0.00022907447419129312,-0.0014508049935102463,0.005268712528049946
1761131770124011300,0.17401123046875,0.00022907447419129312,0.0016035212902352214,0.005268712528049946
1761131770134011100,0.18401123046875,0.005726861767470837,0.00038179077091626823,-0.000839939690195024
1761131770144011300,0.19401123046875,0.017333300784230232,0.0009926559869199991,-0.013057244941592216
1761131770154011100,0.20401123046875,0.0264962799847126,0.0009926559869199991,-0.031383201479911804
1761131770164011300,0.21401123046875,0.033826664090156555,0.0009926559869199991,-0.04787656292319298
1761131770174011400,0.224011474609375,0.04115704447031021,-0.00022907447419129312,-0.057650405913591385
1761131770184011300,0.23401123046875,0.04726569727063179,0.0009926559869199991,-0.06314819306135178
1761131770194011400,0.244011474609375,0.05093089118599892,0.0009926559869199991,-0.06620252132415771
1761131770204011300,0.25401123046875,0.057039543986320496,-0.0038942659739404917,-0.06742425262928009
1761131770214011400,0.264011474609375,0.05948300287127495,-0.0069485921412706375,-0.06314819306135178
1761131770224011300,0.27401123046875,0.05093089118599892,0.0022143865935504436,-0.060704734176397324
1761131770234011400,0.284011474609375,0.04604396969079971,0.009544769302010536,-0.05948300287127495
1761131770244010000,0.294010009765625,0.045433104038238525,0.02054034359753132,-0.03565925732254982
1761131770254010000,0.304010009765625,0.03810271993279457,0.02054034359753132,-0.025274548679590225
1761131770264010000,0.314010009765625,0.03565925732254982,0.011988230049610138,-0.013057244941592216
1761131770274010000,0.324010009765625,0.030772335827350616,0.009544769302010536,0.0022143865935504436
1761131770284010000,0.334010009765625,0.022831087931990623,0.002825251780450344,0.004657847341150045
1761131770294010000,0.344010009765625,0.019776761531829834,0.00038179077091626823,-0.00022907447419129312
1761131770304010000,0.354010009765625,0.02038762718439102,-0.0014508049935102463,-0.010002918541431427
1761131770314010000,0.364010009765625,0.024663684889674187,-0.0020616701804101467,-0.02099849283695221
1761131770324010000,0.374010009765625,0.02955060638487339,0.004046982154250145,-0.028328875079751015
1761131770334010000,0.384010009765625,0.02955060638487339,0.009544769302010536,-0.03321579843759537
1761131770344010000,0.394010009765625,0.030161472037434578,0.008323038928210735,-0.030161472037434578
1761131770354010000,0.404010009765625,0.030772335827350616,0.007712173741310835,-0.022831087931990623
1761131770364010000,0.414010009765625,0.027718011289834976,0.009544769302010536,-0.01488984003663063
1761131770374010000,0.424010009765625,0.03443752974271774,0.010155634954571724,-0.005115996580570936
1761131770384010000,0.434010009765625,0.03810271993279457,0.0071013085544109344,0.004657847341150045
1761131770394010000,0.444010009765625,0.030772335827350616,0.0071013085544109344,0.011988230049610138
1761131770404010000,0.454010009765625,0.02099849283695221,0.013820826075971127,0.01687515154480934
1761131770414010000,0.464010009765625,0.011835514567792416,0.016264287754893303,0.012599095702171326
1761131770424010000,0.474010009765625,0.004505131393671036,0.018096882849931717,0.006490443367511034
1761131770434010000,0.484010009765625,0.002672535367310047,0.016264287754893303,0.008323038928210735
1761131770444009200,0.49400927734375,0.008170322515070438,0.013209961354732513,0.013209961354732513
1761131770454009000,0.504009033203125,0.010002918541431427,0.004046982154250145,0.018707748502492905
1761131770464009200,0.51400927734375,0.0069485921412706375,-0.00022907447419129312,0.02054034359753132
1761131770474009000,0.524009033203125,0.0069485921412706375,0.0016035212902352214,0.014431691728532314
1761131770484009200,0.53400927734375,0.00939205288887024,0.005268712528049946,0.009544769302010536
1761131770494009000,0.544009033203125,0.01488984003663063,0.007712173741310835,0.002825251780450344
1761131770504009000,0.554009033203125,0.01794416643679142,0.006490443367511034,-0.0038942659739404917
1761131770514009000,0.564009033203125,0.01794416643679142,0.005268712528049946,-0.012446379289031029
1761131770524009000,0.574009033203125,0.01061378326267004,0.002825251780450344,-0.019776761531829834
1761131770534009000,0.584009033203125,0.005115996580570936,0.0022143865935504436,-0.021609358489513397
1761131770544010000,0.594010009765625,0.006337726954370737,-0.0038942659739404917,-0.021609358489513397
1761131770554009900,0.604009765625,0.002672535367310047,-0.005726861767470837,-0.0264962799847126
1761131770564010000,0.614010009765625,-0.0034361169673502445,-0.00022907447419129312,-0.03443752974271774
1761131770574009900,0.624009765625,-0.002825251780450344,0.004046982154250145,-0.039935316890478134
1761131770584010000,0.634010009765625,-0.002825251780450344,0.0034361169673502445,-0.0417679101228714
1761131770594009900,0.644009765625,-0.008323038928210735,-0.000839939690195024,-0.04054617881774902
1761131770604010000,0.654010009765625,-0.013209961354732513,-0.0032834007870405912,-0.03627012297511101
1761131770614009900,0.664009765625,-0.013209961354732513,-0.005726861767470837,-0.030161472037434578
1761131770624010000,0.674010009765625,-0.006490443367511034,-0.0032834007870405912,-0.02038762718439102
1761131770634009900,0.684009765625,-0.004046982154250145,-0.000839939690195024,-0.017333300784230232
1761131770644009000,0.694009033203125,-0.004046982154250145,0.005879578180611134,-0.015500705689191818
1761131770654009000,0.704009033203125,-0.006490443367511034,0.011988230049610138,-0.01061378326267004
1761131770664009000,0.714009033203125,-0.013820826075971127,0.008933904580771923,-0.002672535367310047
1761131770674009000,0.724009033203125,-0.013820826075971127,0.0009926559869199991,0.011377365328371525
1761131770684009000,0.734009033203125,-0.01687515154480934,-0.0020616701804101467,0.021151209250092506
1761131770694009000,0.744009033203125,-0.016264287754893303,-0.008170322515070438,0.027259862050414085
1761131770704009200,0.75400927734375,-0.01687515154480934,-0.011224648915231228,0.024816401302814484
1761131770714009000,0.764009033203125,-0.012599095702171326,-0.010002918541431427,0.01687515154480934
1761131770724009200,0.77400927734375,-0.009544769302010536,-0.012446379289031029,0.005879578180611134
1761131770734009000,0.784009033203125,-0.0071013085544109344,-0.013057244941592216,-0.004505131393671036
1761131770744010000,0.794010009765625,-0.009544769302010536,-0.01488984003663063,-0.010002918541431427
1761131770754009900,0.804009765625,-0.013209961354732513,-0.015500705689191818,-0.01061378326267004
1761131770764010000,0.814010009765625,-0.014431691728532314,-0.014278975315392017,-0.00939205288887024
1761131770774009900,0.824009765625,-0.011377365328371525,-0.01061378326267004,-0.007559457328170538
1761131770784010000,0.834010009765625,-0.008323038928210735,-0.005726861767470837,-0.007559457328170538
1761131770794009900,0.844009765625,-0.005879578180611134,0.0016035212902352214,-0.0069485921412706375
1761131770804010000,0.854010009765625,-0.004657847341150045,0.012599095702171326,-0.0038942659739404917
1761131770814010000,0.864010009765625,-0.0016035212902352214,0.011377365328371525,-0.00022907447419129312
1761131770824010000,0.874010009765625,-0.0009926559869199991,0.018096882849931717,0.0009926559869199991
1761131770834010000,0.884010009765625,-0.0016035212902352214,0.03153591975569725,-0.0038942659739404917
1761131770843976000,0.893975830078125,-0.0016035212902352214,0.038866300135850906,-0.011835514567792416
1761131770853942500,0.903942626953125,0.0020616701804101467,0.03153591975569725,-0.01061378326267004
1761131770863909000,0.9139091796875,0.0038942659739404917,0.015653422102332115,-0.0038942659739404917
1761131770873875700,0.923875732421875,0.004505131393671036,-0.0069485921412706375,-0.002672535367310047
1761131770883842300,0.93384228515625,0.0014508049935102463,-0.02038762718439102,-0.007559457328170538
1761131770893809200,0.94380908203125,-0.011377365328371525,-0.018555032089352608,-0.02038762718439102
1761131770903775700,0.953775634765625,-0.01992947794497013,-0.004505131393671036,-0.03627012297511101
1761131770913742300,0.963742431640625,-0.02298380434513092,0.015653422102332115,-0.04787656292319298
1761131770923709200,0.973709228515625,-0.021151209250092506,0.03275764733552933,-0.04604396969079971
1761131770933675800,0.98367578125,-0.015653422102332115,0.03459024429321289,-0.030772335827350616
1761131770943643400,0.993643310546875,-0.015653422102332115,0.02298380434513092,-0.018555032089352608
1761131770953610000,1.00360986328125,-0.024816401302814484,0.011988230049610138,-0.022831087931990623
1761131770963576600,1.01357666015625,-0.02603813074529171,0.03520110994577408,-0.036880988627672195
1761131770973543400,1.02354345703125,-0.012599095702171326,0.027259862050414085,-0.05581781268119812
1761131770983510000,1.033510009765625,-0.008323038928210735,0.013209961354732513,-0.06620252132415771
1761131770993476600,1.0434765625,-0.0022143865935504436,0.010155634954571724,-0.06742425262928009
1761131771003443200,1.053443115234375,0.0014508049935102463,0.010766499675810337,-0.054596081376075745
1761131771013410600,1.06341064453125,-0.004046982154250145,0.005268712528049946,-0.03260493278503418
1761131771023377200,1.073377197265625,-0.010155634954571724,0.0034361169673502445,-0.006337726954370737
1761131771033343700,1.08334375,-0.008323038928210735,0.0016035212902352214,0.011377365328371525
1761131771053276400,1.1032763671875,-0.00038179077091626823,-0.00022907447419129312,0.02298380434513092
1761131771063243000,1.113242919921875,-0.00038179077091626823,0.004657847341150045,0.021151209250092506
1761131771073209600,1.123209716796875,0.005726861767470837,0.009544769302010536,0.01687515154480934
1761131771083176200,1.13317626953125,0.006337726954370737,0.010155634954571724,0.013820826075971127
1761131771093143000,1.14314306640625,0.0014508049935102463,0.005879578180611134,0.007712173741310835
1761131771103109600,1.153109619140625,-0.005268712528049946,0.0009926559869199991,-0.0020616701804101467
1761131771113076200,1.163076171875,-0.008933904580771923,-0.0032834007870405912,-0.00939205288887024
1761131771123042800,1.173042724609375,-0.0071013085544109344,-0.0038942659739404917,-0.014278975315392017
1761131771133009700,1.183009765625,-0.00038179077091626823,0.0009926559869199991,-0.01794416643679142
1761131771143010600,1.193010498046875,0.0014508049935102463,0.008323038928210735,-0.015500705689191818
1761131771153010400,1.203010498046875,-0.002825251780450344,0.010155634954571724,-0.011224648915231228
1761131771163010600,1.213010498046875,-0.005879578180611134,0.005879578180611134,-0.006337726954370737
1761131771173010400,1.223010498046875,-0.004657847341150045,-0.0014508049935102463,-0.004505131393671036
1761131771183010600,1.233010498046875,-0.004046982154250145,-0.004505131393671036,-0.0038942659739404917
1761131771193010400,1.243010498046875,-0.004046982154250145,-0.002672535367310047,-0.008170322515070438
1761131771203010600,1.253010498046875,-0.00038179077091626823,0.0022143865935504436,-0.01366810966283083
1761131771213010400,1.263010498046875,0.0020616701804101467,0.0016035212902352214,-0.027718011289834976
1761131771223010600,1.273010498046875,-0.0034361169673502445,-0.0014508049935102463,-0.036880988627672195
1761131771233010400,1.283010498046875,-0.012599095702171326,-0.0020616701804101467,-0.042989641427993774
1761131771243009500,1.293009521484375,-0.018096882849931717,-0.004505131393671036,-0.039324451237916946
1761131771253009700,1.303009765625,-0.02054034359753132,-0.007559457328170538,-0.030772335827350616
1761131771263009500,1.313009521484375,-0.01992947794497013,-0.0032834007870405912,-0.021609358489513397
1761131771273009700,1.323009765625,-0.01687515154480934,-0.0014508049935102463,-0.01061378326267004
1761131771283009500,1.333009521484375,-0.009544769302010536,-0.00022907447419129312,-0.005726861767470837
1761131771293009700,1.343009765625,-0.012599095702171326,0.0034361169673502445,-0.004505131393671036
1761131771303009500,1.353009521484375,-0.011988230049610138,0.008323038928210735,-0.0020616701804101467
1761131771313009200,1.363009033203125,-0.008323038928210735,0.010155634954571724,0.004657847341150045
1761131771323009000,1.373009033203125,-0.0071013085544109344,0.009544769302010536,0.011988230049610138
1761131771333009200,1.383009033203125,-0.010766499675810337,0.007712173741310835,0.022372938692569733
1761131771343009500,1.393009521484375,-0.010155634954571724,0.005879578180611134,0.027259862050414085
1761131771353009400,1.403009521484375,-0.007712173741310835,-0.0032834007870405912,0.01992947794497013
1761131771363009500,1.413009521484375,-0.008323038928210735,-0.015500705689191818,-0.00022907447419129312
1761131771373009400,1.423009521484375,-0.010155634954571724,-0.018555032089352608,-0.027718011289834976
1761131771383009500,1.433009521484375,-0.009544769302010536,-0.022220224142074585,-0.054596081376075745
1761131771393009400,1.443009521484375,-0.011377365328371525,-0.024052819237113,-0.07353290170431137
1761131771403009500,1.453009521484375,-0.016264287754893303,-0.02038762718439102,-0.07108944654464722
1761131771413009700,1.463009765625,-0.02054034359753132,-0.016722436994314194,-0.05337435007095337
1761131771423009500,1.473009521484375,-0.02298380434513092,-0.010002918541431427,-0.024663684889674187
1761131771433009700,1.483009765625,-0.02054034359753132,-0.00939205288887024,0.005268712528049946
1761131771443008800,1.4930087890625,-0.01748601719737053,-0.0069485921412706375,0.027259862050414085
1761131771453008600,1.503008544921875,-0.013209961354732513,-0.008781188167631626,0.03520110994577408
1761131771463008500,1.513008544921875,-0.010766499675810337,-0.005726861767470837,0.02848159149289131
1761131771473008600,1.523008544921875,-0.0071013085544109344,-0.00022907447419129312,0.021151209250092506
1761131771483008500,1.533008544921875,-0.006490443367511034,0.0022143865935504436,0.01748601719737053
1761131771493008600,1.543008544921875,-0.009544769302010536,0.0009926559869199991,0.018707748502492905
1761131771503008500,1.553008544921875,-0.015042556449770927,-0.005115996580570936,0.02298380434513092
1761131771513008600,1.563008544921875,-0.02298380434513092,-0.016722436994314194,0.014431691728532314
1761131771523008800,1.5730087890625,-0.03459024429321289,-0.02955060638487339,-0.006337726954370737
1761131771533008600,1.583008544921875,-0.04069889709353447,-0.028939740732312202,-0.030161472037434578
1761131771543009500,1.593009521484375,-0.04069889709353447,-0.024663684889674187,-0.04237877577543259
1761131771553009400,1.603009521484375,-0.039477165788412094,-0.02955060638487339,-0.03321579843759537
1761131771565404700,1.61540478515625,-0.04680754989385605,-0.060093868523836136,-0.00939205288887024
1761131771575371300,1.625371337890625,-0.05597052723169327,-0.0918588638305664,0.018096882849931717
1761131771585337900,1.635337890625,-0.04314235970377922,-0.05337435007095337,0.04680754989385605
1761131771595304700,1.6453046875,-0.025427265092730522,-0.006337726954370737,0.06146831437945366
1761131771605271300,1.655271240234375,-0.02054034359753132,0.002825251780450344,0.05841398984193802
1761131771615238000,1.66523779296875,-0.029703322798013687,-0.015500705689191818,0.05230533704161644
1761131771625204500,1.67520458984375,-0.0339793786406517,-0.03810271993279457,0.04314235970377922
1761131771635171300,1.68517138671875,-0.029703322798013687,-0.048487428575754166,0.03520110994577408
1761131771645137400,1.695137451171875,-0.021762074902653694,-0.04237877577543259,0.02603813074529171
1761131771655104300,1.705104248046875,-0.021762074902653694,-0.033826664090156555,0.025427265092730522
1761131771665071900,1.71507177734375,-0.024816401302814484,-0.033826664090156555,0.035811975598335266
1761131771675038500,1.72503857421875,-0.030925052240490913,-0.03627012297511101,0.0492510087788105
1761131771685005000,1.735005126953125,-0.033368512988090515,-0.03627012297511101,0.06391177326440811
1761131771694972000,1.744971923828125,-0.03214678168296814,-0.028328875079751015,0.07368562370538712
1761131771704938500,1.7549384765625,-0.025427265092730522,-0.017333300784230232,0.07857254147529602
1761131771714905000,1.764905029296875,-0.02298380434513092,-0.012446379289031029,0.07796167582273483
1761131771724871700,1.77487158203125,-0.01992947794497013,-0.017333300784230232,0.06513350456953049
1761131771734838500,1.784838623046875,-0.02298380434513092,-0.02038762718439102,0.04619668424129486
1761131771744806000,1.794805908203125,-0.02848159149289131,-0.017333300784230232,0.018707748502492905
1761131771754772700,1.804772705078125,-0.0290924571454525,-0.012446379289031029,-0.004505131393671036
1761131771764739300,1.8147392578125,-0.029703322798013687,-0.00939205288887024,-0.019165897741913795
1761131771774706000,1.824705810546875,-0.026648996397852898,-0.00939205288887024,-0.019165897741913795
1761131771784672800,1.8346728515625,-0.024205535650253296,-0.008170322515070438,-0.01061378326267004
1761131771794639400,1.844639404296875,-0.022372938692569733,-0.008170322515070438,-0.0038942659739404917
1761131771804606000,1.85460595703125,-0.01992947794497013,-0.000839939690195024,-0.0014508049935102463
1761131771814572800,1.86457275390625,-0.016264287754893303,0.008323038928210735,-0.000839939690195024
1761131771824539400,1.874539306640625,-0.013820826075971127,0.010766499675810337,-0.008170322515070438
1761131771834506000,1.884506103515625,-0.01687515154480934,0.011988230049610138,-0.016111571341753006
1761131771844471800,1.894471923828125,-0.019318614155054092,0.011988230049610138,-0.02038762718439102
1761131771854438400,1.9044384765625,-0.018096882849931717,0.011377365328371525,-0.022220224142074585
1761131771864438500,1.9144384765625,-0.012599095702171326,0.009544769302010536,-0.025885414332151413
1761131771874438400,1.9244384765625,-0.009544769302010536,0.008933904580771923,-0.033826664090156555
1761131771884438500,1.9344384765625,-0.013209961354732513,0.0071013085544109344,-0.04360050708055496
1761131771894438400,1.9444384765625,-0.01687515154480934,0.008323038928210735,-0.05276348441839218
1761131771904438500,1.9544384765625,-0.011377365328371525,0.013820826075971127,-0.04726569727063179
1761131771914438400,1.9644384765625,0.00022907447419129312,0.013209961354732513,-0.033826664090156555
1761131771924438500,1.9744384765625,0.008170322515070438,0.010766499675810337,-0.019165897741913795
1761131771934438400,1.9844384765625,0.0069485921412706375,0.008933904580771923,-0.010002918541431427
1761131771944439300,1.994439208984375,0.007559457328170538,0.011377365328371525,-0.0069485921412706375
1761131771954439400,2.004439453125,0.007559457328170538,0.015653422102332115,-0.008781188167631626
1761131771964438300,2.014438232421875,-0.0016035212902352214,0.013820826075971127,-0.019776761531829834
1761131771974438100,2.024438232421875,-0.0009926559869199991,0.010155634954571724,-0.0264962799847126
1761131771984438300,2.034438232421875,0.005726861767470837,0.0071013085544109344,-0.030161472037434578
1761131771994438100,2.044438232421875,0.01366810966283083,0.008933904580771923,-0.03199406713247299
1761131772004438300,2.054438232421875,0.022831087931990623,0.011377365328371525,-0.036880988627672195
1761131772014438100,2.064438232421875,0.024663684889674187,0.015042556449770927,-0.03810271993279457
1761131772024438300,2.074438232421875,0.022220224142074585,0.013820826075971127,-0.03627012297511101
1761131772034438100,2.084438232421875,0.014278975315392017,0.005879578180611134,-0.04115704447031021
1761131772044437500,2.0944375,0.0069485921412706375,0.0034361169673502445,-0.04970915988087654
1761131772054437400,2.104437255859375,0.0032834007870405912,0.008933904580771923,-0.05642867833375931
1761131772064437200,2.114437255859375,0.007559457328170538,0.015653422102332115,-0.05276348441839218
1761131772074437400,2.124437255859375,0.013057244941592216,0.01992947794497013,-0.04054617881774902
1761131772084437200,2.134437255859375,0.016722436994314194,0.023594669997692108,-0.02710714563727379
1761131772094437400,2.144437255859375,0.019776761531829834,0.02054034359753132,-0.017333300784230232
1761131772104437200,2.154437255859375,0.016722436994314194,0.01687515154480934,-0.019165897741913795
1761131772114437400,2.164437255859375,0.01794416643679142,0.012599095702171326,-0.03321579843759537
1761131772124437200,2.174437255859375,0.019165897741913795,0.011377365328371525,-0.057039543986320496
1761131772134437400,2.184437255859375,0.018555032089352608,0.012599095702171326,-0.07658722996711731
1761131772144438300,2.194438232421875,0.021609358489513397,0.016264287754893303,-0.08330674469470978
1761131772154438100,2.204438232421875,0.02710714563727379,0.008323038928210735,-0.07414376735687256
1761131772164438300,2.214438232421875,0.02710714563727379,0.00038179077091626823,-0.05032002553343773
1761131772174438100,2.224438232421875,0.016111571341753006,-0.00022907447419129312,-0.024663684889674187
1761131772184438300,2.234438232421875,0.008781188167631626,0.007712173741310835,0.00038179077091626823
1761131772194438100,2.244438232421875,0.014278975315392017,0.01687515154480934,0.025427265092730522
1761131772204438300,2.254438232421875,0.021609358489513397,0.015653422102332115,0.033368512988090515
1761131772214438100,2.264438232421875,0.0264962799847126,0.005879578180611134,0.03275764733552933
1761131772224438300,2.274438232421875,0.028939740732312202,-0.005115996580570936,0.021762074902653694
1761131772234438100,2.284438232421875,0.02710714563727379,-0.01366810966283083,0.0071013085544109344
1761131772244437500,2.2944375,0.019776761531829834,-0.016722436994314194,-0.011835514567792416
1761131772254437400,2.304437255859375,0.012446379289031029,-0.011224648915231228,-0.028328875079751015
1761131772264437500,2.3144375,0.008170322515070438,-0.000839939690195024,-0.03504839166998863
1761131772274437400,2.324437255859375,0.0038942659739404917,0.005268712528049946,-0.030161472037434578
1761131772284437500,2.3344375,0.0038942659739404917,0.008323038928210735,-0.012446379289031029
1761131772294437400,2.344437255859375,0.011835514567792416,0.0034361169673502445,0.009544769302010536
1761131772304437500,2.3544375,0.014278975315392017,-0.0020616701804101467,0.030925052240490913
1761131772314437400,2.364437255859375,0.011224648915231228,-0.0069485921412706375,0.04253149405121803
1761131772324437500,2.3744375,0.010002918541431427,-0.008781188167631626,0.039477165788412094
1761131772334437400,2.384437255859375,0.012446379289031029,-0.005115996580570936,0.027259862050414085
1761131772344438300,2.394438232421875,0.01488984003663063,0.0009926559869199991,0.018096882849931717
1761131772354438100,2.404438232421875,0.019165897741913795,-0.00022907447419129312,0.013209961354732513
1761131772364438300,2.414438232421875,0.01794416643679142,-0.004505131393671036,0.013209961354732513
1761131772374438100,2.424438232421875,0.011224648915231228,-0.006337726954370737,0.015042556449770927
1761131772384438300,2.434438232421875,0.004505131393671036,-0.007559457328170538,0.018707748502492905
1761131772394438400,2.4444384765625,-0.0016035212902352214,-0.007559457328170538,0.018707748502492905
1761131772404438300,2.454438232421875,-0.0016035212902352214,-0.01061378326267004,0.012599095702171326
1761131772414438400,2.4644384765625,-0.002825251780450344,-0.012446379289031029,0.002825251780450344
1761131772424438300,2.474438232421875,0.0038942659739404917,-0.013057244941592216,-0.005726861767470837
1761131772434438400,2.4844384765625,0.007559457328170538,-0.01061378326267004,-0.008170322515070438
1761131772444437500,2.4944375,0.008170322515070438,-0.0069485921412706375,-0.007559457328170538
1761131772454437400,2.504437255859375,0.007559457328170538,-0.008781188167631626,-0.004505131393671036
1761131772464437500,2.5144375,0.008170322515070438,-0.014278975315392017,0.00038179077091626823
1761131772474437400,2.524437255859375,0.00939205288887024,-0.016722436994314194,0.0022143865935504436
1761131772484437500,2.5344375,0.011224648915231228,-0.016722436994314194,0.0022143865935504436
1761131772494437400,2.544437255859375,0.005726861767470837,-0.01488984003663063,0.0009926559869199991
1761131772504437500,2.5544375,-0.00038179077091626823,-0.01488984003663063,0.0016035212902352214
1761131772514437400,2.564437255859375,-0.005879578180611134,-0.01794416643679142,-0.0032834007870405912
1761131772524437500,2.5744375,-0.007712173741310835,-0.016111571341753006,-0.017333300784230232
1761131772534437400,2.584437255859375,-0.008323038928210735,-0.010002918541431427,-0.0264962799847126
1761131772544438300,2.594438232421875,-0.005879578180611134,-0.006337726954370737,-0.0264962799847126
1761131772554438100,2.604438232421875,-0.007712173741310835,-0.0032834007870405912,-0.016722436994314194
1761131772564438300,2.614438232421875,-0.009544769302010536,-0.00022907447419129312,0.0016035212902352214
1761131772574438100,2.624438232421875,-0.010155634954571724,-0.00022907447419129312,0.021151209250092506
1761131772584438300,2.634438232421875,-0.009544769302010536,-0.0038942659739404917,0.03153591975569725
1761131772594438100,2.644438232421875,-0.008323038928210735,-0.006337726954370737,0.03459024429321289
1761131772604438300,2.654438232421875,-0.005268712528049946,-0.011835514567792416,0.024816401302814484
1761131772614438100,2.664438232421875,0.0014508049935102463,-0.01366810966283083,0.0071013085544109344
1761131772624438300,2.674438232421875,-0.0016035212902352214,-0.018555032089352608,-0.01488984003663063
1761131772634438400,2.6844384765625,-0.007712173741310835,-0.021609358489513397,-0.03199406713247299
1761131772644437500,2.6944375,-0.010766499675810337,-0.024052819237113,-0.039935316890478134
1761131772654437400,2.704437255859375,-0.012599095702171326,-0.022831087931990623,-0.03321579843759537
1761131772664437500,2.7144375,-0.013209961354732513,-0.01794416643679142,-0.019776761531829834
1761131772674437400,2.724437255859375,-0.016264287754893303,-0.008170322515070438,-0.0038942659739404917
1761131772684437500,2.7344375,-0.01687515154480934,0.0016035212902352214,0.01687515154480934
1761131772694437400,2.744437255859375,-0.011988230049610138,0.002825251780450344,0.03825543448328972
1761131772704437500,2.7544375,-0.0071013085544109344,-0.0014508049935102463,0.05169447138905525
1761131772714437400,2.764437255859375,-0.005879578180611134,-0.006337726954370737,0.04864014685153961
1761131772724437500,2.7744375,-0.0022143865935504436,-0.008170322515070438,0.025427265092730522
1761131772734437400,2.784437255859375,0.0014508049935102463,-0.0038942659739404917,-0.005726861767470837
1761131772744438300,2.794438232421875,0.0014508049935102463,-0.0032834007870405912,-0.028328875079751015
1761131772754438100,2.804438232421875,-0.0016035212902352214,-0.0032834007870405912,-0.039935316890478134
1761131772764438300,2.814438232421875,-0.005268712528049946,-0.005726861767470837,-0.03504839166998863
1761131772774438400,2.8244384765625,-0.007712173741310835,-0.008781188167631626,-0.021609358489513397
1761131772784438300,2.834438232421875,-0.009544769302010536,-0.00939205288887024,-0.0032834007870405912
1761131772794438400,2.8444384765625,-0.013209961354732513,-0.0038942659739404917,0.010766499675810337
1761131772804438300,2.854438232421875,-0.010766499675810337,0.002825251780450344,0.018707748502492905
1761131772814438400,2.8644384765625,-0.004046982154250145,0.008933904580771923,0.01687515154480934
1761131772824438300,2.874438232421875,0.0014508049935102463,0.008933904580771923,0.010155634954571724
1761131772834438400,2.8844384765625,0.0069485921412706375,0.007712173741310835,0.0009926559869199991
1761131772844437500,2.8944375,0.00939205288887024,0.00038179077091626823,-0.00939205288887024
1761131772854437600,2.904437744140625,0.01061378326267004,-0.0038942659739404917,-0.018555032089352608
1761131772864437500,2.9144375,0.008170322515070438,-0.010002918541431427,-0.030161472037434578
1761131772874437600,2.924437744140625,-0.00038179077091626823,-0.00939205288887024,-0.04421137273311615
1761131772884437500,2.9344375,-0.011988230049610138,-0.0020616701804101467,-0.05581781268119812
1761131772894437600,2.944437744140625,-0.010155634954571724,-0.00022907447419129312,-0.04909829422831535
1761131772904437500,2.9544375,-0.005268712528049946,-0.0014508049935102463,-0.033826664090156555
1761131772914437600,2.964437744140625,-0.0016035212902352214,-0.00022907447419129312,-0.019776761531829834
1761131772924437500,2.9744375,0.005726861767470837,0.005879578180611134,-0.007559457328170538
1761131772934437600,2.984437744140625,0.007559457328170538,0.011377365328371525,0.002825251780450344
1761131772944438300,2.994438232421875,0.011835514567792416,0.013209961354732513,0.008933904580771923
1761131772954438400,3.0044384765625,0.013057244941592216,0.008323038928210735,0.007712173741310835
1761131772964438300,3.014438232421875,0.00939205288887024,0.005879578180611134,-0.000839939690195024
1761131772974438400,3.0244384765625,0.0069485921412706375,0.002825251780450344,-0.011835514567792416
1761131772984438300,3.034438232421875,0.004505131393671036,0.0022143865935504436,-0.02038762718439102
1761131772994438400,3.0444384765625,0.0020616701804101467,0.0034361169673502445,-0.0264962799847126
1761131773004438300,3.054438232421875,0.0014508049935102463,0.0016035212902352214,-0.0264962799847126
1761131773014438400,3.0644384765625,0.005115996580570936,0.0016035212902352214,-0.018555032089352608
1761131773024438300,3.074438232421875,0.00939205288887024,0.00038179077091626823,-0.006337726954370737
1761131773034438400,3.0844384765625,0.01061378326267004,-0.000839939690195024,0.004657847341150045
1761131773044437500,3.0944375,0.01061378326267004,-0.000839939690195024,0.012599095702171326
1761131773054437600,3.104437744140625,0.012446379289031029,-0.000839939690195024,0.014431691728532314
1761131773064437500,3.1144375,0.013057244941592216,-0.0032834007870405912,0.010155634954571724
1761131773074437600,3.124437744140625,0.016722436994314194,-0.005726861767470837,-0.0014508049935102463
1761131773084437500,3.1344375,0.01794416643679142,-0.005115996580570936,-0.015500705689191818
1761131773094437600,3.144437744140625,0.016722436994314194,-0.0038942659739404917,-0.019776761531829834
1761131773104437500,3.1544375,0.016111571341753006,-0.005115996580570936,-0.016722436994314194
1761131773114437600,3.164437744140625,0.012446379289031029,-0.006337726954370737,-0.002672535367310047
1761131773124437500,3.1744375,0.008781188167631626,-0.007559457328170538,0.0034361169673502445
1761131773134437600,3.184437744140625,0.0038942659739404917,-0.007559457328170538,0.0022143865935504436
1761131773144438300,3.194438232421875,0.000839939690195024,-0.005115996580570936,-0.002672535367310047
1761131773154438400,3.2044384765625,0.005726861767470837,-0.0038942659739404917,-0.008170322515070438
1761131773164438300,3.214438232421875,0.010002918541431427,0.0009926559869199991,-0.012446379289031029
1761131773174438400,3.2244384765625,0.01488984003663063,0.007712173741310835,-0.008170322515070438
1761131773184438300,3.234438232421875,0.014278975315392017,0.0071013085544109344,0.0022143865935504436
1761131773194438100,3.244438232421875,0.011835514567792416,0.002825251780450344,0.018096882849931717
1761131773204438300,3.254438232421875,0.010002918541431427,-0.004505131393671036,0.029703322798013687
1761131773214438100,3.264438232421875,0.014278975315392017,-0.013057244941592216,0.03520110994577408
1761131773224438300,3.274438232421875,0.01794416643679142,-0.015500705689191818,0.029703322798013687
1761131773234438100,3.284438232421875,0.02099849283695221,-0.01488984003663063,0.015042556449770927
1761131773244437500,3.2944375,0.019165897741913795,-0.012446379289031029,-0.007559457328170538
1761131773254437400,3.304437255859375,0.01366810966283083,-0.01366810966283083,-0.02344195358455181
1761131773264437500,3.3144375,0.0069485921412706375,-0.013057244941592216,-0.031383201479911804
1761131773274437400,3.324437255859375,0.0014508049935102463,-0.012446379289031029,-0.028328875079751015
1761131773284437500,3.3344375,-0.0009926559869199991,-0.010002918541431427,-0.015500705689191818
1761131773294437400,3.344437255859375,-0.0022143865935504436,-0.0038942659739404917,0.004046982154250145
1761131773304437500,3.3544375,0.000839939690195024,-0.00022907447419129312,0.022372938692569733
1761131773314437400,3.364437255859375,0.006337726954370737,-0.0032834007870405912,0.03214678168296814
1761131773324437500,3.3744375,0.012446379289031029,-0.004505131393671036,0.0290924571454525
1761131773334437400,3.384437255859375,0.016722436994314194,-0.0069485921412706375,0.019318614155054092
1761131773344438300,3.394438232421875,0.019165897741913795,-0.005726861767470837,0.004657847341150045
1761131773354438100,3.404438232421875,0.01488984003663063,-0.0014508049935102463,-0.01061378326267004
1761131773364438300,3.414438232421875,0.012446379289031029,-0.0032834007870405912,-0.010002918541431427
1761131773374438100,3.424438232421875,0.01061378326267004,-0.007559457328170538,-0.000839939690195024
1761131773384438300,3.434438232421875,0.0069485921412706375,-0.011835514567792416,0.008323038928210735
1761131773394438100,3.444438232421875,0.00022907447419129312,-0.014278975315392017,0.008933904580771923
1761131773404438300,3.454438232421875,-0.008323038928210735,-0.00939205288887024,0.006490443367511034
1761131773414438100,3.464438232421875,-0.008933904580771923,-0.000839939690195024,0.010155634954571724
1761131773424438300,3.474438232421875,-0.004657847341150045,0.005268712528049946,0.022372938692569733
1761131773434438100,3.484438232421875,-0.0022143865935504436,0.009544769302010536,0.03703370690345764
1761131773444437500,3.4944375,0.004505131393671036,0.011988230049610138,0.051083605736494064
1761131773454437400,3.504437255859375,0.006337726954370737,0.002825251780450344,0.053527068346738815
1761131773464437500,3.5144375,0.01061378326267004,-0.005115996580570936,0.03825543448328972
1761131773474437400,3.524437255859375,0.011835514567792416,-0.00939205288887024,0.0071013085544109344
1761131773484437500,3.5344375,0.01061378326267004,-0.00939205288887024,-0.025274548679590225
1761131773494437400,3.544437255859375,0.005115996580570936,-0.005726861767470837,-0.045433104038238525
1761131773504437500,3.5544375,0.002672535367310047,-0.000839939690195024,-0.0466548316180706
1761131773514437600,3.564437744140625,0.002672535367310047,0.004046982154250145,-0.02710714563727379
1761131773524437500,3.5744375,0.005115996580570936,0.006490443367511034,0.004046982154250145
1761131773534437600,3.584437744140625,0.005115996580570936,0.0071013085544109344,0.033368512988090515
1761131773544438300,3.594438232421875,0.0038942659739404917,0.002825251780450344,0.041920628398656845
1761131773554438400,3.6044384765625,0.005115996580570936,-0.000839939690195024,0.027259862050414085
1761131773564438300,3.614438232421875,0.0020616701804101467,-0.00022907447419129312,-0.0014508049935102463
1761131773574438400,3.6244384765625,0.0038942659739404917,0.0034361169673502445,-0.030161472037434578
1761131773584438300,3.634438232421875,0.016111571341753006,0.008933904580771923,-0.03871358558535576
1761131773594438400,3.6444384765625,0.016722436994314194,0.010155634954571724,-0.022220224142074585
1761131773604438300,3.654438232421875,0.011835514567792416,0.011377365328371525,0.005268712528049946
1761131773614438400,3.6644384765625,0.008170322515070438,0.012599095702171326,0.033368512988090515
1761131773624438300,3.674438232421875,0.006337726954370737,0.007712173741310835,0.0492510087788105
1761131773634438400,3.6844384765625,0.005726861767470837,0.002825251780450344,0.0492510087788105
1761131773644437500,3.6944375,0.007559457328170538,-0.0020616701804101467,0.03459024429321289
1761131773654437600,3.704437744140625,0.010002918541431427,-0.005115996580570936,0.012599095702171326
1761131773664437500,3.7144375,0.01061378326267004,-0.0038942659739404917,-0.013057244941592216
1761131773674437600,3.724437744140625,0.008170322515070438,0.0022143865935504436,-0.025885414332151413
1761131773684437500,3.7344375,0.00939205288887024,0.005268712528049946,-0.025274548679590225
1761131773694437400,3.744437255859375,0.01366810966283083,0.006490443367511034,-0.011835514567792416
1761131773704437500,3.7544375,0.01488984003663063,0.007712173741310835,0.006490443367511034
1761131773714437400,3.764437255859375,0.010002918541431427,0.0016035212902352214,0.024816401302814484
1761131773724437500,3.7744375,0.008170322515070438,-0.0020616701804101467,0.033368512988090515
1761131773734437400,3.784437255859375,0.006337726954370737,-0.0038942659739404917,0.03153591975569725
1761131773744438300,3.794438232421875,0.006337726954370737,-0.002672535367310047,0.01687515154480934
1761131773754438100,3.804438232421875,0.008170322515070438,-0.000839939690195024,-0.00022907447419129312
1761131773764438300,3.814438232421875,0.010002918541431427,0.0034361169673502445,-0.011835514567792416
1761131773774438100,3.824438232421875,0.021609358489513397,0.005268712528049946,-0.011224648915231228
1761131773784438300,3.834438232421875,0.024663684889674187,0.008323038928210735,0.0009926559869199991
1761131773794438100,3.844438232421875,0.025274548679590225,0.015042556449770927,0.021151209250092506
1761131773804438300,3.854438232421875,0.021609358489513397,0.013820826075971127,0.03703370690345764
1761131773814438100,3.864438232421875,0.00939205288887024,0.0071013085544109344,0.0443640872836113
1761131773824438300,3.874438232421875,0.0069485921412706375,0.004046982154250145,0.035811975598335266
1761131773834438100,3.884438232421875,0.011224648915231228,0.00038179077091626823,0.013820826075971127
1761131773844437500,3.8944375,0.016722436994314194,-0.0020616701804101467,-0.013057244941592216
1761131773854437400,3.904437255859375,0.022831087931990623,0.00038179077091626823,-0.036880988627672195
1761131773864437500,3.9144375,0.02344195358455181,0.002825251780450344,-0.04726569727063179
1761131773874437400,3.924437255859375,0.024052819237113,-0.005726861767470837,-0.039324451237916946
1761131773884437500,3.9344375,0.024052819237113,-0.008781188167631626,-0.022220224142074585
1761131773894437400,3.944437255859375,0.01794416643679142,-0.007559457328170538,-0.01061378326267004
1761131773904437500,3.9544375,0.01061378326267004,-0.000839939690195024,0.004657847341150045
1761131773914437400,3.964437255859375,0.00939205288887024,0.005879578180611134,0.019318614155054092
1761131773924437500,3.9744375,0.00939205288887024,0.004046982154250145,0.0290924571454525
1761131773934437400,3.984437255859375,0.011224648915231228,0.005268712528049946,0.03153591975569725
1761131773944438300,3.994438232421875,0.01488984003663063,0.009544769302010536,0.029703322798013687
1761131773954438100,4.004438232421875,0.01794416643679142,0.008933904580771923,0.026648996397852898
1761131773964438300,4.014438232421875,0.025885414332151413,0.004046982154250145,0.021762074902653694
1761131773974438100,4.024438232421875,0.025885414332151413,0.0022143865935504436,0.011377365328371525
1761131773984438300,4.034438232421875,0.02344195358455181,0.00038179077091626823,0.005879578180611134
1761131773994438100,4.044438232421875,0.02344195358455181,-0.002672535367310047,0.006490443367511034
1761131774004438300,4.054438232421875,0.022831087931990623,-0.005115996580570936,0.012599095702171326
1761131774014438100,4.064438232421875,0.014278975315392017,-0.006337726954370737,0.013820826075971127
1761131774024438300,4.074438232421875,0.007559457328170538,-0.0014508049935102463,0.013209961354732513
1761131774034438100,4.084438232421875,0.0069485921412706375,0.0016035212902352214,0.014431691728532314
1761131774044437500,4.0944375,0.011835514567792416,-0.000839939690195024,0.01687515154480934
1761131774054437400,4.104437255859375,0.019165897741913795,-0.000839939690195024,0.018096882849931717
1761131774064437500,4.1144375,0.02038762718439102,-0.0038942659739404917,0.015042556449770927
1761131774074437400,4.124437255859375,0.019165897741913795,-0.004505131393671036,0.008933904580771923
1761131774084437500,4.1344375,0.019776761531829834,-0.004505131393671036,-0.00022907447419129312
1761131774094437400,4.144437255859375,0.01794416643679142,-0.0032834007870405912,-0.012446379289031029
1761131774104437500,4.1544375,0.011224648915231228,-0.0038942659739404917,-0.022220224142074585
1761131774114437400,4.164437255859375,0.00022907447419129312,-0.0032834007870405912,-0.027718011289834976
1761131774124437500,4.1744375,-0.0022143865935504436,-0.0038942659739404917,-0.024052819237113
1761131774134437400,4.184437255859375,-0.0009926559869199991,-0.0032834007870405912,-0.01488984003663063
1761131774144438300,4.194438232421875,-0.0009926559869199991,0.0034361169673502445,-0.010002918541431427
1761131774154438400,4.2044384765625,0.0038942659739404917,0.005268712528049946,0.00038179077091626823
1761131774164438300,4.214438232421875,0.01366810966283083,0.004657847341150045,0.010766499675810337
1761131774174438400,4.2244384765625,0.014278975315392017,0.0009926559869199991,0.01748601719737053
1761131774184438300,4.234438232421875,0.011835514567792416,0.00038179077091626823,0.018707748502492905
1761131774194438100,4.244438232421875,0.010002918541431427,0.0022143865935504436,0.01748601719737053
1761131774204438300,4.254438232421875,0.00939205288887024,0.0034361169673502445,0.010155634954571724
1761131774214438100,4.264438232421875,0.007559457328170538,0.005268712528049946,0.00038179077091626823
1761131774224438300,4.274438232421875,0.005115996580570936,0.0016035212902352214,-0.00939205288887024
1761131774234438100,4.284438232421875,0.002672535367310047,-0.0020616701804101467,-0.017333300784230232
1761131774244437500,4.2944375,0.0020616701804101467,-0.0020616701804101467,-0.016111571341753006
1761131774254437400,4.304437255859375,0.00022907447419129312,-0.0014508049935102463,-0.008781188167631626
1761131774264437500,4.3144375,0.0032834007870405912,-0.00022907447419129312,0.0016035212902352214
1761131774274437400,4.324437255859375,0.0069485921412706375,-0.005726861767470837,0.011377365328371525
1761131774284437500,4.3344375,0.005726861767470837,-0.008170322515070438,0.008933904580771923
1761131774294437400,4.344437255859375,0.0032834007870405912,-0.008170322515070438,0.0009926559869199991
1761131774304437500,4.3544375,0.002672535367310047,-0.006337726954370737,-0.013057244941592216
1761131774314437400,4.364437255859375,0.0014508049935102463,-0.005726861767470837,-0.019776761531829834
1761131774324437500,4.3744375,-0.00038179077091626823,-0.002672535367310047,-0.019776761531829834
1761131774334437400,4.384437255859375,0.000839939690195024,-0.000839939690195024,-0.01488984003663063
1761131774344438300,4.394438232421875,0.0038942659739404917,-0.00022907447419129312,-0.00939205288887024
1761131774354438100,4.404438232421875,0.0032834007870405912,0.006490443367511034,-0.0020616701804101467
1761131774364438300,4.414438232421875,0.005115996580570936,0.008933904580771923,-0.00022907447419129312
1761131774374438100,4.424438232421875,0.0038942659739404917,0.010155634954571724,-0.0069485921412706375
1761131774384438300,4.434438232421875,-0.004657847341150045,0.015653422102332115,-0.011835514567792416
1761131774394438400,4.4444384765625,0.0020616701804101467,0.015653422102332115,-0.007559457328170538
1761131774404438300,4.454438232421875,0.008781188167631626,0.007712173741310835,0.002825251780450344
1761131774414438400,4.4644384765625,-0.0009926559869199991,0.010766499675810337,0.0071013085544109344
1761131774424438300,4.474438232421875,-0.014431691728532314,0.010766499675810337,0.0071013085544109344
1761131774434438400,4.4844384765625,-0.01748601719737053,0.005879578180611134,0.0022143865935504436
1761131774444437500,4.4944375,-0.015042556449770927,0.010766499675810337,-0.000839939690195024
1761131774454437400,4.504437255859375,-0.01687515154480934,0.015042556449770927,-0.007559457328170538
1761131774464437500,4.5144375,-0.01687515154480934,0.013820826075971127,-0.01488984003663063
1761131774474437400,4.524437255859375,-0.014431691728532314,0.011377365328371525,-0.018555032089352608
1761131774484437500,4.5344375,-0.012599095702171326,0.008323038928210735,-0.016722436994314194
1761131774494437400,4.544437255859375,-0.010155634954571724,0.008323038928210735,-0.015500705689191818
1761131774504437500,4.5544375,-0.01748601719737053,0.01992947794497013,-0.016111571341753006
1761131774514437400,4.564437255859375,-0.024816401302814484,0.025427265092730522,-0.01488984003663063
1761131774524437500,4.5744375,-0.026648996397852898,0.027259862050414085,-0.005115996580570936
1761131774534437400,4.584437255859375,-0.023594669997692108,0.023594669997692108,0.006490443367511034
1761131774544438300,4.594438232421875,-0.01687515154480934,0.01687515154480934,0.012599095702171326
1761131774554438100,4.604438232421875,-0.013820826075971127,0.015653422102332115,0.006490443367511034
1761131774564438300,4.614438232421875,-0.012599095702171326,0.01992947794497013,-0.002672535367310047
1761131774574438100,4.624438232421875,-0.011988230049610138,0.018096882849931717,-0.00939205288887024
1761131774584438300,4.634438232421875,-0.011988230049610138,0.015653422102332115,-0.012446379289031029
1761131774594438100,4.644438232421875,-0.013209961354732513,0.011377365328371525,-0.01488984003663063
1761131774604438300,4.654438232421875,-0.018707748502492905,0.008933904580771923,-0.012446379289031029
1761131774614438100,4.664438232421875,-0.022372938692569733,0.010766499675810337,-0.006337726954370737
1761131774624438300,4.674438232421875,-0.01992947794497013,0.014431691728532314,0.0016035212902352214
1761131774634438400,4.6844384765625,-0.01687515154480934,0.01748601719737053,0.007712173741310835
1761131774644437500,4.6944375,-0.015042556449770927,0.018707748502492905,0.009544769302010536
1761131774654437400,4.704437255859375,-0.012599095702171326,0.016264287754893303,0.012599095702171326
1761131774664437500,4.7144375,-0.009544769302010536,0.010155634954571724,0.010766499675810337
1761131774674437400,4.724437255859375,-0.007712173741310835,0.005879578180611134,0.004046982154250145
1761131774684437500,4.7344375,-0.0071013085544109344,0.002825251780450344,-0.006337726954370737
1761131774694437400,4.744437255859375,-0.005879578180611134,0.002825251780450344,-0.017333300784230232
1761131774704437200,4.754437255859375,-0.010766499675810337,0.005268712528049946,-0.030161472037434578
1761131774714437400,4.764437255859375,-0.016264287754893303,0.009544769302010536,-0.03871358558535576
1761131774724437200,4.774437255859375,-0.018707748502492905,0.010155634954571724,-0.04115704447031021
1761131774734437400,4.784437255859375,-0.01687515154480934,0.0071013085544109344,-0.031383201479911804
1761131774744438300,4.794438232421875,-0.008933904580771923,0.004657847341150045,-0.005726861767470837
1761131774754438100,4.804438232421875,-0.004657847341150045,0.011377365328371525,0.015653422102332115
1761131774764438300,4.814438232421875,-0.0022143865935504436,0.014431691728532314,0.025427265092730522
1761131774774438400,4.8244384765625,-0.005268712528049946,0.015653422102332115,0.025427265092730522
1761131774784438300,4.834438232421875,-0.010766499675810337,0.014431691728532314,0.01748601719737053
1761131774794438100,4.844438232421875,-0.011377365328371525,0.008933904580771923,0.011377365328371525
1761131774804438300,4.854438232421875,-0.0022143865935504436,0.004046982154250145,0.005268712528049946
1761131774814438400,4.8644384765625,0.004505131393671036,0.002825251780450344,0.0022143865935504436
1761131774824438300,4.874438232421875,0.002672535367310047,0.004046982154250145,0.0034361169673502445
1761131774834438100,4.884438232421875,0.0032834007870405912,0.0034361169673502445,0.005268712528049946
1761131774844437500,4.8944375,0.0020616701804101467,0.0016035212902352214,0.0009926559869199991
1761131774854437400,4.904437255859375,0.004505131393671036,-0.00022907447419129312,-0.011835514567792416
1761131774864437500,4.9144375,0.0069485921412706375,-0.002672535367310047,-0.021609358489513397
1761131774874437400,4.924437255859375,0.014278975315392017,-0.005115996580570936,-0.02344195358455181
1761131774884437500,4.9344375,0.019165897741913795,-0.006337726954370737,-0.01794416643679142
1761131774894437400,4.944437255859375,0.019776761531829834,-0.006337726954370737,-0.007559457328170538
1761131774904437500,4.9544375,0.014278975315392017,-0.008170322515070438,0.004657847341150045
1761131774914437400,4.964437255859375,0.008781188167631626,-0.006337726954370737,0.011988230049610138
1761131774924437500,4.9744375,0.01061378326267004,-0.005115996580570936,0.008933904580771923
1761131774934437400,4.984437255859375,0.008781188167631626,-0.008781188167631626,-0.005115996580570936
1761131774944438300,4.994438232421875,0.012446379289031029,-0.002672535367310047,-0.025274548679590225
1761131774954438100,5.004438232421875,0.01366810966283083,0.0034361169673502445,-0.03504839166998863
1761131774964438300,5.014438232421875,0.01488984003663063,0.004046982154250145,-0.0264962799847126
1761131774974438100,5.024438232421875,0.019776761531829834,0.005879578180611134,0.010766499675810337
1761131774984438300,5.034438232421875,0.018555032089352608,0.0022143865935504436,0.03214678168296814
1761131774994438100,5.044438232421875,0.01488984003663063,-0.004505131393671036,0.04253149405121803
1761131775004438300,5.054438232421875,0.016111571341753006,-0.007559457328170538,0.03520110994577408
1761131775014438100,5.064438232421875,0.02099849283695221,-0.014278975315392017,0.014431691728532314
1761131775024438300,5.074438232421875,0.0264962799847126,-0.01488984003663063,-0.011224648915231228
1761131775034438100,5.084438232421875,0.02710714563727379,-0.014278975315392017,-0.03504839166998863
1761131775044437500,5.0944375,0.021609358489513397,-0.015500705689191818,-0.045433104038238525
1761131775054437400,5.104437255859375,0.018555032089352608,-0.015500705689191818,-0.039324451237916946
1761131775064437200,5.114437255859375,0.015500705689191818,-0.016722436994314194,-0.025885414332151413
1761131775074437400,5.124437255859375,0.01366810966283083,-0.011224648915231228,-0.011835514567792416
1761131775084437200,5.134437255859375,0.011224648915231228,-0.0038942659739404917,0.002825251780450344
1761131775094437400,5.144437255859375,0.01061378326267004,-0.002672535367310047,0.014431691728532314
1761131775104437200,5.154437255859375,0.012446379289031029,-0.0032834007870405912,0.024205535650253296
1761131775114437400,5.164437255859375,0.016722436994314194,-0.0038942659739404917,0.029703322798013687
1761131775124437200,5.174437255859375,0.02344195358455181,-0.005115996580570936,0.029703322798013687
1761131775134437400,5.184437255859375,0.02710714563727379,-0.006337726954370737,0.018707748502492905
1761131775144438300,5.194438232421875,0.025274548679590225,-0.002672535367310047,0.0022143865935504436
1761131775154438100,5.204438232421875,0.0264962799847126,-0.0038942659739404917,-0.008170322515070438
1761131775164438300,5.214438232421875,0.028328875079751015,-0.012446379289031029,-0.011224648915231228
1761131775174438100,5.224438232421875,0.0264962799847126,-0.014278975315392017,-0.005115996580570936
1761131775184438300,5.234438232421875,0.021609358489513397,-0.016111571341753006,0.002825251780450344
1761131775194438100,5.244438232421875,0.015500705689191818,-0.01488984003663063,0.011377365328371525
1761131775204438300,5.254438232421875,0.011224648915231228,-0.011224648915231228,0.024205535650253296
1761131775214438100,5.264438232421875,0.011224648915231228,-0.0069485921412706375,0.02298380434513092
1761131775224438300,5.274438232421875,0.01366810966283083,-0.0038942659739404917,0.02054034359753132
1761131775234438100,5.284438232421875,0.019776761531829834,-0.0038942659739404917,0.019318614155054092
1761131775244437500,5.2944375,0.02955060638487339,-0.0069485921412706375,0.02054034359753132
1761131775254437400,5.304437255859375,0.03321579843759537,-0.011224648915231228,0.021151209250092506
1761131775264437500,5.3144375,0.03260493278503418,-0.01366810966283083,0.01687515154480934
1761131775274437400,5.324437255859375,0.025274548679590225,-0.016111571341753006,0.007712173741310835
1761131775284437500,5.3344375,0.016722436994314194,-0.012446379289031029,-0.0032834007870405912
1761131775294437400,5.344437255859375,0.01061378326267004,-0.011224648915231228,-0.010002918541431427
1761131775304437500,5.3544375,0.006337726954370737,-0.008781188167631626,-0.010002918541431427
1761131775314437400,5.364437255859375,0.0014508049935102463,-0.010002918541431427,-0.0038942659739404917
1761131775324437500,5.3744375,0.0032834007870405912,-0.012446379289031029,0.012599095702171326
1761131775334437400,5.384437255859375,0.008781188167631626,-0.011224648915231228,0.030925052240490913
1761131775344438300,5.394438232421875,0.013057244941592216,-0.0069485921412706375,0.041920628398656845
1761131775354438100,5.404438232421875,0.01488984003663063,-0.0014508049935102463,0.04008803144097328
1761131775364438300,5.414438232421875,0.014278975315392017,-0.000839939690195024,0.027870727702975273
1761131775374438100,5.424438232421875,0.00939205288887024,-0.0038942659739404917,0.010766499675810337
1761131775384438300,5.434438232421875,0.005726861767470837,-0.002672535367310047,-0.002672535367310047
1761131775394438400,5.4444384765625,0.005726861767470837,-0.0020616701804101467,-0.005115996580570936
1761131775404438300,5.454438232421875,0.005115996580570936,-0.002672535367310047,-0.000839939690195024
1761131775414438400,5.4644384765625,0.005115996580570936,-0.0038942659739404917,0.0071013085544109344
1761131775424438300,5.474438232421875,0.002672535367310047,-0.005726861767470837,0.014431691728532314
1761131775434438400,5.4844384765625,-0.0009926559869199991,-0.006337726954370737,0.007712173741310835
1761131775444437500,5.4944375,-0.0016035212902352214,-0.0038942659739404917,-0.00022907447419129312
1761131775454437400,5.504437255859375,-0.0016035212902352214,-0.005726861767470837,-0.0032834007870405912
1761131775464437500,5.5144375,-0.0022143865935504436,-0.00939205288887024,-0.005115996580570936
1761131775474437400,5.524437255859375,0.00022907447419129312,-0.008781188167631626,-0.0014508049935102463
1761131775484437500,5.5344375,-0.00038179077091626823,-0.008170322515070438,0.004046982154250145
1761131775494437400,5.544437255859375,-0.0016035212902352214,-0.00939205288887024,0.011377365328371525
1761131775504437500,5.5544375,-0.004046982154250145,-0.011224648915231228,0.013820826075971127
1761131775514437400,5.564437255859375,-0.007712173741310835,-0.011224648915231228,0.014431691728532314
1761131775524437500,5.5744375,-0.011377365328371525,-0.006337726954370737,0.01687515154480934
1761131775534437400,5.584437255859375,-0.011988230049610138,0.0034361169673502445,0.022372938692569733
1761131775544438300,5.594438232421875,-0.013820826075971127,0.005268712528049946,0.030925052240490913
1761131775554438100,5.604438232421875,-0.013820826075971127,0.0022143865935504436,0.04069889709353447
1761131775564438300,5.614438232421875,-0.014431691728532314,-0.000839939690195024,0.04314235970377922
1761131775574438100,5.624438232421875,-0.014431691728532314,-0.002672535367310047,0.038866300135850906
1761131775584438300,5.634438232421875,-0.011988230049610138,-0.0020616701804101467,0.033368512988090515
1761131775594438100,5.644438232421875,-0.007712173741310835,-0.0014508049935102463,0.023594669997692108
1761131775604438300,5.654438232421875,-0.005268712528049946,-0.0014508049935102463,0.010766499675810337
1761131775614438100,5.664438232421875,-0.0034361169673502445,-0.0038942659739404917,-0.0014508049935102463
1761131775624438300,5.674438232421875,-0.0034361169673502445,-0.005726861767470837,-0.008781188167631626
1761131775634438100,5.684438232421875,-0.008933904580771923,-0.010002918541431427,-0.01366810966283083
1761131775644437500,5.6944375,-0.013820826075971127,-0.01061378326267004,-0.01488984003663063
1761131775654437400,5.704437255859375,-0.018096882849931717,-0.008781188167631626,-0.011835514567792416
1761131775664437500,5.7144375,-0.01687515154480934,0.0022143865935504436,0.0009926559869199991
1761131775674437400,5.724437255859375,-0.013209961354732513,0.008933904580771923,0.015042556449770927
1761131775684437200,5.734437255859375,-0.010155634954571724,0.013820826075971127,0.03153591975569725
1761131775694437400,5.744437255859375,-0.007712173741310835,0.01687515154480934,0.051083605736494064
1761131775704437200,5.754437255859375,-0.0034361169673502445,0.013820826075971127,0.06574437022209167
1761131775714437400,5.764437255859375,0.00022907447419129312,0.011988230049610138,0.0694095641374588
1761131775724437200,5.774437255859375,0.000839939690195024,0.009544769302010536,0.060246583074331284
1761131775734437400,5.784437255859375,-0.004046982154250145,0.004046982154250145,0.03825543448328972
1761131775744438300,5.794438232421875,-0.005268712528049946,-0.000839939690195024,0.013820826075971127
1761131775754438100,5.804438232421875,-0.008323038928210735,-0.0032834007870405912,-0.0069485921412706375
1761131775764438000,5.81443798828125,-0.013209961354732513,-0.005115996580570936,-0.016722436994314194
1761131775774438000,5.82443798828125,-0.01687515154480934,-0.0032834007870405912,-0.013057244941592216
1761131775784438000,5.83443798828125,-0.014431691728532314,-0.0014508049935102463,0.004657847341150045
1761131775794438000,5.84443798828125,-0.0071013085544109344,0.002825251780450344,0.0339793786406517
1761131775804438000,5.85443798828125,-0.0022143865935504436,0.004046982154250145,0.06330090761184692
1761131775814438000,5.86443798828125,-0.002825251780450344,0.0016035212902352214,0.0797942727804184
1761131775824438000,5.87443798828125,-0.004657847341150045,-0.006337726954370737,0.0742964819073677
1761131775834438000,5.88443798828125,-0.007712173741310835,-0.016722436994314194,0.047418415546417236
1761131775844437000,5.89443701171875,-0.005879578180611134,-0.019776761531829834,0.008933904580771923
1761131775854437000,5.90443701171875,-0.0009926559869199991,-0.01794416643679142,-0.027718011289834976
1761131775864437000,5.91443701171875,0.0020616701804101467,-0.00939205288887024,-0.04726569727063179
1761131775874437000,5.92443701171875,0.00022907447419129312,-0.00022907447419129312,-0.045433104038238525
1761131775884437000,5.93443701171875,-0.0009926559869199991,0.00038179077091626823,-0.02344195358455181
1761131775894437000,5.94443701171875,-0.002825251780450344,-0.0032834007870405912,0.0034361169673502445
1761131775904437000,5.95443701171875,-0.0016035212902352214,-0.0069485921412706375,0.026648996397852898
1761131775914437000,5.96443701171875,0.00022907447419129312,-0.005115996580570936,0.023594669997692108
1761131775924437200,5.974437255859375,0.0014508049935102463,0.0009926559869199991,0.013209961354732513
1761131775934437000,5.98443701171875,0.002672535367310047,0.005879578180611134,0.0016035212902352214
1761131775944438000,5.99443798828125,0.006337726954370737,0.006490443367511034,-0.0069485921412706375
1761131775954438000,6.00443798828125,0.01061378326267004,0.004657847341150045,-0.007559457328170538
1761131775964438000,6.01443798828125,0.016111571341753006,0.0009926559869199991,-0.0038942659739404917
1761131775974438000,6.02443798828125,0.015500705689191818,-0.000839939690195024,-0.0014508049935102463
1761131775984438000,6.03443798828125,0.011224648915231228,-0.00022907447419129312,-0.004505131393671036
1761131775994438000,6.04443798828125,0.006337726954370737,-0.00022907447419129312,-0.015500705689191818
1761131776004438000,6.05443798828125,0.005726861767470837,0.0016035212902352214,-0.024052819237113
1761131776014438000,6.06443798828125,0.0038942659739404917,0.006490443367511034,-0.028328875079751015
1761131776024438000,6.07443798828125,0.008170322515070438,-0.0032834007870405912,-0.025274548679590225
1761131776034438000,6.08443798828125,0.015500705689191818,-0.0069485921412706375,-0.016722436994314194
1761131776044437000,6.09443701171875,0.022831087931990623,-0.007559457328170538,-0.016111571341753006
1761131776054437000,6.10443701171875,0.022831087931990623,-0.0038942659739404917,-0.01488984003663063
1761131776064437500,6.1144375,0.021609358489513397,-0.0014508049935102463,-0.013057244941592216
1761131776074437400,6.124437255859375,0.017333300784230232,-0.0020616701804101467,-0.012446379289031029
1761131776084437500,6.1344375,0.014278975315392017,-0.0020616701804101467,-0.006337726954370737
1761131776094437400,6.144437255859375,0.013057244941592216,-0.0014508049935102463,-0.0038942659739404917
1761131776104437500,6.1544375,0.013057244941592216,-0.004505131393671036,-0.005726861767470837
1761131776114437400,6.164437255859375,0.012446379289031029,-0.005115996580570936,-0.01061378326267004
1761131776124437500,6.1744375,0.011835514567792416,-0.005115996580570936,-0.016722436994314194
1761131776134437400,6.184437255859375,0.012446379289031029,-0.002672535367310047,-0.027718011289834976
1761131776144438300,6.194438232421875,0.00939205288887024,0.004046982154250145,-0.033826664090156555
1761131776154438100,6.204438232421875,0.0069485921412706375,0.0071013085544109344,-0.031383201479911804
1761131776164438300,6.214438232421875,0.007559457328170538,0.005879578180611134,-0.024663684889674187
1761131776174438100,6.224438232421875,0.013057244941592216,0.0016035212902352214,-0.017333300784230232
1761131776184438300,6.234438232421875,0.016111571341753006,-0.008781188167631626,-0.022220224142074585
1761131776194438100,6.244438232421875,0.01366810966283083,-0.01488984003663063,-0.03749185428023338
1761131776204438300,6.254438232421875,0.012446379289031029,-0.01488984003663063,-0.05398521572351456
1761131776214438100,6.264438232421875,0.00939205288887024,-0.012446379289031029,-0.06742425262928009
1761131776224438300,6.274438232421875,0.00939205288887024,-0.008170322515070438,-0.0668133869767189
1761131776234438100,6.284438232421875,0.007559457328170538,-0.002672535367310047,-0.052152618765830994
1761131776244437200,6.294437255859375,0.004505131393671036,0.0022143865935504436,-0.027718011289834976
1761131776254437400,6.304437255859375,0.000839939690195024,0.005879578180611134,-0.0014508049935102463
1761131776264437200,6.314437255859375,-0.0022143865935504436,0.0034361169673502445,0.018096882849931717
1761131776274437400,6.324437255859375,-0.0016035212902352214,0.00038179077091626823,0.02298380434513092
1761131776284437200,6.334437255859375,0.002672535367310047,-0.0038942659739404917,0.009544769302010536
1761131776294437400,6.344437255859375,0.008170322515070438,-0.004505131393671036,-0.01488984003663063
1761131776304437200,6.354437255859375,0.01366810966283083,0.002825251780450344,-0.03565925732254982
1761131776314437400,6.364437255859375,0.016111571341753006,0.007712173741310835,-0.04421137273311615
1761131776324437200,6.374437255859375,0.015500705689191818,0.007712173741310835,-0.036880988627672195
1761131776334437400,6.384437255859375,0.013057244941592216,0.002825251780450344,-0.024663684889674187
1761131776344438300,6.394438232421875,0.008781188167631626,-0.005115996580570936,-0.011835514567792416
1761131776354438100,6.404438232421875,0.002672535367310047,-0.010002918541431427,-0.005115996580570936
1761131776364438300,6.414438232421875,-0.004657847341150045,-0.00939205288887024,-0.0032834007870405912
1761131776374438100,6.424438232421875,-0.0022143865935504436,-0.00022907447419129312,-0.005726861767470837
1761131776384438300,6.434438232421875,0.0020616701804101467,0.008323038928210735,-0.006337726954370737
1761131776394438100,6.444438232421875,0.007559457328170538,0.010155634954571724,-0.00022907447419129312
1761131776404438300,6.454438232421875,0.01061378326267004,0.005879578180611134,0.007712173741310835
1761131776414438100,6.464438232421875,0.011835514567792416,-0.0020616701804101467,0.016264287754893303
1761131776424438300,6.474438232421875,0.01061378326267004,-0.010002918541431427,0.015653422102332115
1761131776434438100,6.484438232421875,0.0038942659739404917,-0.012446379289031029,0.007712173741310835
1761131776444437500,6.4944375,-0.0016035212902352214,-0.010002918541431427,-0.0038942659739404917
1761131776454437400,6.504437255859375,-0.005268712528049946,-0.008170322515070438,-0.011224648915231228
1761131776464437500,6.5144375,-0.005268712528049946,-0.005115996580570936,-0.01366810966283083
1761131776474437400,6.524437255859375,-0.007712173741310835,0.0009926559869199991,-0.005726861767470837
1761131776484437500,6.5344375,-0.005879578180611134,0.004046982154250145,0.006490443367511034
1761131776494437400,6.544437255859375,-0.002825251780450344,0.004657847341150045,0.01992947794497013
1761131776504437500,6.5544375,-0.00038179077091626823,0.0016035212902352214,0.0290924571454525
1761131776514437400,6.564437255859375,0.004505131393671036,-0.000839939690195024,0.03214678168296814
1761131776524437500,6.5744375,0.007559457328170538,-0.000839939690195024,0.0290924571454525
1761131776534437400,6.584437255859375,0.00939205288887024,0.005879578180611134,0.023594669997692108
1761131776544438300,6.594438232421875,0.006337726954370737,0.009544769302010536,0.015653422102332115
1761131776554438100,6.604438232421875,0.000839939690195024,0.008323038928210735,0.010155634954571724
1761131776564438300,6.614438232421875,-0.004657847341150045,0.002825251780450344,0.011988230049610138
1761131776574438100,6.624438232421875,-0.007712173741310835,-0.006337726954370737,0.016264287754893303
1761131776584438300,6.634438232421875,-0.008323038928210735,-0.008781188167631626,0.01992947794497013
1761131776594438100,6.644438232421875,-0.007712173741310835,-0.0020616701804101467,0.022372938692569733
1761131776604438300,6.654438232421875,-0.005268712528049946,0.002825251780450344,0.024816401302814484
1761131776614438100,6.664438232421875,-0.009544769302010536,0.0022143865935504436,0.023594669997692108
1761131776624438300,6.674438232421875,-0.010766499675810337,-0.000839939690195024,0.021151209250092506
1761131776634438100,6.684438232421875,-0.008933904580771923,-0.005726861767470837,0.01748601719737053
1761131776644437500,6.6944375,-0.0071013085544109344,-0.00939205288887024,0.011377365328371525
1761131776654437400,6.704437255859375,-0.006490443367511034,-0.008170322515070438,0.004046982154250145
1761131776664437500,6.7144375,-0.004046982154250145,-0.00022907447419129312,-0.0014508049935102463
1761131776674437400,6.724437255859375,-0.0016035212902352214,0.008323038928210735,-0.000839939690195024
1761131776684437500,6.7344375,-0.0022143865935504436,0.015042556449770927,0.0034361169673502445
1761131776694437400,6.744437255859375,-0.006490443367511034,0.015042556449770927,0.008933904580771923
1761131776704437200,6.754437255859375,-0.010155634954571724,0.014431691728532314,0.01748601719737053
1761131776714437400,6.764437255859375,-0.008933904580771923,0.009544769302010536,0.024816401302814484
1761131776724437200,6.774437255859375,-0.006490443367511034,0.008323038928210735,0.03214678168296814
1761131776734437400,6.784437255859375,-0.007712173741310835,0.006490443367511034,0.033368512988090515
1761131776744438300,6.794438232421875,-0.009544769302010536,0.0034361169673502445,0.033368512988090515
1761131776754438100,6.804438232421875,-0.010155634954571724,0.0016035212902352214,0.027259862050414085
1761131776764438300,6.814438232421875,-0.008933904580771923,0.0022143865935504436,0.01687515154480934
1761131776774438100,6.824438232421875,-0.009544769302010536,0.00038179077091626823,0.004657847341150045
1761131776784438300,6.834438232421875,-0.008933904580771923,-0.006337726954370737,-0.006337726954370737
1761131776794438100,6.844438232421875,-0.010155634954571724,-0.01488984003663063,-0.018555032089352608
1761131776804438300,6.854438232421875,-0.013209961354732513,-0.019776761531829834,-0.03504839166998863
1761131776814438100,6.864438232421875,-0.01748601719737053,-0.013057244941592216,-0.0466548316180706
1761131776824438300,6.874438232421875,-0.018707748502492905,0.005879578180611134,-0.039935316890478134
1761131776834438100,6.884438232421875,-0.01748601719737053,0.013820826075971127,-0.016111571341753006
1761131776844437500,6.8944375,-0.018096882849931717,0.011988230049610138,0.011988230049610138
1761131776854437400,6.904437255859375,-0.021762074902653694,0.008323038928210735,0.03825543448328972
1761131776864437500,6.9144375,-0.021151209250092506,0.004046982154250145,0.048029281198978424
1761131776874437400,6.924437255859375,-0.022372938692569733,-0.000839939690195024,0.03825543448328972
1761131776884437500,6.9344375,-0.027870727702975273,-0.0014508049935102463,0.005879578180611134
1761131776894437400,6.944437255859375,-0.029703322798013687,0.0016035212902352214,-0.03443752974271774
1761131776904437500,6.9544375,-0.0290924571454525,0.002825251780450344,-0.06925684958696365
1761131776914437400,6.964437255859375,-0.024816401302814484,-0.000839939690195024,-0.08513934165239334
1761131776924437500,6.9744375,-0.023594669997692108,-0.006337726954370737,-0.08330674469470978
1761131776934437400,6.984437255859375,-0.026648996397852898,-0.012446379289031029,-0.07108944654464722
1761131776944438300,6.994438232421875,-0.03153591975569725,-0.00939205288887024,-0.05398521572351456
1761131776954438100,7.004438232421875,-0.03459024429321289,-0.0032834007870405912,-0.04054617881774902
1761131776964438300,7.014438232421875,-0.03459024429321289,0.0034361169673502445,-0.030772335827350616
1761131776974438100,7.024438232421875,-0.035811975598335266,0.00038179077091626823,-0.027718011289834976
1761131776984438300,7.034438232421875,-0.03275764733552933,-0.006337726954370737,-0.03443752974271774
1761131776994438100,7.044438232421875,-0.030925052240490913,-0.013057244941592216,-0.04421137273311615
1761131777004438300,7.054438232421875,-0.030925052240490913,-0.017333300784230232,-0.060704734176397324
1761131777014438100,7.064438232421875,-0.03153591975569725,-0.016111571341753006,-0.07841982692480087
1761131777024438300,7.074438232421875,-0.036422841250896454,-0.014278975315392017,-0.09430231899023056
1761131777034438100,7.084438232421875,-0.04130976274609566,-0.013057244941592216,-0.09918924421072006
1761131777044437800,7.094437744140625,-0.04314235970377922,-0.010002918541431427,-0.09308059513568878
1761131777054437600,7.104437744140625,-0.038866300135850906,-0.008170322515070438,-0.07780896127223969
1761131777064437500,7.1144375,-0.04008803144097328,-0.011835514567792416,-0.06498079001903534
1761131777074437600,7.124437744140625,-0.04008803144097328,-0.00939205288887024,-0.052152618765830994
1761131777084437500,7.1344375,-0.03459024429321289,-0.011835514567792416,-0.042989641427993774
1761131777094437600,7.144437744140625,-0.0290924571454525,-0.010002918541431427,-0.04421137273311615
1761131777104437800,7.154437744140625,-0.027870727702975273,-0.0069485921412706375,-0.05642867833375931
1761131777114437600,7.164437744140625,-0.024205535650253296,-0.000839939690195024,-0.06559165567159653
1761131777124437800,7.174437744140625,-0.019318614155054092,0.0022143865935504436,-0.06620252132415771
1761131777134437600,7.184437744140625,-0.01687515154480934,0.0016035212902352214,-0.05642867833375931
1761131777144438500,7.1944384765625,-0.013820826075971127,-0.004505131393671036,-0.04421137273311615
1761131777154438400,7.2044384765625,-0.01687515154480934,-0.01366810966283083,-0.03504839166998863
1761131777164438500,7.2144384765625,-0.015042556449770927,-0.015500705689191818,-0.03199406713247299
1761131777174438400,7.2244384765625,-0.009544769302010536,-0.015500705689191818,-0.028328875079751015
1761131777184438500,7.2344384765625,-0.004657847341150045,-0.01488984003663063,-0.022220224142074585
1761131777194438400,7.2444384765625,-0.0016035212902352214,-0.01488984003663063,-0.016722436994314194
1761131777204438500,7.2544384765625,-0.0009926559869199991,-0.01794416643679142,-0.01061378326267004
1761131777214438400,7.2644384765625,0.00022907447419129312,-0.019776761531829834,-0.005726861767470837
1761131777224438500,7.2744384765625,0.0014508049935102463,-0.018555032089352608,-0.006337726954370737
1761131777234438400,7.2844384765625,0.0032834007870405912,-0.01794416643679142,-0.008781188167631626
1761131777244437800,7.294437744140625,0.0032834007870405912,-0.018555032089352608,-0.00939205288887024
1761131777254437600,7.304437744140625,0.004505131393671036,-0.01794416643679142,-0.00939205288887024
1761131777264437800,7.314437744140625,0.008781188167631626,-0.012446379289031029,-0.0069485921412706375
1761131777274437600,7.324437744140625,0.005115996580570936,-0.007559457328170538,-0.0014508049935102463
1761131777284437800,7.334437744140625,-0.0009926559869199991,-0.0069485921412706375,0.007712173741310835
1761131777294437600,7.344437744140625,-0.0071013085544109344,-0.005726861767470837,0.021151209250092506
1761131777304437800,7.354437744140625,-0.007712173741310835,-0.007559457328170538,0.0290924571454525
1761131777314437600,7.364437744140625,-0.009544769302010536,-0.010002918541431427,0.036422841250896454
1761131777324437800,7.374437744140625,-0.011377365328371525,-0.008781188167631626,0.03764457255601883
1761131777334437600,7.384437744140625,-0.013209961354732513,-0.004505131393671036,0.03275764733552933
1761131777344438300,7.394438232421875,-0.015653422102332115,0.00038179077091626823,0.02054034359753132
1761131777354438100,7.404438232421875,-0.021762074902653694,-0.0014508049935102463,0.002825251780450344
1761131777364438300,7.414438232421875,-0.027870727702975273,-0.011224648915231228,-0.017333300784230232
1761131777374438100,7.424438232421875,-0.03214678168296814,-0.019165897741913795,-0.03443752974271774
1761131777384438300,7.434438232421875,-0.0339793786406517,-0.021609358489513397,-0.0466548316180706
1761131777394438400,7.4444384765625,-0.035811975598335266,-0.012446379289031029,-0.05093089118599892
1761131777404438300,7.454438232421875,-0.04069889709353447,-0.00022907447419129312,-0.045433104038238525
1761131777414438400,7.4644384765625,-0.047418415546417236,0.009544769302010536,-0.031383201479911804
1761131777424438300,7.474438232421875,-0.05291620269417763,0.010766499675810337,-0.016111571341753006
1761131777434438400,7.4844384765625,-0.053527068346738815,0.0022143865935504436,-0.010002918541431427
1761131777444437500,7.4944375,-0.04680754989385605,-0.0014508049935102463,-0.010002918541431427
1761131777454437400,7.504437255859375,-0.03703370690345764,-0.0032834007870405912,-0.01366810966283083
1761131777464437500,7.5144375,-0.03459024429321289,-0.0020616701804101467,-0.021609358489513397
1761131777474437400,7.524437255859375,-0.04008803144097328,0.0034361169673502445,-0.033826664090156555
1761131777484437500,7.5344375,-0.04986187443137169,0.0071013085544109344,-0.04115704447031021
1761131777494437400,7.544437255859375,-0.05597052723169327,0.008933904580771923,-0.0466548316180706
1761131777504437500,7.5544375,-0.05841398984193802,0.008933904580771923,-0.05032002553343773
1761131777514437400,7.564437255859375,-0.059635721147060394,0.0071013085544109344,-0.052152618765830994
1761131777524437500,7.5744375,-0.05719225853681564,0.008933904580771923,-0.05642867833375931
1761131777534437400,7.584437255859375,-0.05535966157913208,0.013209961354732513,-0.060093868523836136
1761131777544438300,7.594438232421875,-0.05597052723169327,0.01992947794497013,-0.0619264654815197
1761131777554438100,7.604438232421875,-0.05719225853681564,0.024205535650253296,-0.060704734176397324
1761131777564438300,7.614438232421875,-0.05230533704161644,0.018707748502492905,-0.05642867833375931
1761131777574438100,7.624438232421875,-0.04558581858873367,0.012599095702171326,-0.052152618765830994
1761131777584438300,7.634438232421875,-0.036422841250896454,0.008933904580771923,-0.04604396969079971
1761131777594438100,7.644438232421875,-0.0339793786406517,0.009544769302010536,-0.04360050708055496
1761131777604438300,7.654438232421875,-0.04253149405121803,0.011377365328371525,-0.042989641427993774
1761131777614438100,7.664438232421875,-0.04986187443137169,0.015653422102332115,-0.039935316890478134
1761131777624438300,7.674438232421875,-0.05535966157913208,0.013820826075971127,-0.03199406713247299
1761131777634438100,7.684438232421875,-0.056581392884254456,0.010766499675810337,-0.02099849283695221
1761131777654437400,7.704437255859375,-0.04375322163105011,0.002825251780450344,0.007712173741310835
1761131777664437500,7.7144375,-0.039477165788412094,0.002825251780450344,0.021151209250092506
1761131777674437400,7.724437255859375,-0.036422841250896454,0.007712173741310835,0.030925052240490913
1761131777684437200,7.734437255859375,-0.030925052240490913,0.011377365328371525,0.03520110994577408
1761131777694437400,7.744437255859375,-0.030925052240490913,0.008933904580771923,0.03459024429321289
1761131777704437200,7.754437255859375,-0.0290924571454525,0.0071013085544109344,0.0339793786406517
1761131777714437400,7.764437255859375,-0.0290924571454525,0.0034361169673502445,0.035811975598335266
1761131777724437200,7.774437255859375,-0.02848159149289131,-0.00022907447419129312,0.035811975598335266
1761131777734437400,7.784437255859375,-0.030314188450574875,-0.00022907447419129312,0.0339793786406517
1761131777744438300,7.794438232421875,-0.029703322798013687,-0.000839939690195024,0.02603813074529171
1761131777754438100,7.804438232421875,-0.03275764733552933,0.00038179077091626823,0.011988230049610138
1761131777764438300,7.814438232421875,-0.0290924571454525,0.0022143865935504436,0.011377365328371525
1761131777774438100,7.824438232421875,-0.02054034359753132,0.004657847341150045,0.01687515154480934
1761131777784438300,7.834438232421875,-0.011988230049610138,0.007712173741310835,0.021762074902653694
1761131777794438100,7.844438232421875,-0.009544769302010536,0.008933904580771923,0.023594669997692108
1761131777804438300,7.854438232421875,-0.010766499675810337,0.008933904580771923,0.021762074902653694
1761131777814438100,7.864438232421875,-0.008933904580771923,0.007712173741310835,0.015042556449770927
1761131777824438300,7.874438232421875,-0.010155634954571724,0.007712173741310835,0.004046982154250145
1761131777834438100,7.884438232421875,-0.010766499675810337,0.008933904580771923,-0.0069485921412706375
1761131777844437500,7.8944375,-0.008933904580771923,0.010155634954571724,-0.016111571341753006
1761131777854437400,7.904437255859375,-0.009544769302010536,0.010766499675810337,-0.02344195358455181
1761131777864437500,7.9144375,-0.008323038928210735,0.010155634954571724,-0.022220224142074585
1761131777874437400,7.924437255859375,-0.005268712528049946,0.010155634954571724,-0.018555032089352608
1761131777884437500,7.9344375,-0.0016035212902352214,0.029703322798013687,-0.02344195358455181
1761131777894437400,7.944437255859375,-0.0071013085544109344,0.047418415546417236,-0.014278975315392017
1761131777904437500,7.9544375,-0.008323038928210735,0.033368512988090515,-0.0032834007870405912
1761131777914437400,7.964437255859375,-0.0034361169673502445,0.027870727702975273,0.016264287754893303
1761131777924437500,7.9744375,0.004505131393671036,0.012599095702171326,0.026648996397852898
1761131777934437400,7.984437255859375,0.0038942659739404917,0.008323038928210735,0.024205535650253296
1761131777944438300,7.994438232421875,0.005115996580570936,0.007712173741310835,0.01687515154480934
1761131777954438100,8.004438232421874,0.005726861767470837,0.0071013085544109344,0.0034361169673502445
1761131777964438300,8.014438232421876,0.005115996580570936,0.006490443367511034,-0.007559457328170538
1761131777974438100,8.024438232421875,0.011835514567792416,0.0022143865935504436,-0.012446379289031029
1761131777984438300,8.034438232421875,0.016722436994314194,-0.005726861767470837,-0.016111571341753006
1761131777994438100,8.044438232421875,0.01488984003663063,-0.014278975315392017,-0.016111571341753006
1761131778004438300,8.054438232421875,0.005726861767470837,-0.01488984003663063,-0.014278975315392017
1761131778014438100,8.064438232421875,0.0014508049935102463,-0.008170322515070438,-0.01488984003663063
1761131778024438300,8.074438232421874,0.0014508049935102463,-0.000839939690195024,-0.008781188167631626
1761131778034438100,8.084438232421874,0.0038942659739404917,0.0071013085544109344,0.007712173741310835
1761131778044404000,8.094404052734374,0.008781188167631626,0.010155634954571724,0.029703322798013687
1761131778054370800,8.104370849609374,0.01488984003663063,0.009544769302010536,0.04986187443137169
1761131778064337400,8.11433740234375,0.01794416643679142,0.005879578180611134,0.060246583074331284
1761131778074304000,8.124303955078124,0.016111571341753006,0.002825251780450344,0.06146831437945366
1761131778084270600,8.1342705078125,0.015500705689191818,0.007712173741310835,0.0492510087788105
1761131778094237400,8.144237548828125,0.011835514567792416,0.009544769302010536,0.02848159149289131
1761131778104204000,8.1542041015625,0.012446379289031029,0.005879578180611134,0.005879578180611134
1761131778114170600,8.164170654296875,0.011835514567792416,0.007712173741310835,-0.011224648915231228
1761131778124137500,8.174137451171875,0.018555032089352608,0.008933904580771923,-0.018555032089352608
1761131778134104000,8.18410400390625,0.019165897741913795,0.007712173741310835,-0.015500705689191818
1761131778144071400,8.194071533203125,0.016722436994314194,0.009544769302010536,-0.0020616701804101467
1761131778154038300,8.204038330078125,0.017333300784230232,0.015042556449770927,0.012599095702171326
1761131778164004900,8.2140048828125,0.021609358489513397,0.01992947794497013,0.027259862050414085
1761131778173971500,8.223971435546876,0.0264962799847126,0.02054034359753132,0.03703370690345764
1761131778183938000,8.23393798828125,0.03199406713247299,0.01748601719737053,0.039477165788412094
1761131778193905000,8.24390478515625,0.03810271993279457,0.010766499675810337,0.033368512988090515
1761131778203871500,8.25387158203125,0.03810271993279457,0.005268712528049946,0.022372938692569733
1761131778213838000,8.263838134765624,0.03321579843759537,0.0034361169673502445,0.008323038928210735
1761131778223805000,8.273804931640624,0.033826664090156555,0.006490443367511034,-0.006337726954370737
1761131778233771500,8.283771484375,0.03627012297511101,0.010766499675810337,-0.014278975315392017
1761131778243737300,8.2937373046875,0.03565925732254982,0.013820826075971127,-0.013057244941592216
1761131778253704000,8.303703857421874,0.03199406713247299,0.016264287754893303,-0.000839939690195024
1761131778263670800,8.3136708984375,0.039324451237916946,0.013209961354732513,0.035811975598335266
1761131778273637400,8.323637451171875,0.031383201479911804,0.011988230049610138,0.05169447138905525
1761131778283604000,8.33360400390625,0.019776761531829834,0.013209961354732513,0.05047274008393288
1761131778293570800,8.34357080078125,0.01794416643679142,0.011377365328371525,0.0339793786406517
1761131778303537400,8.353537353515625,0.02099849283695221,0.012599095702171326,0.015042556449770927
1761131778313504000,8.36350390625,0.02344195358455181,0.016264287754893303,0.0009926559869199991
1761131778323470600,8.373470703125,0.0264962799847126,0.015042556449770927,-0.004505131393671036
1761131778333437400,8.3834375,0.030161472037434578,0.013820826075971127,-0.0020616701804101467
1761131778343438000,8.39343798828125,0.027718011289834976,0.011988230049610138,-0.000839939690195024
1761131778353438200,8.403438232421875,0.02038762718439102,0.010766499675810337,0.0009926559869199991
1761131778363438300,8.413438232421875,0.01794416643679142,0.009544769302010536,-0.00022907447419129312
1761131778373438200,8.423438232421875,0.019165897741913795,0.008323038928210735,0.0016035212902352214
1761131778383438300,8.433438232421874,0.019165897741913795,0.004046982154250145,0.005879578180611134
1761131778393438200,8.443438232421874,0.02099849283695221,0.0016035212902352214,0.012599095702171326
1761131778403438300,8.453438232421876,0.01794416643679142,0.0009926559869199991,0.015653422102332115
1761131778413438200,8.463438232421876,0.013057244941592216,0.0016035212902352214,0.015653422102332115
1761131778423438300,8.473438232421875,0.010002918541431427,-0.00022907447419129312,0.012599095702171326
1761131778433438200,8.483438232421875,0.00939205288887024,-0.0038942659739404917,0.005268712528049946
1761131778443437600,8.4934375,0.008170322515070438,-0.005115996580570936,-0.000839939690195024
1761131778453437400,8.5034375,0.005115996580570936,-0.007559457328170538,-0.005726861767470837
1761131778463437600,8.5134375,0.0014508049935102463,-0.007559457328170538,-0.005726861767470837
1761131778473437400,8.5234375,-0.004657847341150045,-0.011224648915231228,-0.0020616701804101467
1761131778483437600,8.5334375,-0.008933904580771923,-0.011224648915231228,0.0009926559869199991
1761131778493437400,8.5434375,-0.005268712528049946,-0.013057244941592216,0.004046982154250145
1761131778503437600,8.5534375,-0.0034361169673502445,-0.01061378326267004,0.004657847341150045
1761131778513437400,8.5634375,-0.005879578180611134,-0.007559457328170538,0.006490443367511034
1761131778523437600,8.5734375,-0.008933904580771923,-0.00939205288887024,0.006490443367511034
1761131778533437400,8.5834375,-0.012599095702171326,-0.006337726954370737,0.010155634954571724
1761131778543438300,8.593438232421875,-0.01687515154480934,-0.0069485921412706375,0.011377365328371525
1761131778553438200,8.603438232421874,-0.019318614155054092,-0.008170322515070438,0.005879578180611134
1761131778563438000,8.61343798828125,-0.01687515154480934,-0.010002918541431427,-0.006337726954370737
1761131778573438000,8.62343798828125,-0.013209961354732513,-0.008170322515070438,-0.02099849283695221
1761131778583437800,8.633437744140625,-0.008933904580771923,-0.0032834007870405912,-0.039324451237916946
1761131778593438000,8.64343798828125,-0.0071013085544109344,0.00038179077091626823,-0.052152618765830994
1761131778603438000,8.65343798828125,-0.0071013085544109344,0.0022143865935504436,-0.057039543986320496
1761131778613438000,8.66343798828125,-0.007712173741310835,-0.0014508049935102463,-0.05398521572351456
1761131778623438000,8.67343798828125,-0.0034361169673502445,-0.008170322515070438,-0.04970915988087654
1761131778633438000,8.68343798828125,-0.004657847341150045,-0.004505131393671036,-0.04237877577543259
1761131778643437000,8.69343701171875,-0.0071013085544109344,0.002825251780450344,-0.03565925732254982
1761131778653437000,8.70343701171875,-0.008323038928210735,0.010766499675810337,-0.028939740732312202
1761131778663437000,8.71343701171875,-0.0071013085544109344,0.014431691728532314,-0.019165897741913795
1761131778673437000,8.72343701171875,-0.0022143865935504436,0.02298380434513092,-0.010002918541431427
1761131778683437000,8.73343701171875,-0.002825251780450344,0.015042556449770927,-0.002672535367310047
1761131778693437000,8.74343701171875,-0.0022143865935504436,0.011988230049610138,-0.0020616701804101467
1761131778703437000,8.75343701171875,0.00022907447419129312,0.015042556449770927,-0.0069485921412706375
1761131778713437000,8.76343701171875,-0.0022143865935504436,0.015042556449770927,-0.017333300784230232
1761131778723437000,8.77343701171875,-0.002825251780450344,0.018096882849931717,-0.028939740732312202
1761131778733437000,8.78343701171875,-0.0009926559869199991,0.016264287754893303,-0.03749185428023338
1761131778743437800,8.793437744140626,0.00022907447419129312,0.01748601719737053,-0.039935316890478134
1761131778753437700,8.803437744140625,0.000839939690195024,0.018096882849931717,-0.03504839166998863
1761131778763437800,8.813437744140625,0.000839939690195024,0.02054034359753132,-0.022831087931990623
1761131778773437700,8.823437744140625,0.0020616701804101467,0.02054034359753132,-0.007559457328170538
1761131778783437800,8.833437744140625,0.00022907447419129312,0.027259862050414085,0.0071013085544109344
1761131778793437700,8.843437744140624,-0.0009926559869199991,0.023594669997692108,0.018096882849931717
1761131778803437800,8.853437744140624,0.0032834007870405912,0.013820826075971127,0.018096882849931717
1761131778813437700,8.863437744140626,0.005726861767470837,0.011988230049610138,0.010155634954571724
1761131778823437800,8.873437744140626,0.01061378326267004,0.013209961354732513,-0.00022907447419129312
1761131778833437700,8.883437744140625,0.008170322515070438,0.013209961354732513,-0.007559457328170538
1761131778843437000,8.89343701171875,-0.00038179077091626823,0.010766499675810337,-0.01061378326267004
1761131778853437000,8.90343701171875,-0.008933904580771923,0.010766499675810337,-0.008170322515070438
1761131778863437300,8.913437255859375,-0.01992947794497013,0.005268712528049946,0.00038179077091626823
1761131778873437400,8.9234375,-0.024816401302814484,-0.002672535367310047,0.010766499675810337
1761131778883437300,8.933437255859374,-0.023594669997692108,-0.004505131393671036,0.02054034359753132
1761131778893437400,8.9434375,-0.011988230049610138,0.004046982154250145,0.03153591975569725
1761131778903437300,8.953437255859376,-0.004657847341150045,0.004046982154250145,0.04253149405121803
1761131778913437400,8.9634375,-0.004046982154250145,0.00038179077091626823,0.04986187443137169
1761131778923437300,8.973437255859375,-0.004046982154250145,-0.002672535367310047,0.04680754989385605
1761131778933437400,8.9834375,0.0014508049935102463,-0.00939205288887024,0.03703370690345764
1761131778953438200,9.003438232421875,0.0264962799847126,0.005268712528049946,0.012599095702171326
1761131778963438300,9.013438232421874,0.025274548679590225,0.015653422102332115,0.00038179077091626823
1761131778973438200,9.023438232421874,0.022831087931990623,0.018707748502492905,0.004657847341150045
1761131778983438300,9.033438232421876,0.024052819237113,0.016264287754893303,0.01687515154480934
1761131778993438200,9.043438232421876,0.02099849283695221,0.010155634954571724,0.026648996397852898
1761131779003438300,9.053438232421875,0.016722436994314194,-0.0014508049935102463,0.0290924571454525
1761131779013438200,9.063438232421875,0.012446379289031029,-0.01061378326267004,0.02848159149289131
1761131779023438300,9.073438232421875,0.016111571341753006,-0.008781188167631626,0.024816401302814484
1761131779033438200,9.083438232421875,0.022831087931990623,-0.00939205288887024,0.015042556449770927
1761131779043437300,9.093437255859374,0.025274548679590225,-0.004505131393671036,0.012599095702171326
1761131779053437400,9.1034375,0.02955060638487339,0.005268712528049946,0.010766499675810337
1761131779063437300,9.113437255859376,0.04360050708055496,0.0034361169673502445,-0.0032834007870405912
1761131779073437400,9.1234375,0.0466548316180706,0.007712173741310835,-0.016111571341753006
1761131779083437300,9.133437255859375,0.03443752974271774,0.026648996397852898,-0.027718011289834976
1761131779093437200,9.143437255859375,0.01366810966283083,0.014431691728532314,-0.03260493278503418
1761131779103437300,9.153437255859375,0.006337726954370737,0.008323038928210735,-0.00939205288887024
1761131779113437400,9.1634375,-0.11827878654003143,0.11033753305673599,0.13293954730033875
1761131779123437300,9.173437255859374,-0.17692184448242188,-0.008781188167631626,0.2618321180343628
1761131779133437400,9.1834375,-0.1396590620279312,-0.005115996580570936,0.29848402738571167
1761131779143438000,9.19343798828125,-0.07124216109514236,-0.011835514567792416,0.2868776023387909
1761131779153438200,9.203438232421876,0.01488984003663063,0.008323038928210735,0.19708040356636047
1761131779163438000,9.21343798828125,0.07780896127223969,0.04130976274609566,0.0846811980009079
1761131779173438200,9.223438232421875,0.0869719386100769,0.053527068346738815,-0.00022907447419129312
1761131779183438000,9.23343798828125,0.057039543986320496,0.04253149405121803,-0.05642867833375931
1761131779193438200,9.243438232421875,0.03260493278503418,0.007712173741310835,-0.09063713252544403
1761131779203438000,9.25343798828125,0.033826664090156555,-0.011835514567792416,-0.08025242388248444
1761131779213438200,9.263438232421874,0.04054617881774902,-0.019776761531829834,-0.06375905871391296
1761131779223438000,9.27343798828125,0.042989641427993774,-0.02344195358455181,-0.0466548316180706
1761131779233438200,9.283438232421876,0.03443752974271774,-0.021609358489513397,-0.031383201479911804
1761131779243437300,9.293437255859375,0.022831087931990623,-0.015500705689191818,-0.02099849283695221
1761131779253437200,9.303437255859375,0.018555032089352608,-0.002672535367310047,-0.014278975315392017
1761131779263437300,9.313437255859375,0.019165897741913795,0.009544769302010536,-0.00939205288887024
1761131779273437200,9.323437255859375,0.021609358489513397,0.016264287754893303,-0.005726861767470837
1761131779283437300,9.333437255859375,0.028328875079751015,0.011377365328371525,-0.0038942659739404917
1761131779293437200,9.343437255859374,0.03565925732254982,0.0009926559869199991,-0.004505131393671036
1761131779303437300,9.353437255859374,0.039324451237916946,-0.0038942659739404917,-0.012446379289031029
1761131779313437200,9.363437255859376,0.03871358558535576,0.00038179077091626823,-0.025274548679590225
1761131779323437300,9.373437255859375,0.028939740732312202,0.010155634954571724,-0.03321579843759537
1761131779333437200,9.383437255859375,0.022831087931990623,0.013209961354732513,-0.03871358558535576
1761131779343438000,9.39343798828125,0.021609358489513397,0.008323038928210735,-0.036880988627672195
1761131779353438200,9.403438232421875,0.025885414332151413,-0.0020616701804101467,-0.031383201479911804
1761131779363438000,9.41343798828125,0.025885414332151413,-0.008170322515070438,-0.030772335827350616
1761131779373438200,9.423438232421875,0.025274548679590225,-0.006337726954370737,-0.03504839166998863
1761131779383438000,9.43343798828125,0.030161472037434578,0.0034361169673502445,-0.03749185428023338
1761131779393438200,9.443438232421874,0.03443752974271774,0.01687515154480934,-0.03627012297511101
1761131779403438000,9.45343798828125,0.03443752974271774,0.02054034359753132,-0.03260493278503418
1761131779413438200,9.463438232421876,0.031383201479911804,0.01687515154480934,-0.030772335827350616
1761131779423438000,9.47343798828125,0.019165897741913795,0.009544769302010536,-0.052152618765830994
1761131779433438200,9.483438232421875,0.030772335827350616,-0.017333300784230232,-0.06925684958696365
1761131779443437300,9.493437255859375,0.03810271993279457,-0.000839939690195024,-0.10102184116840363
1761131779453437400,9.5034375,0.045433104038238525,0.0034361169673502445,-0.14011721312999725
1761131779463437300,9.513437255859374,0.054596081376075745,0.011377365328371525,-0.17066048085689545
1761131779473437400,9.5234375,0.05093089118599892,0.011377365328371525,-0.18043431639671326
1761131779483437300,9.533437255859376,0.045433104038238525,0.011377365328371525,-0.1737148016691208
1761131779493437400,9.5434375,0.04726569727063179,0.0034361169673502445,-0.1584431678056717
1761131779503437300,9.553437255859375,0.05032002553343773,-0.002672535367310047,-0.14133894443511963
1761131779513437400,9.5634375,0.05093089118599892,0.0016035212902352214,-0.13034337759017944
1761131779523437300,9.573437255859375,0.052152618765830994,0.006490443367511034,-0.1278999149799347
1761131779533437400,9.5834375,0.05581781268119812,0.0071013085544109344,-0.13339769840240479
1761131779543438300,9.593438232421875,0.060704734176397324,0.004657847341150045,-0.1419498175382614
1761131779553438200,9.603438232421874,0.0668133869767189,-0.000839939690195024,-0.14928019046783447
1761131779563438300,9.613438232421874,0.07047858089208603,-0.005115996580570936,-0.14622586965560913
1761131779573438200,9.623438232421876,0.06559165567159653,-0.000839939690195024,-0.13400855660438538
1761131779583438000,9.63343798828125,0.03565925732254982,0.018707748502492905,-0.09796751290559769
1761131779593438200,9.643438232421875,-0.03520110994577408,0.04314235970377922,-0.033826664090156555
1761131779603438300,9.653438232421875,-0.0797942727804184,0.011988230049610138,-0.014278975315392017
1761131779613438200,9.663438232421875,-0.11033753305673599,-0.004505131393671036,0.027870727702975273
1761131779623438000,9.67343798828125,-0.08712465316057205,-0.031383201479911804,0.04008803144097328
1761131779633438200,9.683438232421874,-0.027870727702975273,-0.0069485921412706375,0.011377365328371525
1761131779643437300,9.693437255859376,0.05276348441839218,-0.013057244941592216,-0.03260493278503418
1761131779653437200,9.703437255859376,0.13400855660438538,-0.016111571341753006,-0.082085020840168
1761131779663437300,9.713437255859375,0.11934779584407806,-0.04054617881774902,-0.08819366991519928
1761131779673437200,9.723437255859375,0.0924697294831276,-0.07780896127223969,-0.09857837855815887
1761131779683437300,9.733437255859375,0.04726569727063179,-0.09002626687288284,-0.10835222154855728
1761131779693437200,9.743437255859375,0.028328875079751015,-0.10163270682096481,-0.11018481850624084
1761131779703437300,9.753437255859374,0.04115704447031021,-0.08758280426263809,-0.09980010986328125
1761131779713437200,9.763437255859374,0.07780896127223969,-0.06925684958696365,-0.07475463300943375
1761131779723437300,9.773437255859376,0.11018481850624084,-0.04482223838567734,-0.051541756838560104
1761131779733437200,9.783437255859376,0.12179125845432281,-0.03627012297511101,-0.04115704447031021
1761131779743438000,9.79343798828125,0.11323914676904678,-0.031383201479911804,-0.03443752974271774
1761131779753438200,9.803438232421875,0.08147415518760681,-0.024663684889674187,-0.027718011289834976
1761131779763438000,9.81343798828125,0.0466548316180706,-0.057650405913591385,-0.016111571341753006
1761131779773438200,9.823438232421875,0.03565925732254982,-0.07047858089208603,0.006490443367511034
1761131779783438000,9.83343798828125,0.048487428575754166,-0.04237877577543259,0.03214678168296814
1761131779793438200,9.843438232421875,0.07414376735687256,0.004657847341150045,0.060246583074331284
1761131779803438000,9.85343798828125,0.07903069257736206,0.04375322163105011,0.09017898142337799
1761131779813438200,9.863438232421874,0.06375905871391296,0.0645226389169693,0.11644618958234787
1761131779823438000,9.87343798828125,0.04970915988087654,0.06391177326440811,0.12744176387786865
1761131779833438200,9.883438232421875,0.05520694702863693,0.05230533704161644,0.12072224169969559
1761131779843437300,9.893437255859375,0.04787656292319298,0.04375322163105011,0.10361801832914352
1761131779853437400,9.9034375,0.048487428575754166,0.012599095702171326,0.09628763794898987
1761131779863437300,9.913437255859375,0.05032002553343773,-0.008170322515070438,0.09017898142337799
1761131779873437400,9.9234375,0.0466548316180706,-0.008781188167631626,0.0846811980009079
1761131779883437300,9.933437255859374,0.03199406713247299,-0.01366810966283083,0.08345946669578552
1761131779893437400,9.9434375,0.021609358489513397,-0.0069485921412706375,0.0846811980009079
1761131779903437300,9.953437255859376,0.014278975315392017,-0.0032834007870405912,0.0846811980009079
1761131779913437400,9.9634375,0.01366810966283083,-0.00022907447419129312,0.08590292185544968
1761131779923437300,9.973437255859375,0.013057244941592216,0.002825251780450344,0.0895681157708168
1761131779933437400,9.9834375,0.008781188167631626,0.00038179077091626823,0.09262244403362274
1761131779943438000,9.99343798828125,-0.0009926559869199991,0.0016035212902352214,0.08895725011825562
1761131779953438200,10.003438232421875,-0.013209961354732513,0.007712173741310835,0.07612907886505127
1761131779963438000,10.01343798828125,-0.03275764733552933,-0.008170322515070438,0.051083605736494064
1761131779973438200,10.023438232421874,-0.0290924571454525,-0.02344195358455181,0.024816401302814484
1761131779983438000,10.03343798828125,-0.025427265092730522,-0.03199406713247299,0.0022143865935504436
1761131779993438200,10.043438232421876,-0.021762074902653694,-0.019165897741913795,-0.007559457328170538
1761131780003438300,10.053438232421875,-0.01992947794497013,-0.014278975315392017,-0.017333300784230232
1761131780013438200,10.063438232421875,-0.01992947794497013,-0.007559457328170538,-0.028939740732312202
1761131780023438300,10.073438232421875,-0.0290924571454525,0.0034361169673502445,-0.033826664090156555
1761131780033438200,10.083438232421875,-0.036422841250896454,0.004657847341150045,-0.03199406713247299
1761131780043437300,10.093437255859374,-0.04008803144097328,-0.0014508049935102463,-0.0264962799847126
1761131780053437400,10.1034375,-0.04375322163105011,-0.005726861767470837,-0.019776761531829834
1761131780063437300,10.113437255859376,-0.05169447138905525,-0.0038942659739404917,-0.02099849283695221
1761131780073437400,10.1234375,-0.048029281198978424,-0.022831087931990623,-0.024663684889674187
1761131780083437300,10.133437255859375,-0.03459024429321289,-0.01488984003663063,-0.03443752974271774
1761131780093437400,10.1434375,-0.019318614155054092,-0.002672535367310047,-0.036880988627672195
1761131780103437300,10.153437255859375,-0.010155634954571724,-0.0014508049935102463,-0.028939740732312202
1761131780113437400,10.1634375,-0.016264287754893303,0.005879578180611134,-0.01061378326267004
1761131780123437300,10.173437255859374,-0.016264287754893303,0.0071013085544109344,0.0009926559869199991
1761131780133437400,10.1834375,-0.008933904580771923,0.013820826075971127,0.005879578180611134
1761131780143438000,10.19343798828125,0.0038942659739404917,0.015042556449770927,0.0071013085544109344
1761131780153438200,10.203438232421876,0.02099849283695221,0.009544769302010536,0.0034361169673502445
1761131780163438000,10.21343798828125,0.03443752974271774,-0.007559457328170538,-0.00022907447419129312
1761131780173438200,10.223438232421875,0.04909829422831535,-0.024663684889674187,-0.005726861767470837
1761131780183438000,10.23343798828125,0.0619264654815197,-0.04115704447031021,-0.008170322515070438
1761131780193438200,10.243438232421875,0.06986771523952484,-0.04909829422831535,-0.012446379289031029
1761131780203438000,10.25343798828125,0.07597636431455612,-0.0466548316180706,-0.022220224142074585
1761131780213438200,10.263438232421874,0.07964155822992325,-0.06375905871391296,-0.033826664090156555
1761131780223438000,10.27343798828125,0.09124799817800522,-0.06375905871391296,-0.039935316890478134
1761131780233438200,10.283438232421876,0.10102184116840363,-0.05887213721871376,-0.0466548316180706
1761131780243437300,10.293437255859375,0.10957395285367966,-0.05581781268119812,-0.04909829422831535
1761131780253437200,10.303437255859375,0.10957395285367966,-0.05093089118599892,-0.05337435007095337
1761131780263437300,10.313437255859375,0.10896308720111847,-0.03871358558535576,-0.05581781268119812
1761131780273437200,10.323437255859375,0.11079568415880203,-0.018555032089352608,-0.05887213721871376
1761131780283437300,10.333437255859375,0.10896308720111847,0.0009926559869199991,-0.05948300287127495
1761131780293437200,10.343437255859374,0.10407616943120956,0.015653422102332115,-0.06131559982895851
1761131780303437300,10.353437255859374,0.09980010986328125,0.025427265092730522,-0.06864598393440247
1761131780313437200,10.363437255859376,0.09796751290559769,0.03520110994577408,-0.072311170399189
1761131780323437300,10.373437255859375,0.09857837855815887,0.047418415546417236,-0.06925684958696365
1761131780333437200,10.383437255859375,0.09980010986328125,0.06085744872689247,-0.06803511828184128
1761131780343438000,10.39343798828125,0.09857837855815887,0.0742964819073677,-0.0668133869767189
1761131780353438200,10.403438232421875,0.09613491594791412,0.09506590664386749,-0.051541756838560104
1761131780363438300,10.413438232421875,0.09796751290559769,0.10850493609905243,-0.03260493278503418
1761131780373438200,10.423438232421875,0.09857837855815887,0.12316570430994034,-0.011835514567792416
1761131780383438300,10.433438232421874,0.102243572473526,0.1359938681125641,0.009544769302010536
1761131780393438200,10.443438232421874,0.09918924421072006,0.14698944985866547,0.0290924571454525
1761131780403438300,10.453438232421876,0.09674578160047531,0.1506546437740326,0.04253149405121803
1761131780413438200,10.463438232421876,0.09124799817800522,0.14760030806064606,0.05230533704161644
1761131780433438200,10.483438232421875,0.09124799817800522,0.13843733072280884,0.051083605736494064
1761131780443437600,10.4934375,0.09980010986328125,0.12927435338497162,0.044974952936172485
1761131780453437400,10.5034375,0.10346530377864838,0.11644618958234787,0.04314235970377922
1761131780463437600,10.5134375,0.1071304902434349,0.10117455571889877,0.04253149405121803
1761131780473437400,10.5234375,0.11018481850624084,0.09201157838106155,0.04253149405121803
1761131780483437600,10.5334375,0.10957395285367966,0.08529205620288849,0.04375322163105011
1761131780493437400,10.5434375,0.10407616943120956,0.07918340712785721,0.0492510087788105
1761131780503437600,10.5534375,0.09674578160047531,0.0742964819073677,0.05535966157913208
1761131780513437400,10.5634375,0.09308059513568878,0.0749073475599289,0.059635721147060394
1761131780523437600,10.5734375,0.09308059513568878,0.0797942727804184,0.05902485549449921
1761131780533437400,10.5834375,0.09491318464279175,0.08101600408554077,0.05841398984193802
1761131780543438300,10.593438232421875,0.08941540122032166,0.07246389240026474,0.05780312418937683
1761131780553438500,10.6034384765625,0.08880453556776047,0.06207918003201485,0.051083605736494064
1761131780563438300,10.613438232421874,0.09063713252544403,0.05291620269417763,0.03703370690345764
1761131780573438500,10.6234384765625,0.09918924421072006,0.039477165788412094,0.024205535650253296
1761131780583438300,10.633438232421875,0.10346530377864838,0.01992947794497013,0.01748601719737053
1761131780593438500,10.6434384765625,0.09857837855815887,0.010155634954571724,0.01748601719737053
1761131780603438300,10.653438232421875,0.09002626687288284,0.004657847341150045,0.019318614155054092
1761131780613438500,10.6634384765625,0.07780896127223969,0.00038179077091626823,0.02298380434513092
1761131780623438300,10.673438232421875,0.06864598393440247,-0.0020616701804101467,0.030314188450574875
1761131780633438500,10.6834384765625,0.06131559982895851,0.0022143865935504436,0.035811975598335266
1761131780643437600,10.6934375,0.052152618765830994,0.010766499675810337,0.04130976274609566
1761131780653437400,10.7034375,0.039324451237916946,0.018707748502492905,0.044974952936172485
1761131780663437600,10.7134375,0.028939740732312202,0.01687515154480934,0.04619668424129486
1761131780673437400,10.7234375,0.025274548679590225,0.009544769302010536,0.04008803144097328
1761131780683437600,10.7334375,0.021609358489513397,-0.002672535367310047,0.035811975598335266
1761131780693437400,10.7434375,0.017333300784230232,-0.01366810966283083,0.03275764733552933
1761131780703437300,10.753437255859374,0.011224648915231228,-0.012446379289031029,0.02298380434513092
1761131780713437400,10.7634375,-0.00038179077091626823,-0.005726861767470837,0.010155634954571724
1761131780723437300,10.773437255859376,-0.015042556449770927,0.00038179077091626823,0.005879578180611134
1761131780733437400,10.7834375,-0.022372938692569733,0.005879578180611134,0.014431691728532314
1761131780743438000,10.79343798828125,-0.027259862050414085,0.005879578180611134,0.023594669997692108
1761131780753438200,10.803438232421875,-0.036422841250896454,0.0016035212902352214,0.03214678168296814
1761131780763438000,10.81343798828125,-0.044974952936172485,-0.0032834007870405912,0.041920628398656845
1761131780773438200,10.823438232421875,-0.051083605736494064,-0.0069485921412706375,0.04130976274609566
1761131780783438000,10.83343798828125,-0.0541379339993,-0.01061378326267004,0.03459024429321289
1761131780793438200,10.843438232421875,-0.0541379339993,-0.015500705689191818,0.024205535650253296
1761131780803438000,10.85343798828125,-0.0541379339993,-0.025274548679590225,0.01992947794497013
1761131780813438200,10.863438232421874,-0.05780312418937683,-0.03321579843759537,0.024816401302814484
1761131780823438000,10.87343798828125,-0.05902485549449921,-0.03321579843759537,0.0290924571454525
1761131780833438200,10.883438232421875,-0.060246583074331284,-0.03565925732254982,0.03214678168296814
1761131780843437300,10.893437255859375,-0.0645226389169693,-0.0417679101228714,0.030925052240490913
1761131780853437400,10.9034375,-0.06757696717977524,-0.052152618765830994,0.027870727702975273
1761131780863437300,10.913437255859375,-0.06696610152721405,-0.06314819306135178,0.02298380434513092
1761131780873437400,10.9234375,-0.06757696717977524,-0.06986771523952484,0.024816401302814484
1761131780883437300,10.933437255859374,-0.06391177326440811,-0.072311170399189,0.035811975598335266
1761131780893437400,10.9434375,-0.06513350456953049,-0.06864598393440247,0.047418415546417236
1761131780903437300,10.953437255859376,-0.0694095641374588,-0.06314819306135178,0.056581392884254456
1761131780913437400,10.9634375,-0.07551821321249008,-0.05948300287127495,0.05780312418937683
1761131780923437300,10.973437255859375,-0.08162686973810196,-0.06131559982895851,0.05169447138905525
1761131780933437400,10.9834375,-0.0846811980009079,-0.0668133869767189,0.041920628398656845
1761131780943438000,10.99343798828125,-0.08407033234834671,-0.08025242388248444,0.030925052240490913
1761131780953438200,11.003438232421875,-0.08284860104322433,-0.08819366991519928,0.02054034359753132
1761131780963438000,11.01343798828125,-0.08223773539066315,-0.09002626687288284,0.015042556449770927
1761131780973438200,11.023438232421874,-0.07918340712785721,-0.082085020840168,0.018707748502492905
1761131780983438000,11.03343798828125,-0.07857254147529602,-0.07108944654464722,0.025427265092730522
1761131780993438200,11.043438232421876,-0.07857254147529602,-0.057650405913591385,0.03703370690345764
1761131781003438300,11.053438232421875,-0.08223773539066315,-0.04604396969079971,0.04986187443137169
1761131781013438200,11.063438232421875,-0.08712465316057205,-0.0417679101228714,0.06269004940986633
1761131781023438300,11.073438232421875,-0.08773551881313324,-0.0417679101228714,0.06879869848489761
1761131781033438200,11.083438232421875,-0.08834638446569443,-0.04421137273311615,0.07246389240026474
1761131781043437300,11.093437255859374,-0.08895725011825562,-0.0466548316180706,0.07246389240026474
1761131781053437400,11.1034375,-0.09262244403362274,-0.04115704447031021,0.07063129544258118
1761131781063437300,11.113437255859376,-0.08651378750801086,-0.04604396969079971,0.06146831437945366
1761131781073437400,11.1234375,-0.07612907886505127,-0.048487428575754166,0.05230533704161644
1761131781083437300,11.133437255859375,-0.06757696717977524,-0.05581781268119812,0.04558581858873367
1761131781093437400,11.1434375,-0.06269004940986633,-0.060093868523836136,0.036422841250896454
1761131781103437300,11.153437255859375,-0.05719225853681564,-0.05520694702863693,0.03153591975569725
1761131781113437400,11.1634375,-0.05780312418937683,-0.04909829422831535,0.03520110994577408
1761131781123437300,11.173437255859374,-0.05902485549449921,-0.03565925732254982,0.038866300135850906
1761131781133437400,11.1834375,-0.05780312418937683,-0.02038762718439102,0.04864014685153961
1761131781143438000,11.19343798828125,-0.05169447138905525,-0.011835514567792416,0.05597052723169327
1761131781153438200,11.203438232421876,-0.047418415546417236,-0.013057244941592216,0.06269004940986633
1761131781163438000,11.21343798828125,-0.04253149405121803,-0.017333300784230232,0.06757696717977524
1761131781173438200,11.223438232421875,-0.039477165788412094,-0.019776761531829834,0.0694095641374588
1761131781183438000,11.23343798828125,-0.03214678168296814,-0.021609358489513397,0.06879869848489761
1761131781193438200,11.243438232421875,-0.026648996397852898,-0.01488984003663063,0.06879869848489761
1761131781203438000,11.25343798828125,-0.02054034359753132,-0.008781188167631626,0.06757696717977524
1761131781213438200,11.263438232421874,-0.015042556449770927,-0.012446379289031029,0.07063129544258118
1761131781223438000,11.27343798828125,-0.013820826075971127,-0.018555032089352608,0.07673994451761246
1761131781233438200,11.283438232421876,-0.014431691728532314,-0.019776761531829834,0.08284860104322433
1761131781243437300,11.293437255859375,-0.010155634954571724,-0.013057244941592216,0.08590292185544968
1761131781253437400,11.3034375,-0.004657847341150045,-0.00022907447419129312,0.08895725011825562
1761131781263437300,11.313437255859375,-0.00038179077091626823,0.011377365328371525,0.09017898142337799
1761131781273437400,11.3234375,0.008781188167631626,0.015653422102332115,0.08529205620288849
1761131781283437300,11.333437255859375,0.01366810966283083,0.0071013085544109344,0.08712465316057205
1761131781293437400,11.3434375,0.016722436994314194,-0.006337726954370737,0.08834638446569443
1761131781303437300,11.353437255859374,0.019165897741913795,-0.011835514567792416,0.08223773539066315
1761131781313437200,11.363437255859376,0.019776761531829834,-0.014278975315392017,0.07002042979001999
1761131781323437300,11.373437255859375,0.024052819237113,-0.012446379289031029,0.06269004940986633
1761131781333437200,11.383437255859375,0.0264962799847126,-0.013057244941592216,0.06146831437945366
1761131781343438000,11.39343798828125,0.024052819237113,-0.007559457328170538,0.06696610152721405
1761131781353438200,11.403438232421875,0.019776761531829834,-0.00022907447419129312,0.07368562370538712
1761131781363438300,11.413438232421875,0.016111571341753006,0.007712173741310835,0.07612907886505127
1761131781373438200,11.423438232421875,0.012446379289031029,0.014431691728532314,0.07796167582273483
1761131781383438300,11.433438232421874,0.013057244941592216,0.013820826075971127,0.07612907886505127
1761131781393438200,11.443438232421874,0.01366810966283083,0.004046982154250145,0.06757696717977524
1761131781403438300,11.453438232421876,0.01366810966283083,-0.005115996580570936,0.05719225853681564
1761131781413438200,11.463438232421876,0.011835514567792416,-0.005726861767470837,0.04680754989385605
1761131781423438300,11.473438232421875,0.007559457328170538,0.0016035212902352214,0.038866300135850906
1761131781433438200,11.483438232421875,0.000839939690195024,0.006490443367511034,0.03764457255601883
1761131781443437300,11.493437255859375,-0.009544769302010536,0.010766499675810337,0.04314235970377922
1761131781453437200,11.503437255859374,-0.01687515154480934,0.010766499675810337,0.04314235970377922
1761131781463437300,11.513437255859374,-0.02298380434513092,0.007712173741310835,0.04314235970377922
1761131781473437200,11.523437255859376,-0.023594669997692108,-0.00022907447419129312,0.04314235970377922
1761131781483437300,11.533437255859376,-0.025427265092730522,-0.006337726954370737,0.04069889709353447
1761131781493437200,11.543437255859375,-0.0339793786406517,-0.0069485921412706375,0.035811975598335266
1761131781503437300,11.553437255859375,-0.04008803144097328,0.004046982154250145,0.022372938692569733
1761131781513437200,11.563437255859375,-0.04619668424129486,0.007712173741310835,0.015042556449770927
1761131781523437300,11.573437255859375,-0.048029281198978424,0.008323038928210735,0.0016035212902352214
1761131781533437200,11.583437255859375,-0.047418415546417236,0.011377365328371525,-0.011224648915231228
1761131781543438000,11.59343798828125,-0.04253149405121803,0.0071013085544109344,-0.024663684889674187
1761131781553438200,11.603438232421874,-0.036422841250896454,-0.0038942659739404917,-0.03504839166998863
1761131781563438000,11.61343798828125,-0.033368512988090515,-0.005726861767470837,-0.04054617881774902
1761131781573438200,11.623438232421876,-0.029703322798013687,-0.0069485921412706375,-0.04421137273311615
1761131781583438000,11.63343798828125,-0.030925052240490913,-0.0069485921412706375,-0.045433104038238525
1761131781593438200,11.643438232421875,-0.030925052240490913,-0.002672535367310047,-0.04360050708055496
1761131781603438000,11.65343798828125,-0.03275764733552933,-0.0020616701804101467,-0.04360050708055496
1761131781613438200,11.663438232421875,-0.03520110994577408,-0.005115996580570936,-0.04482223838567734
1761131781623438000,11.67343798828125,-0.035811975598335266,-0.0038942659739404917,-0.04115704447031021
1761131781633438200,11.683438232421874,-0.0339793786406517,-0.0014508049935102463,-0.03443752974271774
1761131781643437300,11.693437255859376,-0.03275764733552933,-0.0020616701804101467,-0.02710714563727379
1761131781653437200,11.703437255859376,-0.03153591975569725,0.0016035212902352214,-0.01366810966283083
1761131781663437300,11.713437255859375,-0.030925052240490913,0.005879578180611134,-0.00022907447419129312
1761131781673437200,11.723437255859375,-0.029703322798013687,0.008323038928210735,0.010766499675810337
1761131781683437300,11.733437255859375,-0.0290924571454525,0.010766499675810337,0.015653422102332115
1761131781693437200,11.743437255859375,-0.027870727702975273,0.009544769302010536,0.016264287754893303
1761131781703437300,11.753437255859374,-0.024205535650253296,0.005879578180611134,0.015042556449770927
1761131781713437200,11.763437255859374,-0.030925052240490913,0.0071013085544109344,0.004046982154250145
1761131781723437300,11.773437255859376,-0.03703370690345764,-0.0264962799847126,-0.0020616701804101467
1761131781733437200,11.783437255859376,-0.035811975598335266,-0.030161472037434578,-0.0038942659739404917
1761131781743438000,11.79343798828125,0.00022907447419129312,-0.030161472037434578,-0.018555032089352608
1761131781753438200,11.803438232421875,0.007559457328170538,-0.02710714563727379,-0.024052819237113
1761131781763438000,11.81343798828125,0.00022907447419129312,-0.016111571341753006,-0.017333300784230232
1761131781773438200,11.823438232421875,-0.010766499675810337,-0.0014508049935102463,-0.010002918541431427
1761131781783438000,11.83343798828125,-0.01687515154480934,0.013820826075971127,-0.0020616701804101467
1761131781793438200,11.843438232421875,-0.021151209250092506,0.018096882849931717,0.006490443367511034
1761131781803438000,11.85343798828125,-0.021762074902653694,0.010155634954571724,0.012599095702171326
1761131781813438200,11.863438232421874,-0.014431691728532314,0.0022143865935504436,0.011988230049610138
1761131781823438000,11.87343798828125,-0.006490443367511034,-0.0069485921412706375,0.008323038928210735
1761131781833438200,11.883438232421875,0.000839939690195024,-0.011835514567792416,0.005879578180611134
1761131781843437300,11.893437255859375,0.000839939690195024,-0.012446379289031029,0.006490443367511034
1761131781853437400,11.9034375,-0.0022143865935504436,-0.011224648915231228,0.0034361169673502445
1761131781863437300,11.913437255859375,-0.002825251780450344,-0.008781188167631626,0.00038179077091626823
1761131781873437400,11.9234375,-0.005268712528049946,-0.0038942659739404917,0.00038179077091626823
1761131781883437300,11.933437255859374,-0.005268712528049946,-0.000839939690195024,-0.0020616701804101467
1761131781893437400,11.9434375,-0.005879578180611134,0.0009926559869199991,-0.006337726954370737
1761131781903437300,11.953437255859376,-0.002825251780450344,0.005268712528049946,-0.010002918541431427
1761131781913437200,11.963437255859375,0.005115996580570936,0.008933904580771923,-0.005726861767470837
1761131781923437300,11.973437255859375,0.010002918541431427,0.013209961354732513,-0.000839939690195024
1761131781933437200,11.983437255859375,0.00939205288887024,0.01687515154480934,0.0016035212902352214
1761131781943438000,11.99343798828125,0.010002918541431427,0.013820826075971127,0.0034361169673502445
1761131781953438200,12.003438232421875,0.01061378326267004,0.005268712528049946,0.004657847341150045
1761131781963438000,12.01343798828125,0.008170322515070438,-0.0020616701804101467,0.004657847341150045
1761131781973438200,12.023438232421874,0.01061378326267004,-0.002672535367310047,0.008933904580771923
1761131781983438000,12.03343798828125,0.012446379289031029,-0.000839939690195024,0.0071013085544109344
1761131781993438200,12.043438232421876,0.011835514567792416,0.0022143865935504436,0.004657847341150045
1761131782003438000,12.05343798828125,0.011224648915231228,0.006490443367511034,0.004046982154250145
