time,seconds_elapsed,z,y,x
1761131793068880100,0.128880126953125,2.5180768966674805,0.18962883949279785,0.06768614053726196
1761131793088880000,0.148880126953125,2.5453128814697266,0.1127556562423706,0.20397573709487915
1761131793098880000,0.1588798828125,2.558856964111328,0.07954370975494385,0.2719254493713379
1761131793108880100,0.168880126953125,2.572673797607422,0.04817831516265869,0.3401294946670532
1761131793118880000,0.1788798828125,2.5748462677001953,0.05204808712005615,0.3657982349395752
1761131793128880000,0.188880126953125,2.575259208679199,0.06253886222839355,0.3872973918914795
1761131793138880000,0.1988798828125,2.5740365982055664,0.07924628257751465,0.4050617218017578
1761131793148880100,0.208880126953125,2.571202278137207,0.10169148445129395,0.41839301586151123
1761131793158880000,0.2188798828125,2.5670166015625,0.1287785768508911,0.42748939990997314
1761131793168880000,0.228880126953125,2.5622177124023438,0.1586524248123169,0.4352344274520874
1761131793178880300,0.23888037109375,2.5578813552856445,0.1886577606201172,0.44606637954711914
1761131793188880100,0.248880126953125,2.554642677307129,0.21729421615600586,0.46274280548095703
1761131793198880300,0.25888037109375,2.5526418685913086,0.2437969446182251,0.4851377010345459
1761131793208880400,0.26888037109375,2.5512590408325195,0.2689838409423828,0.5094833374023438
1761131793218880300,0.27888037109375,2.5507402420043945,0.2919377088546753,0.5363796949386597
1761131793228880400,0.28888037109375,2.5511388778686523,0.3116053342819214,0.5648343563079834
1761131793238878700,0.298878662109375,2.55277156829834,0.32646477222442627,0.5952621698379517
1761131793248878600,0.308878662109375,2.556211471557617,0.33457040786743164,0.6293470859527588
1761131793258878700,0.318878662109375,2.5618467330932617,0.33516108989715576,0.668657660484314
1761131793268878600,0.328878662109375,2.56935977935791,0.32894790172576904,0.7114804983139038
1761131793278878700,0.338878662109375,2.578226089477539,0.3172396421432495,0.7555444240570068
1761131793288878600,0.348878662109375,2.5873851776123047,0.30236005783081055,0.7965571880340576
1761131793298878700,0.358878662109375,-0.4829683303833008,1.965675950050354,1.0338537693023682
1761131793308878600,0.368878662109375,-0.5305986404418945,2.0202598571777344,1.1319931745529175
1761131793318878700,0.378878662109375,-0.4004955291748047,1.998709797859192,1.3607735633850098
1761131793328878600,0.388878662109375,-0.1606903076171875,1.9130080938339233,1.7340965270996094
1761131793338878700,0.398878662109375,0.34327220916748047,1.7754089832305908,2.006483793258667
1761131793348878600,0.408878662109375,0.9102840423583984,1.5411980152130127,2.269606113433838
1761131793358878700,0.418878662109375,0.9025945663452148,1.5700925588607788,2.2543811798095703
1761131793368878600,0.428878662109375,1.6492929458618164,0.8875881433486938,2.045478343963623
1761131793378878700,0.438878662109375,1.54638671875,0.6264404058456421,1.5335628986358643
1761131793388878600,0.448878662109375,1.1183786392211914,0.5032947063446045,0.9700071215629578
1761131793398878700,0.458878662109375,0.5632343292236328,0.6199662685394287,0.42951810359954834
1761131793408878600,0.468878662109375,0.0055332183837890625,0.9655818939208984,-0.09307825565338135
1761131793418878700,0.478878662109375,0.02557086944580078,0.9469864368438721,-0.004557251930236816
1761131793428878600,0.488878662109375,-0.9108715057373047,2.2359488010406494,-1.1020833253860474
1761131793438878000,0.4988779296875,-1.3461122512817383,2.7856273651123047,-1.0644052028656006
1761131793448877800,0.5088779296875,-1.3037137985229492,2.790487289428711,-0.3355729579925537
1761131793458878000,0.5188779296875,-0.4096803665161133,2.381150722503662,1.1168164014816284
1761131793468877800,0.5288779296875,1.3589963912963867,1.7465693950653076,2.773341178894043
1761131793478877700,0.538877685546875,3.518866539001465,1.0056309700012207,4.269832611083984
1761131793488877800,0.5488779296875,4.94761848449707,0.16060888767242432,5.009002685546875
1761131793498877700,0.558877685546875,5.4849443435668945,-0.6543737053871155,4.752892971038818
1761131793508877800,0.5688779296875,4.560944557189941,-1.2440454959869385,3.264345169067383
1761131793518877700,0.578877685546875,2.3672571182250977,-0.9105237722396851,1.012154221534729
1761131793528877800,0.5888779296875,1.243901252746582,-0.4621567726135254,-0.26278817653656006
1761131793538878700,0.598878662109375,0.11538887023925781,0.13615602254867554,-1.1166123151779175
1761131793548878600,0.608878662109375,-0.5887947082519531,0.4123668074607849,-1.3174482583999634
1761131793558878700,0.618878662109375,-1.3586416244506836,0.6533294916152954,-1.3159959316253662
1761131793568878600,0.628878662109375,-1.7241086959838867,0.9443627595901489,-1.0059102773666382
1761131793578878700,0.638878662109375,-1.7956557273864746,1.2156398296356201,-0.4195399284362793
1761131793588878600,0.648878662109375,-1.6214075088500977,1.4122624397277832,0.4287835359573364
1761131793598878700,0.658878662109375,-1.7261271476745605,1.7840511798858643,1.0397430658340454
1761131793608878600,0.668878662109375,-2.1449012756347656,2.1815731525421143,1.137799859046936
1761131793618878700,0.678878662109375,-2.565816879272461,2.281527042388916,1.4219218492507935
1761131793628878600,0.688878662109375,-2.8202686309814453,1.9377752542495728,1.9723964929580688
1761131793638877700,0.698877685546875,-2.5709142684936523,1.44340181350708,2.561540365219116
1761131793648877800,0.7088779296875,-1.7412190437316895,0.9656943082809448,2.9563066959381104
1761131793658877700,0.718877685546875,-0.2943248748779297,0.5936392545700073,3.1484460830688477
1761131793668877800,0.7288779296875,1.0316104888916016,0.12052774429321289,3.120790719985962
1761131793678877700,0.738877685546875,1.8646278381347656,-0.3655434846878052,2.721116542816162
1761131793688877800,0.7488779296875,2.146421432495117,-0.5987182259559631,1.9111214876174927
1761131793698877700,0.758877685546875,1.663055419921875,-0.6140526533126831,0.7525419592857361
1761131793708877800,0.7688779296875,0.8067216873168945,-0.5298818349838257,-0.3139357566833496
1761131793718877700,0.778877685546875,0.24428558349609375,-0.20139621198177338,-0.9501079320907593
1761131793728877800,0.7888779296875,-0.16009235382080078,0.19159159064292908,-1.3352504968643188
1761131793738878700,0.798878662109375,-0.45304012298583984,0.5247220993041992,-1.2433881759643555
1761131793748878600,0.808878662109375,-0.6259183883666992,0.7030026912689209,-0.7606645822525024
1761131793758878700,0.818878662109375,-0.7456693649291992,0.8419492840766907,-0.0017020702362060547
1761131793768878600,0.828878662109375,-0.852137565612793,1.0395737886428833,0.8918075561523438
1761131793778878700,0.838878662109375,-0.9768028259277344,1.3318134546279907,1.4575200080871582
1761131793788878600,0.848878662109375,-1.4015750885009766,1.7209773063659668,1.4975892305374146
1761131793798878700,0.858878662109375,-2.0376577377319336,2.009143829345703,1.3793971538543701
1761131793808878600,0.868878662109375,-2.6445279121398926,2.091157913208008,1.2144478559494019
1761131793818878700,0.878878662109375,-2.981754779815674,2.100198745727539,1.0499542951583862
1761131793828878600,0.888878662109375,-3.0346274375915527,2.126126766204834,0.8295730352401733
1761131793838877700,0.898877685546875,-2.752923011779785,2.1320955753326416,0.5862389802932739
1761131793848877800,0.9088779296875,-2.120025634765625,2.0802724361419678,0.3344848155975342
1761131793858877700,0.918877685546875,-1.308232307434082,2.0225043296813965,0.23195838928222656
1761131793868877600,0.928877685546875,-0.5281047821044922,1.9041441679000854,0.25307750701904297
1761131793878877700,0.938877685546875,0.19463348388671875,1.8212590217590332,0.288189172744751
1761131793888877600,0.948877685546875,0.7604513168334961,1.7569291591644287,0.24989581108093262
1761131793898877700,0.958877685546875,1.1862916946411133,1.7941111326217651,0.10946094989776611
1761131793908877800,0.9688779296875,1.4911308288574219,1.8369938135147095,0.04376542568206787
1761131793918877700,0.978877685546875,1.7225170135498047,1.8137404918670654,0.04731893539428711
1761131793928877800,0.9888779296875,1.8896141052246094,1.7464821338653564,0.18104100227355957
1761131793938878700,0.998878662109375,1.9395256042480469,1.680575966835022,0.3077346086502075
1761131793948878600,1.008878662109375,1.8866853713989258,1.7092341184616089,0.42823004722595215
1761131793958878700,1.018878662109375,1.7049551010131836,1.7113516330718994,0.5296019315719604
1761131793968878600,1.028878662109375,1.588139533996582,1.6244715452194214,0.7069485187530518
1761131793978878500,1.03887841796875,1.516737937927246,1.4830714464187622,0.8790239691734314
1761131793988878600,1.048878662109375,1.619797706604004,1.2846723794937134,1.0201518535614014
1761131793998878700,1.058878662109375,1.7515907287597656,1.0478382110595703,1.0483298301696777
1761131794008878600,1.068878662109375,1.8145742416381836,0.9174705147743225,0.9052473306655884
1761131794018878700,1.078878662109375,1.8064985275268555,0.8159213662147522,0.67350172996521
1761131794028878600,1.088878662109375,1.6797218322753906,0.7630305290222168,0.45321226119995117
1761131794038877700,1.098877685546875,1.5036706924438477,0.7553716897964478,0.2973921298980713
1761131794048877800,1.1088779296875,1.3402099609375,0.7529740929603577,0.20846092700958252
1761131794058877700,1.118877685546875,1.2865886688232422,0.8521466851234436,0.2570610046386719
1761131794068878800,1.12887890625,1.2483911514282227,0.9372377991676331,0.40999162197113037
1761131794078879000,1.13887890625,1.1221895217895508,0.9795029759407043,0.6351750493049622
1761131794088878800,1.14887890625,0.9706211090087891,0.9792885780334473,0.9249858856201172
1761131794098879000,1.15887890625,0.875575065612793,0.9804556965827942,1.353950023651123
1761131794108878800,1.16887890625,1.003920555114746,0.8999914526939392,1.9744758605957031
1761131794118879000,1.17887890625,1.5016660690307617,0.7407258152961731,2.6926355361938477
1761131794128878800,1.18887890625,2.0722885131835938,0.47732987999916077,3.05257511138916
1761131794138879700,1.198879638671875,2.6488046646118164,0.2194458544254303,3.113184928894043
1761131794148880000,1.2088798828125,2.9792613983154297,0.01618792861700058,2.6905174255371094
1761131794158879700,1.218879638671875,2.796506881713867,-0.13691763579845428,1.882582664489746
1761131794168879900,1.2288798828125,2.0143375396728516,-0.18005722761154175,0.943113386631012
1761131794178880000,1.2388798828125,0.8715038299560547,-0.09002593159675598,0.13710319995880127
1761131794188880100,1.248880126953125,0.1711893081665039,0.03338010609149933,-0.09494054317474365
1761131794198880300,1.25888037109375,-0.5247220993041992,0.1876264214515686,-0.054880499839782715
1761131794208880000,1.268880126953125,-0.7785911560058594,0.30754926800727844,0.4413960576057434
1761131794218880300,1.27888037109375,-1.189356803894043,0.5017861127853394,0.8126858472824097
1761131794228880100,1.288880126953125,-1.4704866409301758,0.7814580202102661,1.1528211832046509
1761131794238879200,1.298879150390625,-1.809713363647461,0.9307347536087036,1.7016043663024902
1761131794248879400,1.30887939453125,-2.135183334350586,1.0207810401916504,2.2360904216766357
1761131794258879200,1.318879150390625,-2.378612518310547,1.0132408142089844,2.660167694091797
1761131794268879400,1.32887939453125,-2.4874744415283203,0.9226810932159424,2.9626104831695557
1761131794278879200,1.338879150390625,-2.3324618339538574,0.7501528263092041,3.0362801551818848
1761131794288879400,1.34887939453125,-1.6215429306030273,0.5180699825286865,2.7950735092163086
1761131794298879200,1.358879150390625,-0.8668899536132812,0.31041234731674194,2.3636436462402344
1761131794308879000,1.368879150390625,-0.11791515350341797,0.11783897876739502,1.8095791339874268
1761131794318879200,1.378879150390625,0.4469442367553711,-0.0062329769134521484,1.2881289720535278
1761131794328879000,1.388879150390625,0.7996482849121094,-0.10094061493873596,0.8954131603240967
1761131794338880000,1.3988798828125,0.7971134185791016,-0.18827751278877258,0.6485452651977539
1761131794348880100,1.408880126953125,0.5381793975830078,-0.16844341158866882,0.4645887017250061
1761131794358880000,1.4188798828125,0.2067413330078125,-0.0680246353149414,0.36798733472824097
1761131794368878800,1.42887890625,-0.0888671875,0.12266692519187927,0.4732932448387146
1761131794378879000,1.43887890625,-0.3663206100463867,0.31673866510391235,0.7008277177810669
1761131794388878800,1.44887890625,-0.6528530120849609,0.5086060762405396,0.9856235980987549
1761131794398879000,1.45887890625,-0.8841705322265625,0.6910494565963745,1.2031975984573364
1761131794408878800,1.46887890625,-1.2517976760864258,0.8571009635925293,1.3302898406982422
1761131794418879000,1.47887890625,-1.6290321350097656,1.0077259540557861,1.4552758932113647
1761131794428878800,1.48887890625,-1.9607949256896973,1.1310479640960693,1.4850590229034424
1761131794438878200,1.498878173828125,-2.1730127334594727,1.1751699447631836,1.5107791423797607
1761131794448878000,1.508878173828125,-2.2253923416137695,1.199815034866333,1.5523040294647217
1761131794458878200,1.518878173828125,-2.1040568351745605,1.1788630485534668,1.4961458444595337
1761131794468878000,1.528878173828125,-1.756453514099121,1.1805517673492432,1.4601813554763794
1761131794478877700,1.538877685546875,-1.4149484634399414,1.1469789743423462,1.4218493700027466
1761131794488877800,1.5488779296875,-1.0577611923217773,1.0608432292938232,1.3615429401397705
1761131794498877700,1.558877685546875,-0.7655458450317383,1.011705994606018,1.2649028301239014
1761131794512210700,1.572210693359375,-0.5879344940185547,0.9910204410552979,1.1504360437393188
1761131794532210700,1.592210693359375,-0.1605854034423828,1.1158320903778076,0.9097386598587036
1761131794542211600,1.602211669921875,0.14893245697021484,1.2351107597351074,0.8378531336784363
1761131794552211500,1.61221142578125,0.3701000213623047,1.3268544673919678,0.9192433953285217
1761131794562211600,1.622211669921875,0.43079376220703125,1.3709542751312256,1.1344443559646606
1761131794572211500,1.63221142578125,0.3694772720336914,1.452962875366211,1.3376659154891968
1761131794582211600,1.642211669921875,0.1217336654663086,1.667184591293335,1.4389538764953613
1761131794592211500,1.65221142578125,-0.11125373840332031,1.8728890419006348,1.4272476434707642
1761131794602211600,1.662211669921875,-0.2917442321777344,2.0781216621398926,1.4633281230926514
1761131794612211500,1.67221142578125,-0.39860057830810547,2.1991031169891357,1.6590502262115479
1761131794632211500,1.69221142578125,-0.4242210388183594,2.132017135620117,2.254805088043213
1761131794642210600,1.70221044921875,-0.32625389099121094,2.0972132682800293,2.4216222763061523
1761131794652210700,1.712210693359375,-0.016506195068359375,2.02163028717041,2.457239866256714
1761131794662210600,1.72221044921875,0.3946866989135742,1.892521619796753,2.4285295009613037
1761131794672210700,1.732210693359375,0.8905849456787109,1.5835602283477783,2.323779344558716
1761131794682210600,1.74221044921875,1.4093351364135742,1.3367843627929688,2.0708327293395996
1761131794692210700,1.752210693359375,1.9542970657348633,1.0936310291290283,1.7545682191848755
1761131794702210600,1.76221044921875,2.382610321044922,0.8805493712425232,1.429703712463379
1761131794712210700,1.772210693359375,2.5658273696899414,0.7826577425003052,1.220674991607666
1761131794722210600,1.78221044921875,2.5649871826171875,0.8227196931838989,1.2321197986602783
1761131794732210700,1.792210693359375,2.313779830932617,0.7710183262825012,0.6114683151245117
1761131794742211300,1.80221142578125,2.3198986053466797,0.7766857743263245,0.6508492231369019
1761131794752211500,1.81221142578125,1.4721622467041016,1.2879678010940552,0.26020216941833496
1761131794762211300,1.82221142578125,0.8833045959472656,1.5312635898590088,0.38757991790771484
1761131794772211500,1.83221142578125,0.2983531951904297,1.5354514122009277,0.774213433265686
1761131794782211300,1.84221142578125,-0.2789497375488281,1.481346607208252,1.2096155881881714
1761131794792211500,1.85221142578125,-0.7844171524047852,1.572474479675293,1.3633582592010498
1761131794802211600,1.862211669921875,-0.770233154296875,1.4986385107040405,1.4013464450836182
1761131794812211500,1.87221142578125,-1.6274619102478027,2.0250933170318604,1.0395348072052002
1761131794822211600,1.882211669921875,-1.6135377883911133,1.9920543432235718,1.0730257034301758
1761131794832211500,1.89221142578125,-0.8726358413696289,1.6281524896621704,1.4962928295135498
1761131794842210600,1.90221044921875,0.4816150665283203,0.9849517941474915,2.0715689659118652
1761131794852210700,1.912210693359375,2.0498123168945312,0.35865503549575806,2.335355758666992
1761131794862210600,1.92221044921875,3.4143619537353516,-0.10216563940048218,2.1740565299987793
1761131794872210700,1.932210693359375,3.8472537994384766,-0.5560307502746582,1.5347787141799927
1761131794882210600,1.94221044921875,2.8082714080810547,-0.8451319932937622,0.7485404014587402
1761131794892210700,1.952210693359375,2.0899534225463867,-0.9161496758460999,0.40554964542388916
1761131794902210600,1.96221044921875,1.413787841796875,-0.9138021469116211,0.19856035709381104
1761131794912210700,1.972210693359375,0.9350786209106445,-0.809770405292511,0.46469199657440186
1761131794922210600,1.98221044921875,0.38518238067626953,-0.6242469549179077,0.8386496305465698
1761131794932210700,1.992210693359375,-0.22236061096191406,-0.2804410457611084,1.1741669178009033
1761131794942211600,2.002211669921875,-0.7805871963500977,-0.16088023781776428,1.396845817565918
1761131794952211500,2.01221142578125,-1.5314273834228516,-0.18026846647262573,1.54555082321167
1761131794962211600,2.022211669921875,-2.114675998687744,-0.20901787281036377,1.5361599922180176
1761131794972211500,2.03221142578125,-2.617386817932129,-0.15592509508132935,1.3346686363220215
1761131794982211300,2.04221142578125,-2.8680882453918457,-0.1951332688331604,1.1079434156417847
1761131794992211500,2.05221142578125,-2.8485817909240723,-0.2889212965965271,0.9631854295730591
1761131795002211000,2.062211181640625,-2.601457118988037,-0.4613460898399353,0.8480849266052246
1761131795012211200,2.072211181640625,-2.0382113456726074,-0.7259612679481506,0.8437613248825073
1761131795022211000,2.082211181640625,-1.2566766738891602,-1.0000967979431152,0.9332971572875977
1761131795032211200,2.092211181640625,-0.33293724060058594,-1.2119406461715698,1.0535378456115723
1761131795042210300,2.102210205078125,0.676239013671875,-1.4044605493545532,1.1328504085540771
1761131795052210200,2.112210205078125,1.6504697799682617,-1.602180004119873,1.170137643814087
1761131795062210300,2.122210205078125,2.2087297439575195,-1.6977033615112305,1.1215815544128418
1761131795072210400,2.13221044921875,2.1951160430908203,-1.600559949874878,1.078568696975708
1761131795082210300,2.142210205078125,2.1475906372070312,-1.3712316751480103,0.5102560520172119
1761131795092210200,2.152210205078125,1.8391695022583008,-1.0795104503631592,0.2582029104232788
1761131795112210400,2.17221044921875,0.8064584732055664,-0.33854416012763977,0.3047454357147217
1761131795122210300,2.182210205078125,0.14199542999267578,-0.06784388422966003,0.5020592212677002
1761131795132210200,2.192210205078125,-0.5935001373291016,0.2117871642112732,0.6273541450500488
1761131795142211000,2.202211181640625,-1.2622432708740234,0.5734899044036865,0.668304443359375
1761131795152211200,2.212211181640625,-1.7717351913452148,0.9118114709854126,0.6597158908843994
1761131795162211000,2.222211181640625,-2.195906639099121,1.1935679912567139,0.6785801649093628
1761131795172211200,2.232211181640625,-2.3721961975097656,1.3554738759994507,0.7253247499465942
1761131795182211300,2.24221142578125,-2.3924059867858887,1.370114803314209,0.7737230062484741
1761131795192211200,2.252211181640625,-2.2212305068969727,1.2975478172302246,0.8439801931381226
1761131795202211300,2.26221142578125,-1.7965459823608398,1.1953412294387817,0.7949450016021729
1761131795212211200,2.272211181640625,-1.129530906677246,1.0786466598510742,0.6712801456451416
1761131795222211300,2.28221142578125,-0.29825305938720703,0.9294177293777466,0.5341747999191284
1761131795232211200,2.292211181640625,-0.3052024841308594,0.9899160265922546,0.5094788074493408
1761131795242210300,2.302210205078125,0.9904851913452148,0.5615164041519165,0.45104825496673584
1761131795252210400,2.31221044921875,1.4559974670410156,0.37162700295448303,0.43362414836883545
1761131795262210300,2.322210205078125,1.797846794128418,0.24797596037387848,0.381536602973938
1761131795272210400,2.33221044921875,2.0041370391845703,0.11882384121417999,0.3268704414367676
1761131795282210300,2.342210205078125,2.0943450927734375,-0.012738846242427826,0.2508251667022705
1761131795292210400,2.35221044921875,2.05111026763916,-0.09095332771539688,0.20584070682525635
1761131795302210600,2.36221044921875,1.960702896118164,-0.08246468007564545,0.18573832511901855
1761131795312210700,2.372210693359375,1.8063373565673828,-0.058962952345609665,0.2195417881011963
1761131795322210600,2.38221044921875,1.5831546783447266,-0.0802922248840332,0.28082215785980225
1761131795332210700,2.392210693359375,1.300877571105957,-0.0723792240023613,0.31804323196411133
1761131795342211600,2.402211669921875,0.9043283462524414,-0.029668685048818588,0.3713400363922119
1761131795352211500,2.41221142578125,0.5225992202758789,-0.010673847049474716,0.37004613876342773
1761131795362211600,2.422211669921875,0.1507863998413086,0.016826633363962173,0.40677106380462646
1761131795372211500,2.43221142578125,-0.16839027404785156,0.047036658972501755,0.380979061126709
1761131795382211600,2.442211669921875,-0.47118186950683594,0.06916844844818115,0.35046637058258057
1761131795392211500,2.45221142578125,-0.7099599838256836,0.17060622572898865,0.26580846309661865
1761131795402211600,2.462211669921875,-0.8226442337036133,0.2473209798336029,0.17391753196716309
1761131795412211500,2.47221142578125,-0.8237085342407227,0.24511072039604187,0.16749894618988037
1761131795422211600,2.482211669921875,-0.6845407485961914,0.3630514442920685,0.25775158405303955
1761131795432211500,2.49221142578125,-0.4888725280761719,0.41482242941856384,0.36111342906951904
1761131795442210800,2.5022109375,-0.30591392517089844,0.4921351969242096,0.43804335594177246
1761131795452210700,2.512210693359375,-0.3100862503051758,0.49774202704429626,0.41157472133636475
1761131795462210800,2.5222109375,-0.010600090026855469,0.674443781375885,0.29101431369781494
1761131795472210700,2.532210693359375,0.06580257415771484,0.6740131378173828,0.18860411643981934
1761131795482210600,2.54221044921875,0.1253986358642578,0.7022559642791748,0.022887825965881348
1761131795492210700,2.552210693359375,0.19712448120117188,0.740580141544342,-0.13774549961090088
1761131795502210600,2.56221044921875,0.30977630615234375,0.7912018895149231,-0.28084635734558105
1761131795512210700,2.572210693359375,0.41550540924072266,0.8462808728218079,-0.2839902639389038
1761131795522210600,2.58221044921875,0.4996652603149414,0.8899418115615845,-0.22109568119049072
1761131795532210700,2.592210693359375,0.5241355895996094,0.9536516666412354,-0.19145476818084717
1761131795542211600,2.602211669921875,0.45535945892333984,1.0204167366027832,-0.20027554035186768
1761131795552211500,2.61221142578125,0.41298580169677734,1.0814765691757202,-0.23627126216888428
1761131795562211600,2.622211669921875,0.4017496109008789,1.0549712181091309,-0.21385562419891357
1761131795572211500,2.63221142578125,0.3856830596923828,0.8666548728942871,-0.09995532035827637
1761131795582211600,2.642211669921875,0.3601799011230469,0.7024286985397339,-0.06049513816833496
1761131795592211500,2.65221142578125,0.34932899475097656,0.5682005286216736,-0.09381246566772461
1761131795602211600,2.662211669921875,0.33405113220214844,0.5363138318061829,-0.10781621932983398
1761131795612211500,2.67221142578125,0.4075736999511719,0.554297924041748,-0.043618857860565186
1761131795622211600,2.682211669921875,0.6079254150390625,0.52679443359375,0.07232165336608887
1761131795632211500,2.69221142578125,1.0113916397094727,0.406247615814209,0.21969932317733765
1761131795642210800,2.7022109375,1.3615951538085938,0.2666722536087036,0.3669777512550354
1761131795652211000,2.7122109375,1.689702033996582,0.1469569057226181,0.46270492672920227
1761131795662210800,2.7222109375,1.768630027770996,0.0047049373388290405,0.5233574509620667
1761131795672211000,2.7322109375,1.5989933013916016,-0.11564067751169205,0.46152830123901367
1761131795682210800,2.7422109375,1.1045866012573242,-0.12088236212730408,0.16021323204040527
1761131795692211000,2.7522109375,0.4459657669067383,-0.07140108197927475,-0.21794015169143677
1761131795702210800,2.7622109375,-0.3050260543823242,0.06895622611045837,-0.5673059821128845
1761131795712211000,2.7722109375,-1.0406780242919922,0.15981391072273254,-0.7830373048782349
1761131795722210800,2.7822109375,-1.6292924880981445,0.15300309658050537,-0.7489186525344849
1761131795732211000,2.7922109375,-2.068589687347412,0.14688682556152344,-0.6607992053031921
1761131795742211600,2.802211669921875,-2.3493504524230957,0.1872246265411377,-0.5666989684104919
1761131795752211700,2.812211669921875,-2.4483065605163574,0.2321282923221588,-0.496806263923645
1761131795762211600,2.822211669921875,-2.365784168243408,0.206138014793396,-0.4776863157749176
1761131795772211700,2.832211669921875,-2.140354633331299,0.1629199981689453,-0.4377219080924988
1761131795782211600,2.842211669921875,-1.7889399528503418,0.040669381618499756,-0.3743358850479126
1761131795792211700,2.852211669921875,-1.7903056144714355,0.04282861948013306,-0.40594223141670227
1761131795802211600,2.862211669921875,-0.8225545883178711,-0.2459143102169037,-0.3768962025642395
1761131795812211700,2.872211669921875,-0.36021995544433594,-0.33712512254714966,-0.5348144769668579
1761131795822211600,2.882211669921875,-0.015246391296386719,-0.4512791335582733,-0.6535037755966187
1761131795832211700,2.892211669921875,0.20775985717773438,-0.572418212890625,-0.72517991065979
1761131795842210800,2.9022109375,0.20594406127929688,-0.5424392223358154,-0.7448400259017944
1761131795852211000,2.9122109375,0.6832103729248047,-0.4632161855697632,-0.7781371474266052
1761131795862210800,2.9222109375,1.036233901977539,-0.2642982006072998,-0.7058534622192383
1761131795872211000,2.9322109375,1.0113697052001953,-0.1693226546049118,-0.602057158946991
1761131795882210800,2.9422109375,0.8934602737426758,0.05398404598236084,-0.4259871244430542
1761131795892211000,2.9522109375,0.689697265625,0.36141401529312134,-0.3522428870201111
1761131795902210800,2.9622109375,0.3786277770996094,0.6431838274002075,-0.2686454951763153
1761131795912211000,2.9722109375,-0.01585865020751953,0.9289777278900146,-0.15362314879894257
1761131795922210800,2.9822109375,-0.3645811080932617,1.1521331071853638,-0.05120798945426941
1761131795932211000,2.9922109375,-0.5838460922241211,1.3620922565460205,-0.009732723236083984
1761131795942211600,3.002211669921875,-0.7264165878295898,1.4639499187469482,0.0697048231959343
1761131795952211500,3.01221142578125,-0.7397584915161133,1.532944917678833,0.0587020069360733
1761131795962211600,3.022211669921875,-0.6575174331665039,1.5476505756378174,-0.019993498921394348
1761131795972211500,3.03221142578125,-0.5324268341064453,1.5064048767089844,-0.141217440366745
1761131795982211600,3.042211669921875,-0.3622303009033203,1.3946514129638672,-0.23489367961883545
1761131795992211500,3.05221142578125,-0.16583538055419922,1.2573504447937012,-0.3567132353782654
1761131796002211600,3.062211669921875,0.06398391723632812,1.2060778141021729,-0.4879734516143799
1761131796012211500,3.07221142578125,0.2650718688964844,1.107412338256836,-0.6183300018310547
1761131796022211600,3.082211669921875,0.26517391204833984,1.10489821434021,-0.6292793154716492
1761131796032211500,3.09221142578125,0.40425586700439453,0.8394625782966614,-0.7388355731964111
1761131796042210600,3.10221044921875,0.416534423828125,0.7186161875724792,-0.7867027521133423
1761131796052210700,3.112210693359375,0.48633289337158203,0.6567261219024658,-0.793633222579956
1761131796062210600,3.12221044921875,0.5513496398925781,0.6187533736228943,-0.7957446575164795
1761131796072210700,3.132210693359375,0.5589370727539062,0.5563548803329468,-0.7735499143600464
1761131796082210600,3.14221044921875,0.4828224182128906,0.5187305808067322,-0.7697831392288208
1761131796092210700,3.152210693359375,0.2967376708984375,0.4617500305175781,-0.834456741809845
1761131796102210600,3.16221044921875,0.07258224487304688,0.4299110174179077,-0.893013060092926
1761131796112210700,3.172210693359375,-0.2039632797241211,0.4229528307914734,-0.974919855594635
1761131796122210600,3.18221044921875,-0.5041751861572266,0.4557816982269287,-1.059698462486267
1761131796132210700,3.192210693359375,-0.7036333084106445,0.43408411741256714,-1.075085997581482
1761131796142211600,3.202211669921875,-0.8096513748168945,0.41967517137527466,-1.0725524425506592
1761131796152211500,3.21221142578125,-0.8415613174438477,0.3619745969772339,-0.9687168002128601
1761131796162211600,3.222211669921875,-0.8258657455444336,0.32500016689300537,-0.9224194884300232
1761131796172211500,3.23221142578125,-0.7243585586547852,0.2978915572166443,-0.9373626112937927
1761131796182211600,3.242211669921875,-0.5394716262817383,0.29092592000961304,-1.0003999471664429
1761131796192211500,3.25221142578125,-0.37891387939453125,0.2895158529281616,-1.0203794240951538
1761131796202211600,3.262211669921875,-0.29041290283203125,0.2774352431297302,-1.0079224109649658
1761131796212211500,3.27221142578125,-0.20197582244873047,0.29092055559158325,-1.008195400238037
1761131796222211600,3.282211669921875,-0.09436702728271484,0.41447222232818604,-0.9487035870552063
1761131796232211500,3.29221142578125,-0.0345611572265625,0.5201703310012817,-0.811293363571167
1761131796242210600,3.30221044921875,-0.039246559143066406,0.5756831765174866,-0.6013694405555725
1761131796252210700,3.312210693359375,-0.11800479888916016,0.6382096409797668,-0.4182594418525696
1761131796262210600,3.32221044921875,-0.1607666015625,0.7301488518714905,-0.29069995880126953
1761131796272210700,3.332210693359375,-0.12455940246582031,0.8053103685379028,-0.22077839076519012
1761131796282210600,3.34221044921875,-0.09801006317138672,0.9123416543006897,-0.19307032227516174
1761131796292210700,3.352210693359375,-0.08825111389160156,0.9407942295074463,-0.14863339066505432
1761131796302210600,3.36221044921875,-0.07136154174804688,0.9699337482452393,-0.18091142177581787
1761131796312210700,3.372210693359375,-0.018671035766601562,0.9959295392036438,-0.2148977518081665
1761131796322210600,3.38221044921875,0.10097312927246094,1.0065611600875854,-0.27155929803848267
1761131796332210700,3.392210693359375,0.2013711929321289,0.9946545958518982,-0.34662896394729614
1761131796342211600,3.402211669921875,0.2514629364013672,0.9954137802124023,-0.42754244804382324
1761131796362211300,3.42221142578125,0.2131490707397461,0.969009518623352,-0.6431103944778442
1761131796372211500,3.43221142578125,0.15834426879882812,0.9615474343299866,-0.6419743895530701
1761131796382211600,3.442211669921875,0.12288665771484375,0.9581644535064697,-0.623970627784729
1761131796392211500,3.45221142578125,0.17609882354736328,0.9721744060516357,-0.5561152100563049
1761131796402211600,3.462211669921875,0.21975231170654297,0.9187045097351074,-0.44885092973709106
1761131796412211500,3.47221142578125,0.27303314208984375,0.8310934901237488,-0.408852756023407
1761131796422211600,3.482211669921875,0.3407268524169922,0.788297176361084,-0.38881075382232666
1761131796432211500,3.49221142578125,0.37731075286865234,0.6733115911483765,-0.3846072554588318
1761131796442210600,3.50221044921875,0.4330873489379883,0.5797519683837891,-0.35779711604118347
1761131796452210700,3.512210693359375,0.44580078125,0.5198695063591003,-0.36235886812210083
1761131796462210600,3.52221044921875,0.38918113708496094,0.473893404006958,-0.3159582018852234
1761131796472210700,3.532210693359375,0.2704496383666992,0.4724518060684204,-0.2618200480937958
1761131796482210600,3.54221044921875,0.13033580780029297,0.4579852223396301,-0.19217455387115479
1761131796492210700,3.552210693359375,0.040633201599121094,0.5051265358924866,-0.17206786572933197
1761131796502210600,3.56221044921875,-0.02984905242919922,0.5999101400375366,-0.1750204712152481
1761131796512210700,3.572210693359375,-0.13466835021972656,0.6023802161216736,-0.11644160747528076
1761131796522210600,3.58221044921875,-0.2727336883544922,0.554841935634613,-0.03817053139209747
1761131796532210700,3.592210693359375,-0.40331363677978516,0.5241251587867737,0.01178257167339325
1761131796542211300,3.60221142578125,-0.5097236633300781,0.5443701148033142,0.04675246775150299
1761131796552211500,3.61221142578125,-0.6160058975219727,0.5782390832901001,0.12866106629371643
1761131796562211600,3.622211669921875,-0.7368450164794922,0.5519683361053467,0.22607025504112244
1761131796572211500,3.63221142578125,-0.8028860092163086,0.5452724695205688,0.2728284001350403
1761131796582211600,3.642211669921875,-0.8046760559082031,0.6165348291397095,0.2956857979297638
1761131796592211500,3.65221142578125,-0.7901535034179688,0.6368857622146606,0.2980039119720459
1761131796602211600,3.662211669921875,-0.7401514053344727,0.666054368019104,0.3238517940044403
1761131796612211500,3.67221142578125,-0.6330633163452148,0.6651300191879272,0.2873774766921997
1761131796622211600,3.682211669921875,-0.46885204315185547,0.6406489610671997,0.20441901683807373
1761131796632211500,3.69221142578125,-0.28336334228515625,0.6206444501876831,0.19438134133815765
1761131796642210600,3.70221044921875,-0.18413352966308594,0.5053267478942871,0.1665659248828888
1761131796652210700,3.712210693359375,-0.04893970489501953,0.4661107063293457,0.05853676795959473
1761131796662210600,3.72221044921875,0.10793781280517578,0.4831969738006592,-0.02909351885318756
1761131796672210700,3.732210693359375,0.17902374267578125,0.44935595989227295,-0.016517147421836853
1761131796682210600,3.74221044921875,0.21222877502441406,0.3886493444442749,-0.010261580348014832
1761131796692210700,3.752210693359375,0.22659969329833984,0.4361330270767212,-0.014653831720352173
1761131796702210600,3.76221044921875,0.25553035736083984,0.456393837928772,-0.0007149875164031982
1761131796712210700,3.772210693359375,0.2629117965698242,0.4533878564834595,0.03227536380290985
1761131796722210600,3.78221044921875,0.20562744140625,0.39363908767700195,0.08133406937122345
1761131796732210700,3.792210693359375,0.1386432647705078,0.34703171253204346,0.07542867213487625
1761131796742211300,3.80221142578125,0.10741519927978516,0.3784041404724121,0.05521933734416962
1761131796752211500,3.81221142578125,0.13338756561279297,0.3806706666946411,0.0038684308528900146
1761131796762211300,3.82221142578125,0.17101478576660156,0.36612939834594727,-0.04996916651725769
1761131796772211500,3.83221142578125,0.17012310028076172,0.32931554317474365,-0.04079492390155792
1761131796782211300,3.84221142578125,0.15231037139892578,0.26743125915527344,-0.038214921951293945
1761131796792211500,3.85221142578125,0.13669586181640625,0.20217597484588623,-0.030681073665618896
1761131796802211300,3.86221142578125,0.12692928314208984,0.1267908811569214,-0.02641831338405609
1761131796812211500,3.87221142578125,0.15760231018066406,0.024439454078674316,-0.07268933951854706
1761131796822211300,3.88221142578125,0.19762897491455078,-0.04752695560455322,-0.13952122628688812
1761131796832211500,3.89221142578125,0.1920032501220703,-0.09421968460083008,-0.20252618193626404
1761131796842210600,3.90221044921875,0.15048503875732422,-0.15503787994384766,-0.31082049012184143
1761131796852210700,3.912210693359375,0.08278274536132812,-0.17575275897979736,-0.47113603353500366
1761131796862210600,3.92221044921875,0.017874717712402344,-0.19376850128173828,-0.5385370254516602
1761131796872210400,3.93221044921875,-0.1329631805419922,-0.21081745624542236,-0.5346615314483643
1761131796882210600,3.94221044921875,-0.2954072952270508,-0.19652903079986572,-0.46954309940338135
1761131796892210400,3.95221044921875,-0.4766530990600586,-0.1653839349746704,-0.39243283867836
1761131796902210600,3.96221044921875,-0.6481485366821289,-0.087851881980896,-0.24110400676727295
1761131796912210400,3.97221044921875,-0.6831502914428711,-0.013806939125061035,-0.16217994689941406
1761131796922210600,3.98221044921875,-0.6610050201416016,0.06626975536346436,-0.06668275594711304
1761131796932210700,3.992210693359375,-0.6105785369873047,0.17036712169647217,0.039915189146995544
1761131796942211300,4.00221142578125,-0.5007133483886719,0.2221745252609253,0.11963441967964172
1761131796952211500,4.01221142578125,-0.42713165283203125,0.24570882320404053,0.10508878529071808
1761131796962211300,4.02221142578125,-0.32509422302246094,0.2860686779022217,0.11476334929466248
1761131796972211500,4.03221142578125,-0.22558975219726562,0.30863654613494873,0.10471920669078827
1761131796982211300,4.04221142578125,-0.10459327697753906,0.33414745330810547,0.07593028247356415
1761131796992211500,4.05221142578125,0.0906667709350586,0.37838101387023926,0.06057743728160858
1761131797002211300,4.06221142578125,0.2238941192626953,0.40415048599243164,0.10161924362182617
1761131797012211500,4.07221142578125,0.3384075164794922,0.39307475090026855,0.13209688663482666
1761131797022211300,4.08221142578125,0.45336341857910156,0.42875683307647705,0.11781792342662811
1761131797032211500,4.09221142578125,0.5231494903564453,0.45714354515075684,0.12402848899364471
1761131797042210600,4.10221044921875,0.5428342819213867,0.4460200071334839,0.10893577337265015
1761131797052210700,4.112210693359375,0.5818328857421875,0.4627101421356201,0.07565373182296753
1761131797062210600,4.12221044921875,0.5779047012329102,0.4424642324447632,0.10536020994186401
1761131797072210700,4.132210693359375,0.5167150497436523,0.42820239067077637,0.08800627291202545
1761131797082210600,4.14221044921875,0.5012006759643555,0.4487501382827759,0.08098092675209045
1761131797092210700,4.152210693359375,0.5480728149414062,0.4085313081741333,0.05711880326271057
1761131797102210600,4.16221044921875,0.5757455825805664,0.38527917861938477,0.00849384069442749
1761131797112210700,4.172210693359375,0.5483827590942383,0.35709989070892334,-0.013712078332901001
1761131797122210600,4.18221044921875,0.49012279510498047,0.2653852701187134,-0.020652681589126587
1761131797132210700,4.192210693359375,0.45128726959228516,0.2223515510559082,-0.038800984621047974
1761131797142211600,4.202211669921875,0.4414806365966797,0.22023677825927734,-0.0248660147190094
1761131797152211500,4.21221142578125,0.3983306884765625,0.17860019207000732,0.0528293251991272
1761131797162211600,4.222211669921875,0.2788887023925781,0.13743627071380615,0.1641208529472351
1761131797172211500,4.23221142578125,0.1143808364868164,0.04349946975708008,0.22527578473091125
1761131797182211600,4.242211669921875,-0.021257400512695312,0.027997136116027832,0.18848872184753418
1761131797192211500,4.25221142578125,-0.15443992614746094,0.05303537845611572,0.14429326355457306
1761131797212211500,4.27221142578125,-0.4065723419189453,-0.05754518508911133,0.2093553990125656
1761131797222211600,4.282211669921875,-0.4563589096069336,-0.052979111671447754,0.22157782316207886
1761131797232211500,4.29221142578125,-0.5017213821411133,-0.04593861103057861,0.24391883611679077
1761131797242210600,4.30221044921875,-0.5091228485107422,-0.07714474201202393,0.24601805210113525
1761131797252210700,4.312210693359375,-0.5048637390136719,-0.09913194179534912,0.2030998021364212
1761131797262210600,4.32221044921875,-0.44839954376220703,-0.08500397205352783,0.1256314218044281
1761131797272210700,4.332210693359375,-0.3828096389770508,-0.10419023036956787,0.052516818046569824
1761131797282210600,4.34221044921875,-0.3391571044921875,-0.14260101318359375,0.01308700442314148
1761131797292210700,4.352210693359375,-0.3388204574584961,-0.14365720748901367,0.017399311065673828
1761131797302210600,4.36221044921875,-0.30745697021484375,-0.17992258071899414,-0.004035919904708862
1761131797312210700,4.372210693359375,-0.2810678482055664,-0.14585566520690918,-0.01683729887008667
1761131797322210600,4.38221044921875,-0.2643547058105469,-0.10665750503540039,-0.01399049162864685
1761131797332210700,4.392210693359375,-0.18321609497070312,-0.09541463851928711,-0.034965068101882935
1761131797342211300,4.40221142578125,-0.15729522705078125,-0.09803116321563721,-0.016989290714263916
1761131797352211500,4.41221142578125,-0.06693649291992188,-0.1285386085510254,-0.08690780401229858
1761131797362211300,4.42221142578125,0.013600349426269531,-0.13623178005218506,-0.15770068764686584
1761131797372211500,4.43221142578125,0.11054325103759766,-0.14905023574829102,-0.18560943007469177
1761131797382211300,4.44221142578125,0.2527656555175781,-0.18210077285766602,-0.18940147757530212
1761131797392211500,4.45221142578125,0.4211101531982422,-0.14435172080993652,-0.15234562754631042
1761131797402211800,4.4622119140625,0.5391607284545898,-0.14946210384368896,-0.1340063512325287
1761131797412211700,4.472211669921875,0.5761098861694336,-0.1367807388305664,-0.09462398290634155
1761131797422211800,4.4822119140625,0.5225496292114258,-0.09070682525634766,-0.0562988817691803
1761131797432211700,4.492211669921875,0.3929319381713867,-0.08363676071166992,-0.05023583769798279
1761131797442211000,4.502211181640625,0.21356773376464844,-0.0365910530090332,-0.03884530067443848
1761131797452211000,4.5122109375,0.03697395324707031,0.02010977268218994,-0.05162811279296875
1761131797462211000,4.522211181640625,-0.12261009216308594,0.05852162837982178,-0.06690540909767151
1761131797472211000,4.5322109375,-0.24373912811279297,0.14401376247406006,-0.1369795799255371
1761131797482210800,4.5422109375,-0.39597415924072266,0.167138934135437,-0.16642209887504578
1761131797492211000,4.5522109375,-0.5075397491455078,0.1402287483215332,-0.18621233105659485
1761131797502210800,4.5622109375,-0.5547075271606445,0.15298521518707275,-0.18256741762161255
1761131797512211000,4.5722109375,-0.5161399841308594,0.14431536197662354,-0.20622816681861877
1761131797522210800,4.5822109375,-0.4444723129272461,0.11446523666381836,-0.3004826009273529
1761131797532211000,4.5922109375,-0.4449148178100586,0.11800646781921387,-0.2963506877422333
1761131797542211800,4.6022119140625,-0.31624507904052734,-0.03494429588317871,-0.44335392117500305
1761131797552211700,4.612211669921875,-0.2522754669189453,-0.060178399085998535,-0.4927050471305847
1761131797562211800,4.6222119140625,-0.15241336822509766,-0.07771062850952148,-0.49757394194602966
1761131797572211700,4.632211669921875,-0.15326309204101562,-0.07008826732635498,-0.4872764050960541
1761131797582211800,4.6422119140625,0.0780630111694336,-0.11200141906738281,-0.39694684743881226
1761131797592211700,4.652211669921875,0.17526531219482422,-0.1340799331665039,-0.3511209189891815
1761131797602211800,4.6622119140625,0.2821493148803711,-0.13970541954040527,-0.32134971022605896
1761131797612211700,4.672211669921875,0.33402538299560547,-0.16475427150726318,-0.27506715059280396
1761131797622211800,4.6822119140625,0.36675071716308594,-0.1661609411239624,-0.23981180787086487
1761131797632211700,4.692211669921875,0.3875560760498047,-0.17316019535064697,-0.21620094776153564
1761131797642210800,4.7022109375,0.39406299591064453,-0.14718139171600342,-0.2339758276939392
1761131797652211000,4.7122109375,0.3648214340209961,-0.11718463897705078,-0.24875715374946594
1761131797662210800,4.7222109375,0.2951469421386719,-0.11965560913085938,-0.24109742045402527
1761131797672211000,4.7322109375,0.20657634735107422,-0.07590711116790771,-0.2289983034133911
1761131797682211000,4.742211181640625,0.2067394256591797,-0.07430422306060791,-0.22098612785339355
1761131797692211000,4.7522109375,0.060947418212890625,-0.04258155822753906,-0.20722508430480957
1761131797702210600,4.76221044921875,-0.024881362915039062,-0.004439592361450195,-0.1937427520751953
1761131797712210700,4.772210693359375,-0.11778926849365234,0.011388540267944336,-0.16386741399765015
1761131797722210600,4.78221044921875,-0.23687362670898438,0.03561687469482422,-0.11062288284301758
1761131797732210700,4.792210693359375,-0.32716846466064453,0.07824993133544922,-0.07764983177185059
1761131797742211300,4.80221142578125,-0.3385467529296875,0.09975314140319824,-0.08588474988937378
1761131797752211500,4.81221142578125,-0.2568473815917969,0.11113262176513672,-0.060718655586242676
1761131797762211300,4.82221142578125,-0.13721942901611328,0.08170521259307861,-0.05981481075286865
1761131797772211500,4.83221142578125,-0.03466796875,-0.0008630752563476562,-0.09983444213867188
1761131797782211300,4.84221142578125,0.07247447967529297,-0.02691185474395752,-0.15134602785110474
1761131797792211500,4.85221142578125,0.14847087860107422,-0.06918466091156006,-0.21141821146011353
1761131797802211300,4.86221142578125,0.18861103057861328,-0.07098960876464844,-0.185016930103302
1761131797812211500,4.87221142578125,0.17867088317871094,-0.08835887908935547,-0.15614205598831177
1761131797822211300,4.88221142578125,0.1880483627319336,-0.06152069568634033,-0.12075585126876831
1761131797832211500,4.89221142578125,0.15221786499023438,-0.04152834415435791,-0.05970698595046997
1761131797842210600,4.90221044921875,0.1501150131225586,-0.042180657386779785,0.00813591480255127
1761131797852210700,4.912210693359375,0.10500431060791016,-0.017498254776000977,0.07002860307693481
1761131797862210600,4.92221044921875,0.0910806655883789,-0.010283946990966797,0.10955598950386047
1761131797872210400,4.93221044921875,0.04607868194580078,-0.04662346839904785,0.1654301881790161
1761131797882210600,4.94221044921875,0.036930084228515625,-0.032323479652404785,0.16855788230895996
1761131797892210400,4.95221044921875,0.05879497528076172,-0.012448430061340332,0.1598929762840271
1761131797902210600,4.96221044921875,0.08047962188720703,-0.022731781005859375,0.19624951481819153
1761131797912210700,4.972210693359375,0.09014034271240234,-0.018229961395263672,0.26633721590042114
1761131797922210600,4.98221044921875,0.09745121002197266,0.012523531913757324,0.3321240544319153
1761131797932210700,4.992210693359375,0.09041023254394531,0.02872765064239502,0.35218149423599243
1761131797942211600,5.002211669921875,0.04029560089111328,0.07310676574707031,0.354403555393219
1761131797962211600,5.022211669921875,-0.07419204711914062,0.05778539180755615,0.3657795488834381
1761131797972211500,5.03221142578125,-0.13631916046142578,0.05593514442443848,0.3805094361305237
1761131797982211300,5.04221142578125,-0.15308189392089844,0.03948092460632324,0.35870760679244995
1761131797992211500,5.05221142578125,-0.10775947570800781,0.01926743984222412,0.276745468378067
1761131798002211600,5.062211669921875,-0.01959991455078125,0.03230404853820801,0.2174472212791443
1761131798012211500,5.07221142578125,0.030074119567871094,0.009038329124450684,0.1892017424106598
1761131798022211600,5.082211669921875,0.03903770446777344,-0.03239452838897705,0.1228424608707428
1761131798032211500,5.09221142578125,0.05286693572998047,-0.051892876625061035,0.03269147872924805
1761131798042210600,5.10221044921875,0.02857685089111328,-0.04075050354003906,-0.0003135204315185547
1761131798052210700,5.112210693359375,-0.04580497741699219,-0.059502482414245605,-0.004572272300720215
1761131798062210600,5.12221044921875,-0.10564517974853516,-0.04159343242645264,0.04703083634376526
1761131798072210700,5.132210693359375,-0.13428497314453125,-0.003560781478881836,0.05979788303375244
1761131798082210600,5.14221044921875,-0.16299152374267578,0.01316535472869873,0.10782980918884277
1761131798092210700,5.152210693359375,-0.18218517303466797,-0.005274176597595215,0.11616700887680054
1761131798102210600,5.16221044921875,-0.20869064331054688,-0.04157900810241699,0.08280965685844421
1761131798112210700,5.172210693359375,-0.17310428619384766,-0.05014050006866455,0.029202699661254883
1761131798122210600,5.18221044921875,-0.06599044799804688,-0.049544692039489746,-0.014542967081069946
1761131798132210700,5.192210693359375,0.043318748474121094,-0.0260009765625,-0.03393411636352539
1761131798142211600,5.202211669921875,0.08798980712890625,-0.009338021278381348,-0.07623860239982605
1761131798152211500,5.21221142578125,0.06345367431640625,-0.017836570739746094,-0.05328044295310974
1761131798162211600,5.222211669921875,0.029569625854492188,-0.011276602745056152,-0.028716564178466797
1761131798172211500,5.23221142578125,0.03649425506591797,-0.02271437644958496,-0.013163834810256958
1761131798182211600,5.242211669921875,0.09362220764160156,-0.027019262313842773,0.07483363151550293
1761131798192211500,5.25221142578125,0.16499614715576172,-0.03324997425079346,0.10434162616729736
1761131798202211600,5.262211669921875,0.19556903839111328,-0.038750410079956055,0.09335112571716309
1761131798212211500,5.27221142578125,0.1926422119140625,-0.05827677249908447,0.03361368179321289
1761131798232211500,5.29221142578125,0.07005596160888672,-0.024069547653198242,-0.11246344447135925
1761131798242210600,5.30221044921875,0.04134941101074219,0.039092421531677246,-0.19024744629859924
1761131798252210700,5.312210693359375,0.041512489318847656,0.039440035820007324,-0.18556591868400574
1761131798262210600,5.32221044921875,0.0011072158813476562,0.058057427406311035,-0.14749008417129517
1761131798272210700,5.332210693359375,-0.1229410171508789,0.053840041160583496,-0.055411845445632935
1761131798282210600,5.34221044921875,-0.15833663940429688,0.05348503589630127,0.018233418464660645
1761131798292210700,5.352210693359375,-0.08365631103515625,0.0483548641204834,0.028496354818344116
1761131798302210600,5.36221044921875,-0.0022602081298828125,0.05771040916442871,0.03718408942222595
1761131798312210700,5.372210693359375,0.09804821014404297,0.042168378829956055,0.026422441005706787
1761131798322210600,5.38221044921875,0.16239070892333984,0.012891769409179688,0.04291796684265137
1761131798332210700,5.392210693359375,0.18365097045898438,-0.02091050148010254,-0.013614684343338013
1761131798342211300,5.40221142578125,0.23130130767822266,-0.013775348663330078,-0.03238648176193237
1761131798352211500,5.41221142578125,0.2861824035644531,0.0034912824630737305,-0.04603081941604614
1761131798362211300,5.42221142578125,0.2860851287841797,0.006439208984375,-0.03860560059547424
1761131798372211500,5.43221142578125,0.22392940521240234,0.015883922576904297,-0.09908390045166016
1761131798382211300,5.44221142578125,0.17387962341308594,0.05816519260406494,-0.12084394693374634
1761131798392211500,5.45221142578125,0.17415714263916016,0.059131741523742676,-0.11255675554275513
1761131798402211300,5.46221142578125,0.16010570526123047,0.0738210678100586,-0.11516666412353516
1761131798412211500,5.47221142578125,0.1364431381225586,0.0900195837020874,-0.03491628170013428
1761131798422211300,5.48221142578125,0.1271953582763672,0.06600451469421387,0.011958122253417969
1761131798432211500,5.49221142578125,0.05100536346435547,0.0734107494354248,-0.005425810813903809
1761131798442210600,5.50221044921875,-0.008356094360351562,0.10076677799224854,-0.07669439911842346
1761131798452210700,5.512210693359375,-0.07958698272705078,0.08162295818328857,-0.14933151006698608
1761131798462210600,5.52221044921875,-0.17467498779296875,0.019116878509521484,-0.17836785316467285
1761131798472210700,5.532210693359375,-0.2530231475830078,-0.038019657135009766,-0.14872297644615173
1761131798482210600,5.54221044921875,-0.2740468978881836,-0.05530750751495361,-0.16494432091712952
1761131798492210700,5.552210693359375,-0.26660823822021484,-0.02954089641571045,-0.19824647903442383
1761131798502210600,5.56221044921875,-0.24744129180908203,-0.018407583236694336,-0.2151404619216919
1761131798512210400,5.57221044921875,-0.24031352996826172,-0.011152267456054688,-0.1585851013660431
1761131798522210600,5.58221044921875,-0.29546546936035156,-0.08036065101623535,-0.12614229321479797
1761131798532210700,5.592210693359375,-0.35313892364501953,-0.08474016189575195,-0.11493656039237976
1761131798542211600,5.602211669921875,-0.38468074798583984,-0.08102715015411377,-0.1337694525718689
1761131798552211500,5.61221142578125,-0.3423023223876953,-0.03252732753753662,-0.20599263906478882
1761131798562211600,5.622211669921875,-0.27866363525390625,-0.03235912322998047,-0.227590411901474
1761131798572211500,5.63221142578125,-0.22713470458984375,-0.08617281913757324,-0.2581157982349396
1761131798582211600,5.642211669921875,-0.19484806060791016,-0.10092175006866455,-0.27373555302619934
1761131798592211500,5.65221142578125,-0.12665271759033203,-0.10353803634643555,-0.2650594711303711
1761131798602211600,5.662211669921875,-0.07999897003173828,-0.07514142990112305,-0.21609950065612793
1761131798612211500,5.67221142578125,-0.018990516662597656,-0.03493452072143555,-0.0938749611377716
1761131798622211600,5.682211669921875,0.03959846496582031,-0.009299874305725098,-0.028239786624908447
1761131798632211500,5.69221142578125,0.1387310028076172,0.012264609336853027,-0.016622930765151978
1761131798642210600,5.70221044921875,0.27124786376953125,0.008472800254821777,-0.016900300979614258
1761131798652210700,5.712210693359375,0.2695302963256836,0.017971515655517578,-0.023634880781173706
1761131798662210600,5.72221044921875,0.3946361541748047,0.032747626304626465,0.0196382999420166
1761131798672210700,5.732210693359375,0.5724954605102539,-0.0032989978790283203,0.03615546226501465
1761131798682210600,5.74221044921875,0.5973901748657227,0.018881678581237793,0.00977092981338501
1761131798692210700,5.752210693359375,0.5891828536987305,0.062444210052490234,0.010433703660964966
1761131798702210600,5.76221044921875,0.5192489624023438,0.06674468517303467,0.047575443983078
1761131798712210700,5.772210693359375,0.3732728958129883,0.05778098106384277,0.056584179401397705
1761131798722210600,5.78221044921875,0.2493152618408203,0.04793882369995117,0.11299307644367218
1761131798732210700,5.792210693359375,0.18311786651611328,0.04088425636291504,0.15482085943222046
1761131798742211300,5.80221142578125,0.14339733123779297,0.040187716484069824,0.18016886711120605
1761131798752211500,5.81221142578125,0.11328506469726562,0.03939926624298096,0.2272672951221466
1761131798762211300,5.82221142578125,0.030527114868164062,0.05303788185119629,0.2655807435512543
1761131798772211500,5.83221142578125,-0.04018688201904297,0.009018421173095703,0.2881731390953064
1761131798782211300,5.84221142578125,-0.1299724578857422,0.010184288024902344,0.24936041235923767
1761131798792211500,5.85221142578125,-0.23166751861572266,0.02295362949371338,0.20325778424739838
1761131798802211300,5.86221142578125,-0.34049034118652344,0.03519630432128906,0.19910354912281036
1761131798812211200,5.872211181640625,-0.40862560272216797,0.061620354652404785,0.2435186207294464
1761131798822211300,5.88221142578125,-0.42189598083496094,0.08657634258270264,0.3024066388607025
1761131798832211200,5.892211181640625,-0.3517885208129883,0.0754927396774292,0.3252120018005371
1761131798842210600,5.90221044921875,-0.24863719940185547,0.055232882499694824,0.3679151237010956
1761131798852210400,5.91221044921875,-0.14117050170898438,-0.017132282257080078,0.4073954224586487
1761131798862210300,5.922210205078125,-0.02923583984375,-0.046622395515441895,0.3824889659881592
1761131798872210400,5.93221044921875,0.03707122802734375,-0.07028186321258545,0.3412191867828369
1761131798882210300,5.942210205078125,0.06277656555175781,-0.07293105125427246,0.27118369936943054
1761131798892210400,5.95221044921875,0.062354087829589844,-0.07203149795532227,0.24399173259735107
1761131798902210300,5.962210205078125,0.0023431777954101562,-0.03211069107055664,0.23038113117218018
1761131798912210400,5.97221044921875,-0.066925048828125,-0.018019437789916992,0.23130321502685547
1761131798922210300,5.982210205078125,-0.17663955688476562,-0.007705807685852051,0.21398834884166718
1761131798932210400,5.99221044921875,-0.2239837646484375,0.0331881046295166,0.14988116919994354
1761131798942211300,6.00221142578125,-0.24745464324951172,0.045889854431152344,0.12892040610313416
1761131798952211200,6.012211181640625,-0.1801443099975586,0.05502951145172119,0.09948444366455078
1761131798962211300,6.02221142578125,-0.03406238555908203,0.07512831687927246,0.0792289525270462
1761131798972211200,6.032211181640625,0.42061710357666016,0.1948850154876709,0.15562689304351807
1761131798982211300,6.04221142578125,0.7197122573852539,0.07268571853637695,0.22425174713134766
1761131798992211200,6.052211181640625,0.8506870269775391,-0.04650223255157471,0.2679732143878937
1761131799002211300,6.06221142578125,1.0619010925292969,-0.081900954246521,0.14470234513282776
1761131799012211200,6.072211181640625,1.289107322692871,-0.01869666576385498,-0.08246482163667679
1761131799022211300,6.08221142578125,1.2047309875488281,-0.081429123878479,-0.11972551047801971
1761131799032211200,6.092211181640625,1.0611448287963867,-0.13300883769989014,-0.09879741072654724
1761131799042210600,6.10221044921875,0.602452278137207,-0.23453927040100098,0.0405132919549942
1761131799052210400,6.11221044921875,0.27181434631347656,-0.3239328861236572,0.4157659411430359
1761131799062210600,6.12221044921875,-0.1341104507446289,-0.8063969612121582,0.36100226640701294
1761131799072210400,6.13221044921875,0.0215606689453125,-0.2050389051437378,0.3106555640697479
1761131799082210300,6.142210205078125,-0.1515493392944336,-0.15996336936950684,0.26685476303100586
1761131799092210400,6.15221044921875,-0.1943798065185547,-0.0385279655456543,0.2838860750198364
1761131799102210600,6.16221044921875,-0.033188819885253906,0.11272811889648438,0.2688169479370117
1761131799112210400,6.17221044921875,-0.17856502532958984,0.07796549797058105,0.2574613690376282
1761131799122210600,6.18221044921875,-0.4014577865600586,0.05422854423522949,0.2261529564857483
1761131799132210400,6.19221044921875,-0.6382436752319336,0.03832697868347168,0.1669122576713562
1761131799142211300,6.20221142578125,-1.0050773620605469,0.009388923645019531,0.11381828784942627
1761131799152211500,6.21221142578125,-1.0986995697021484,0.08978557586669922,-0.06801021099090576
1761131799162211300,6.22221142578125,-1.2932848930358887,0.17121601104736328,-0.25439977645874023
1761131799172211500,6.23221142578125,-1.38623046875,0.3327033519744873,-0.33972615003585815
1761131799182211300,6.24221142578125,-1.4791464805603027,0.4133617877960205,-0.3439958095550537
1761131799192211500,6.25221142578125,-1.3906636238098145,0.3900721073150635,-0.1336638331413269
1761131799202211300,6.26221142578125,-1.161992073059082,0.3721044063568115,0.19816350936889648
1761131799212211500,6.27221142578125,-0.8373451232910156,0.38170599937438965,0.3963000774383545
1761131799222211300,6.28221142578125,-0.5164327621459961,0.38616108894348145,0.4182983636856079
1761131799232211500,6.29221142578125,-0.3095121383666992,0.4466719627380371,0.34850406646728516
1761131799242210600,6.30221044921875,-0.15298175811767578,0.41367006301879883,0.24767982959747314
1761131799252210700,6.312210693359375,-0.06259727478027344,0.30991530418395996,0.12245786190032959
1761131799262210600,6.32221044921875,0.040993690490722656,0.2155160903930664,0.025967657566070557
1761131799272210700,6.332210693359375,0.03082561492919922,0.24308276176452637,0.03968048095703125
1761131799282210600,6.34221044921875,0.1988210678100586,0.1918942928314209,-0.12123578786849976
1761131799292210700,6.352210693359375,0.3246002197265625,0.21283817291259766,-0.12080299854278564
1761131799302210600,6.36221044921875,0.4703378677368164,0.22923731803894043,-0.08987098932266235
1761131799312210400,6.37221044921875,0.5500059127807617,0.22621464729309082,-0.0574190616607666
1761131799322210600,6.38221044921875,0.5754222869873047,0.18756890296936035,-0.019141972064971924
1761131799332210400,6.39221044921875,0.513361930847168,0.15053558349609375,0.025217294692993164
1761131799342211300,6.40221142578125,0.41650962829589844,0.14601898193359375,-0.017277300357818604
1761131799352211500,6.41221142578125,0.37085819244384766,0.148176908493042,-0.04800361394882202
1761131799362211300,6.42221142578125,0.32108020782470703,0.1382913589477539,-0.10861670970916748
1761131799372211500,6.43221142578125,0.23105907440185547,0.10004901885986328,-0.1455897092819214
1761131799382211300,6.44221142578125,0.09835147857666016,0.06965112686157227,-0.14982175827026367
1761131799392211500,6.45221142578125,-0.02694416046142578,0.023823022842407227,-0.1622323989868164
1761131799402211300,6.46221142578125,-0.09007740020751953,0.030535221099853516,-0.20629775524139404
1761131799412211200,6.472211181640625,-0.12243938446044922,0.05708026885986328,-0.2505565583705902
1761131799422211300,6.48221142578125,-0.11701011657714844,0.06817960739135742,-0.24018877744674683
1761131799432211200,6.492211181640625,-0.08570384979248047,0.06385993957519531,-0.23583823442459106
1761131799442210600,6.50221044921875,-0.021208763122558594,0.07526254653930664,-0.19859731197357178
1761131799452210400,6.51221044921875,0.06689643859863281,0.05713009834289551,-0.20858025550842285
1761131799462210600,6.52221044921875,0.061301231384277344,0.0312952995300293,-0.20977666974067688
1761131799472210400,6.53221044921875,0.0077610015869140625,-0.03951573371887207,-0.13779744505882263
1761131799482210300,6.542210205078125,-0.11041259765625,-0.09351468086242676,-0.085002601146698
1761131799492210400,6.55221044921875,-0.20241355895996094,-0.09451818466186523,-0.042726337909698486
1761131799502210300,6.562210205078125,-0.3114938735961914,-0.08057165145874023,-0.023858070373535156
1761131799512210400,6.57221044921875,-0.4401702880859375,-0.015430927276611328,0.00344085693359375
1761131799522210300,6.582210205078125,-0.5693540573120117,0.005452871322631836,0.06546372175216675
1761131799532210400,6.59221044921875,-0.7256603240966797,-0.02159714698791504,0.13077247142791748
1761131799542211300,6.60221142578125,-0.7204694747924805,0.025060653686523438,0.12271851301193237
1761131799552211200,6.612211181640625,-0.5613918304443359,0.05135679244995117,0.038742244243621826
1761131799562211300,6.62221142578125,-0.27695274353027344,0.054718971252441406,-0.09654277563095093
1761131799572211200,6.632211181640625,0.01849842071533203,0.02432394027709961,-0.16011355817317963
1761131799582211300,6.64221142578125,0.27311134338378906,-0.003987550735473633,-0.167094424366951
1761131799592211200,6.652211181640625,0.4542226791381836,-0.05958294868469238,-0.09501031041145325
1761131799602211300,6.66221142578125,0.5265111923217773,-0.07783842086791992,-0.08262333273887634
1761131799612211200,6.672211181640625,0.5932893753051758,-0.08197355270385742,-0.07901999354362488
1761131799622211300,6.68221142578125,0.5828170776367188,-0.0775914192199707,-0.09865888953208923
1761131799632211200,6.692211181640625,0.49030590057373047,-0.07700204849243164,-0.15211938321590424
1761131799642210300,6.702210205078125,0.35871410369873047,-0.04160594940185547,-0.1449967324733734
1761131799652210400,6.71221044921875,0.21152210235595703,-0.012981176376342773,-0.14042192697525024
1761131799662210300,6.722210205078125,0.0959768295288086,0.042168617248535156,-0.11005774140357971
1761131799672210400,6.73221044921875,0.02346515655517578,0.08286190032958984,-0.12004189193248749
1761131799682210600,6.74221044921875,-0.02077007293701172,0.0723111629486084,-0.16324105858802795
1761131799692210400,6.75221044921875,-0.0038328170776367188,0.04173469543457031,-0.1588582992553711
1761131799702210600,6.76221044921875,-0.11692619323730469,-0.05286264419555664,-0.21523675322532654
1761131799712210700,6.772210693359375,0.15962600708007812,0.08010387420654297,-0.2818029224872589
1761131799722210600,6.78221044921875,0.3855018615722656,0.1741032600402832,-0.23429182171821594
1761131799732210700,6.792210693359375,0.4918632507324219,0.1695253849029541,-0.19620078802108765
1761131799742211300,6.80221142578125,0.3909597396850586,0.05568981170654297,-0.1348695158958435
1761131799752211500,6.81221142578125,0.20747661590576172,0.0017304420471191406,-0.15750868618488312
1761131799762211300,6.82221142578125,0.07755756378173828,0.08310461044311523,-0.18729133903980255
1761131799772211500,6.83221142578125,-0.023174285888671875,0.10276365280151367,-0.1783677339553833
1761131799782211300,6.84221142578125,-0.0903310775756836,0.16768193244934082,-0.0879201740026474
1761131799792211500,6.85221142578125,-0.13367557525634766,0.19004297256469727,-0.05274327099323273
1761131799802211800,6.8622119140625,-0.19160175323486328,0.1485123634338379,-0.040522098541259766
1761131799812212000,6.8722119140625,-0.23064899444580078,0.0887753963470459,-0.11297471821308136
1761131799822211800,6.8822119140625,-0.23156356811523438,0.09185385704040527,-0.10752265155315399
1761131799832212000,6.8922119140625,-0.34281444549560547,-0.0073239803314208984,-0.27068769931793213
1761131799842211000,6.902211181640625,-0.36316776275634766,-0.008088350296020508,-0.3250204622745514
1761131799852210700,6.912210693359375,-0.3692283630371094,-0.03961825370788574,-0.3797656297683716
1761131799862210600,6.92221044921875,-0.33708953857421875,-0.06331181526184082,-0.3191896080970764
1761131799872210200,6.932210205078125,-0.2883110046386719,-0.10305571556091309,-0.22027863562107086
1761131799882210600,6.94221044921875,-0.27515506744384766,-0.1225433349609375,-0.1149580180644989
1761131799892212000,6.9522119140625,-0.2813453674316406,-0.14816999435424805,-0.06753341853618622
1761131799902211800,6.9622119140625,-0.24704647064208984,-0.14646196365356445,-0.01670461893081665
1761131799922211800,6.9822119140625,-0.1584024429321289,-0.12716984748840332,-0.06216453015804291
1761131799932212000,6.9922119140625,-0.08760643005371094,-0.12282633781433105,-0.0724390298128128
1761131799942212900,7.002212890625,-0.04601764678955078,-0.15005207061767578,-0.07413415610790253
1761131799952212700,7.012212646484375,0.0048770904541015625,-0.1618051528930664,-0.06453005969524384
1761131799962212900,7.022212890625,0.03416728973388672,-0.1589488983154297,-0.06283871829509735
1761131799972212700,7.032212646484375,0.030180931091308594,-0.17139482498168945,-0.13220880925655365
1761131799982212900,7.042212890625,0.014589309692382812,-0.17805862426757812,-0.18258827924728394
1761131799992212700,7.052212646484375,-0.036513328552246094,-0.11438226699829102,-0.1675175130367279
1761131800002179600,7.0621796875,-0.07532596588134766,-0.042293548583984375,-0.15403419733047485
1761131800012146200,7.072146240234375,-0.11381149291992188,-0.0026166439056396484,-0.04081001877784729
1761131800022112800,7.08211279296875,-0.13771915435791016,0.06981110572814941,0.0997907966375351
1761131800032079600,7.09207958984375,-0.1926441192626953,0.10366678237915039,0.16885662078857422
1761131800042045400,7.10204541015625,-0.1351604461669922,0.09987401962280273,0.1840524971485138
1761131800052012000,7.112011962890625,-0.051589012145996094,0.07337522506713867,0.17928104102611542
1761131800061978600,7.121978515625,0.05557441711425781,0.05811357498168945,0.15973259508609772
1761131800071945200,7.1319453125,0.0716094970703125,0.014875411987304688,0.16906090080738068
1761131800081912000,7.141912109375,0.07567787170410156,-0.03314948081970215,0.1314506083726883
1761131800091878700,7.151878662109375,0.08695316314697266,-0.009447336196899414,0.10460895299911499
1761131800101844700,7.1618447265625,0.10552501678466797,0.052063941955566406,0.06424179673194885
1761131800111811600,7.1718115234375,0.10267066955566406,0.06527471542358398,0.06391465663909912
1761131800121778200,7.181778076171875,0.14304637908935547,0.07324790954589844,0.1535348743200302
1761131800131744800,7.191744873046875,0.16920757293701172,0.0951089859008789,0.21275046467781067
1761131800141712400,7.20171240234375,0.1955738067626953,0.1401519775390625,0.23939427733421326
1761131800151679500,7.211679443359375,0.1577167510986328,0.08994936943054199,0.24164173007011414
1761131800161646000,7.22164599609375,0.07727527618408203,0.06609869003295898,0.20798225700855255
1761131800171613200,7.23161328125,-0.017068862915039062,0.06882023811340332,0.15503817796707153
1761131800181579300,7.241579345703125,-0.039246559143066406,0.053229570388793945,0.11839212477207184
1761131800191544800,7.251544921875,0.012956619262695312,0.04659295082092285,0.1355748027563095
1761131800201511400,7.261511474609375,0.08918476104736328,0.03298592567443848,0.2001190483570099
1761131800211478000,7.27147802734375,0.17273426055908203,-0.014340043067932129,0.2589360475540161
1761131800221444900,7.28144482421875,0.17276573181152344,-0.012264013290405273,0.24083924293518066
1761131800231411500,7.291411376953125,0.22098827362060547,-0.006479740142822266,0.2785041034221649
1761131800241377300,7.301377197265625,0.19768810272216797,0.002839326858520508,0.22754982113838196
1761131800251344000,7.31134375,0.08359146118164062,-0.010368824005126953,0.20240336656570435
1761131800261310500,7.321310546875,0.10357666015625,0.021609902381896973,0.1080569326877594
1761131800271277300,7.33127734375,0.16875267028808594,0.08820390701293945,-0.00036525726318359375
1761131800281244000,7.341243896484375,0.2430868148803711,0.10628771781921387,-0.032740622758865356
1761131800291209700,7.351209716796875,0.21676063537597656,0.06246685981750488,-0.013599276542663574
1761131800301209600,7.361209716796875,0.2000274658203125,0.07101202011108398,0.023737609386444092
1761131800311209700,7.371209716796875,0.18321895599365234,0.11792886257171631,-0.032891809940338135
1761131800321209600,7.381209716796875,0.20455551147460938,0.1725451946258545,-0.10482946038246155
1761131800331209700,7.391209716796875,0.1707744598388672,0.1817455291748047,-0.09438708424568176
1761131800341210400,7.40121044921875,0.16101455688476562,0.166534423828125,-0.03316006064414978
1761131800351210500,7.41121044921875,0.10347461700439453,0.10770738124847412,-0.04840931296348572
1761131800361210400,7.42121044921875,0.06997203826904297,0.09141063690185547,-0.09903484582901001
1761131800371210500,7.43121044921875,0.05799293518066406,0.11820042133331299,-0.1848873794078827
1761131800381210400,7.44121044921875,0.04111003875732422,0.10453152656555176,-0.2763883173465729
1761131800391210500,7.45121044921875,-0.004550933837890625,0.05223870277404785,-0.338753342628479
1761131800401210600,7.461210693359375,-0.11727333068847656,0.0065724849700927734,-0.36422157287597656
1761131800411210500,7.47121044921875,-0.2203969955444336,-0.011092901229858398,-0.3983023762702942
1761131800421210600,7.481210693359375,-0.22049331665039062,-0.01273488998413086,-0.3871307671070099
1761131800431210500,7.49121044921875,-0.29711437225341797,-0.050478577613830566,-0.429609477519989
1761131800441209600,7.501209716796875,-0.22301006317138672,-0.053638458251953125,-0.3550928235054016
1761131800451209200,7.511209228515625,-0.13710594177246094,-0.09853506088256836,-0.25001755356788635
1761131800461208600,7.52120849609375,-0.013201713562011719,-0.09590446949005127,-0.1337185800075531
1761131800471208200,7.531208251953125,0.10314178466796875,-0.12210476398468018,-0.04158872365951538
1761131800481207800,7.541207763671875,0.22863483428955078,-0.14613401889801025,0.021355628967285156
1761131800491207200,7.551207275390625,0.3394641876220703,-0.2000439167022705,0.04497364163398743
1761131800501207300,7.561207275390625,0.3925657272338867,-0.22670495510101318,0.04472225904464722
1761131800511207200,7.571207275390625,0.49822521209716797,-0.19327712059020996,0.013062864542007446
1761131800521207300,7.581207275390625,0.6015024185180664,-0.12908709049224854,0.052962541580200195
1761131800531207200,7.591207275390625,0.5950889587402344,-0.12964928150177002,0.12849435210227966
1761131800541208000,7.6012080078125,0.4482288360595703,-0.10570871829986572,0.21272149682044983
1761131800551208000,7.6112080078125,0.27845191955566406,-0.0701446533203125,0.2710537910461426
1761131800561208000,7.6212080078125,0.0976419448852539,-0.005558490753173828,0.30722182989120483
1761131800571208200,7.631208251953125,-0.1039133071899414,0.041077375411987305,0.3341953754425049
1761131800581208000,7.6412080078125,-0.2714681625366211,0.06429910659790039,0.3870519697666168
1761131800591209000,7.651208984375,-0.4340391159057617,0.07274281978607178,0.42971619963645935
1761131800601208800,7.661208740234375,-0.5463552474975586,0.09622776508331299,0.4282970726490021
1761131800611208700,7.671208740234375,-0.5511569976806641,0.12835323810577393,0.40801456570625305
1761131800621208800,7.681208740234375,-0.46781158447265625,0.18192601203918457,0.4012027680873871
1761131800631208700,7.691208740234375,-0.3155403137207031,0.2022387981414795,0.44098395109176636
1761131800641208000,7.7012080078125,-0.17086219787597656,0.1363821029663086,0.494663268327713
1761131800651208000,7.7112080078125,-0.043216705322265625,0.06992125511169434,0.5526739358901978
1761131800661207800,7.721207763671875,0.05797100067138672,0.0524897575378418,0.4998548924922943
1761131800671208000,7.7312080078125,0.058704376220703125,0.05156850814819336,0.4845731258392334
1761131800681207800,7.741207763671875,0.1265850067138672,0.03810262680053711,0.3289685845375061
1761131800691208000,7.7512080078125,0.0940713882446289,0.04041266441345215,0.23016583919525146
1761131800701207800,7.761207763671875,0.03294849395751953,-0.003757476806640625,0.21062007546424866
1761131800711207700,7.771207763671875,-0.001861572265625,-0.017128705978393555,0.17923054099082947
1761131800721207800,7.781207763671875,0.025447845458984375,0.01064753532409668,0.1273672878742218
1761131800731207700,7.791207763671875,0.06688213348388672,0.025032520294189453,0.0643768310546875
1761131800741208600,7.80120849609375,0.08895206451416016,0.011460065841674805,0.04811739921569824
1761131800751208400,7.81120849609375,0.08703422546386719,-0.04765033721923828,0.03797060251235962
1761131800761208000,7.8212080078125,0.053969383239746094,-0.04947495460510254,0.005329787731170654
1761131800771208400,7.83120849609375,0.03289031982421875,-0.04216170310974121,-0.04221317172050476
1761131800781208000,7.8412080078125,-0.031136512756347656,-0.05027604103088379,-0.08791711926460266
1761131800791208000,7.8512080078125,-0.0973653793334961,-0.06189560890197754,-0.10859853029251099
1761131800801208000,7.8612080078125,-0.12039375305175781,-0.0572812557220459,-0.10981163382530212
1761131800811207400,7.87120751953125,-0.15292835235595703,-0.05791282653808594,-0.08390545845031738
1761131800821207600,7.88120751953125,-0.19027423858642578,-0.07291173934936523,-0.08368146419525146
1761131800831207000,7.89120703125,-0.17511844635009766,-0.07769608497619629,-0.08726084232330322
1761131800841206000,7.9012060546875,-0.1051950454711914,-0.08132076263427734,-0.08951166272163391
1761131800851206100,7.9112060546875,-0.018850326538085938,-0.07393932342529297,-0.09562882781028748
1761131800861206000,7.9212060546875,0.060097694396972656,-0.10883045196533203,-0.15810872614383698
1761131800871206100,7.9312060546875,0.13170814514160156,-0.1481001377105713,-0.19456127285957336
1761131800881206000,7.9412060546875,0.15299701690673828,-0.1564342975616455,-0.24737021327018738
1761131800891206100,7.9512060546875,0.17435646057128906,-0.11762547492980957,-0.22502321004867554
1761131800901206000,7.9612060546875,0.15751266479492188,-0.08644652366638184,-0.23294517397880554
1761131800911206100,7.9712060546875,0.1599712371826172,-0.034177303314208984,-0.26292622089385986
1761131800921206000,7.9812060546875,0.217620849609375,-0.011025190353393555,-0.293104350566864
1761131800931206100,7.9912060546875,0.19163131713867188,-0.04342293739318848,-0.2975350320339203
1761131800941206300,8.001206298828125,0.10134220123291016,-0.08177375793457031,-0.3020297586917877
1761131800951205400,8.011205322265624,0.04241466522216797,-0.11377906799316406,-0.29818156361579895
1761131800961205500,8.02120556640625,0.0026807785034179688,-0.13383936882019043,-0.3091564476490021
1761131800971205400,8.031205322265626,0.005818367004394531,-0.14569950103759766,-0.32167041301727295
1761131800981204700,8.041204833984375,0.042095184326171875,-0.09847450256347656,-0.29826632142066956
1761131800991204600,8.05120458984375,0.0923919677734375,-0.10001778602600098,-0.34678658843040466
1761131801001204700,8.061204833984375,0.08966350555419922,-0.10235071182250977,-0.3761816620826721
1761131801011204400,8.071204345703125,0.06762886047363281,-0.051203012466430664,-0.39685723185539246
1761131801021204200,8.081204345703124,0.00250244140625,0.03366971015930176,-0.26626521348953247
1761131801071204000,8.1312041015625,-0.0628194808959961,0.009669780731201172,-0.13245892524719238
1761131801081204200,8.141204345703125,-0.0714120864868164,-0.023508548736572266,-0.20810092985630035
1761131801091204900,8.151204833984375,-0.07771015167236328,-0.03466439247131348,-0.13551878929138184
1761131801101204700,8.161204833984375,-0.09132003784179688,-0.06676602363586426,-0.10052783787250519
1761131801111205000,8.171205078125,-0.06453895568847656,-0.0639500617980957,-0.07136838883161545
1761131801121205200,8.181205322265624,-0.057342529296875,-0.04963803291320801,0.05370267480611801
1761131801131206000,8.191205810546874,-0.02918529510498047,-0.018353939056396484,0.14384140074253082
1761131801141206800,8.201206787109374,-0.0299835205078125,-0.014808893203735352,0.14801500737667084
1761131801151206700,8.21120654296875,-0.09808349609375,0.0042934417724609375,0.20218132436275482
1761131801161207000,8.22120703125,-0.1283397674560547,0.11649656295776367,0.23796896636486053
1761131801171207000,8.23120703125,-0.22618389129638672,0.12587761878967285,0.2836760878562927
1761131801181207000,8.24120703125,-0.2621898651123047,0.08211755752563477,0.34043750166893005
1761131801191207000,8.25120703125,-0.363250732421875,0.02834796905517578,0.4335097074508667
1761131801201207000,8.26120703125,-0.40467071533203125,-0.06742000579833984,0.4440796375274658
1761131801211207200,8.271207275390625,-0.4032459259033203,-0.12595391273498535,0.3373792767524719
1761131801221207000,8.28120703125,-0.35667896270751953,-0.08685970306396484,0.27502918243408203
1761131801231207000,8.29120703125,-0.6551361083984375,-0.32393980026245117,-0.08066599071025848
1761131801241206800,8.301206787109376,-0.24570941925048828,0.16909337043762207,0.11352677643299103
1761131801251207200,8.311207275390625,-0.25089263916015625,0.19599604606628418,0.14936016499996185
1761131801261207300,8.321207275390625,-0.17713642120361328,0.10469233989715576,-0.649021327495575
1761131801271206400,8.331206298828125,-0.7396030426025391,0.4119490385055542,-0.2813183069229126
1761131801281207300,8.341207275390625,0.15813064575195312,0.446216344833374,0.23162545263767242
1761131801291207200,8.351207275390625,-0.2767629623413086,-0.457027792930603,1.2119026184082031
1761131801301207000,8.36120703125,-0.586644172668457,-0.8421182632446289,1.7585045099258423
1761131801311207700,8.371207763671874,-0.63385009765625,-0.20836937427520752,1.2298123836517334
1761131801321207600,8.38120751953125,-0.6370697021484375,-0.17978274822235107,1.2722978591918945
1761131801331207200,8.391207275390625,-0.12082290649414062,0.6850892305374146,-0.1155083179473877
1761131801341207300,8.401207275390625,0.38698863983154297,0.5963994264602661,-0.28912585973739624
1761131801351208000,8.4112080078125,0.3547487258911133,0.0015048980712890625,-0.08837145566940308
1761131801361208800,8.421208740234375,0.2130298614501953,-0.013932228088378906,-0.18951541185379028
1761131801371208700,8.431208740234375,-0.25272560119628906,-0.1470392942428589,-0.3142915964126587
1761131801381209300,8.441209228515625,-1.0842056274414062,-0.4511510133743286,-0.04507070779800415
1761131801391209500,8.45120947265625,-1.5339393615722656,-0.07599747180938721,-0.029897451400756836
1761131801401209600,8.461209716796875,-0.9823150634765625,0.8432114124298096,-0.3647735118865967
1761131801411209500,8.47120947265625,-0.7565412521362305,0.6101971864700317,-0.34537506103515625
1761131801421209600,8.481209716796876,-0.6301107406616211,0.18211328983306885,-0.4017065763473511
1761131801431209500,8.49120947265625,-0.22226524353027344,-0.022330284118652344,-0.5331095457077026
1761131801441208600,8.50120849609375,0.2068471908569336,-0.2139066457748413,-0.5418369174003601
1761131801451208700,8.511208740234375,0.5593700408935547,-0.4093014597892761,-0.5250353813171387
1761131801461208300,8.521208251953125,0.7287740707397461,-0.37792396545410156,-0.5610975623130798
1761131801471208200,8.531208251953124,0.8661212921142578,-0.17842984199523926,-0.5904523134231567
1761131801481208300,8.541208251953124,0.8515853881835938,-0.0788261890411377,-0.48071515560150146
1761131801491208200,8.551208251953126,0.4592151641845703,-0.053839147090911865,-0.46435654163360596
1761131801501208300,8.561208251953126,-0.01595020294189453,-0.1062241792678833,-0.18095409870147705
1761131801511207400,8.57120751953125,0.47019481658935547,-0.10873371362686157,0.471271812915802
1761131801521207600,8.58120751953125,-0.2705516815185547,-0.2792411148548126,0.02670598030090332
1761131801531207700,8.591207763671875,-0.5086345672607422,0.02255314588546753,-0.331667423248291
1761131801541208600,8.60120849609375,-0.35039520263671875,-0.0205327570438385,-0.6608919501304626
1761131801551209000,8.611208984375,-0.0020227432250976562,-0.11227881908416748,-0.9698433876037598
1761131801561209000,8.621208984375,0.3018627166748047,-0.29141348600387573,-1.4477143287658691
1761131801571209000,8.631208984375,0.6427459716796875,-0.4573577046394348,-1.7122454643249512
1761131801581209000,8.641208984375,0.9275808334350586,-0.7087197303771973,-1.6854853630065918
1761131801591209000,8.651208984375,1.1400432586669922,-0.8414269685745239,-1.4248275756835938
1761131801601209000,8.661208984375,1.2797861099243164,-0.8301512598991394,-1.0772595405578613
1761131801611209000,8.671208984375,1.3872108459472656,-0.7114966511726379,-0.7757579684257507
1761131801621209000,8.681208984375,1.5599174499511719,-0.5252805948257446,-0.4785229563713074
1761131801631209000,8.691208984375,1.586440086364746,-0.3125734329223633,-0.24526441097259521
1761131801641208800,8.701208740234375,1.487715721130371,-0.26092463731765747,-0.04105687141418457
1761131801651209000,8.711208984375,1.5220823287963867,-0.2043258249759674,-0.04062837362289429
1761131801661208800,8.721208740234376,1.5910320281982422,-0.10519284009933472,-0.05861753225326538
1761131801671208700,8.731208740234376,1.6129817962646484,-0.04088595509529114,-0.02907276153564453
1761131801681208800,8.741208740234375,1.3655738830566406,0.08524404466152191,0.013801097869873047
1761131801691208700,8.751208740234375,0.7703876495361328,0.33690327405929565,-0.16361698508262634
1761131801701208800,8.761208740234375,0.5830659866333008,-0.21926598250865936,0.3207699954509735
1761131801711208700,8.771208740234375,0.057433128356933594,-0.4855365455150604,0.3425191044807434
1761131801721208600,8.78120849609375,-0.481231689453125,-0.4679999053478241,0.11654341220855713
1761131801731208000,8.7912080078125,-0.7934999465942383,-0.26602181792259216,-0.19634908437728882
1761131801741208800,8.801208740234374,-0.9441003799438477,-0.08350673317909241,-0.397701233625412
1761131801751208400,8.81120849609375,-0.9860725402832031,0.023526698350906372,-0.44239136576652527
1761131801761208600,8.82120849609375,-1.0443620681762695,-0.06769704818725586,-0.33985069394111633
1761131801771208000,8.8312080078125,-1.0403079986572266,-0.1427881121635437,-0.36065638065338135
1761131801781207800,8.841207763671875,-1.213688850402832,-0.15073412656784058,-0.02260720729827881
1761131801791208000,8.8512080078125,-1.1601009368896484,-0.1028253436088562,0.009243741631507874
1761131801801208000,8.8612080078125,-1.0282011032104492,0.01389932632446289,-0.0006575286388397217
1761131801811208700,8.871208740234374,-0.8900117874145508,0.05392181873321533,-0.043902814388275146
1761131801821208600,8.88120849609375,-0.8894729614257812,0.0499119758605957,-0.034718453884124756
1761131801831208700,8.891208740234376,-0.5303030014038086,-0.06293177604675293,-0.06508465111255646
1761131801841207800,8.901207763671875,-0.43466949462890625,-0.1938578486442566,-0.046781569719314575
1761131801851208000,8.9112080078125,-0.3772916793823242,-0.19585025310516357,-0.18564820289611816
1761131801861207800,8.921207763671875,-0.37696361541748047,-0.17729264497756958,-0.13232365250587463
1761131801871208400,8.93120849609375,-0.26607513427734375,-0.3528524935245514,-0.19767707586288452
1761131801881208600,8.94120849609375,-0.15469741821289062,-0.28093141317367554,-0.3501397371292114
1761131801891208400,8.95120849609375,0.07261848449707031,-0.2980630695819855,-0.3997673988342285
1761131801901208600,8.96120849609375,0.21265125274658203,-0.3744528591632843,-0.36318033933639526
1761131801911208400,8.97120849609375,0.29627513885498047,-0.36935198307037354,-0.24785751104354858
1761131801921208600,8.98120849609375,0.3473930358886719,-0.3590817153453827,-0.07584303617477417
1761131801931208400,8.99120849609375,0.46663665771484375,-0.26488420367240906,0.046962738037109375
1761131801941209300,9.001209228515625,0.49834632873535156,-0.06488561630249023,0.07673001289367676
1761131801961209300,9.021209228515625,0.44713592529296875,0.1311982274055481,0.14526879787445068
1761131801971209500,9.03120947265625,0.4232921600341797,0.19782224297523499,0.13195347785949707
1761131801981209300,9.041209228515624,0.2934846878051758,0.2166672945022583,0.20562756061553955
1761131801991209500,9.05120947265625,0.08841609954833984,0.17721816897392273,0.25535452365875244
1761131802001209300,9.061209228515626,0.09564781188964844,0.16899028420448303,0.3011901378631592
1761131802011209500,9.07120947265625,-0.2856912612915039,0.0668596625328064,0.15575015544891357
1761131802021209300,9.081209228515625,-0.3736906051635742,0.08781188726425171,0.04946470260620117
1761131802031210000,9.0912099609375,-0.47043418884277344,0.11807990074157715,-0.0050057172775268555
1761131802041209300,9.101209228515625,-0.46816349029541016,0.10531735420227051,0.004923224449157715
1761131802051209700,9.111209716796875,-0.5748214721679688,0.17697477340698242,0.007589936256408691
1761131802061209600,9.121209716796875,-0.5822563171386719,0.17336922883987427,0.11335468292236328
1761131802071210200,9.131210205078125,-0.4727191925048828,0.11398589611053467,0.1489008665084839
1761131802081210000,9.141210205078124,-0.27707481384277344,0.09507644176483154,0.14955580234527588
1761131802091210200,9.151210205078126,-0.07192516326904297,0.020345687866210938,0.0984640121459961
1761131802101210000,9.161210205078126,0.08282947540283203,-0.032090187072753906,0.06444776058197021
1761131802111210200,9.171210205078125,0.1992969512939453,-0.11633238196372986,-0.007224559783935547
1761131802121210000,9.181210205078125,0.2611227035522461,-0.14813899993896484,-0.13622808456420898
1761131802131210200,9.191210205078125,0.28516101837158203,-0.1224081814289093,-0.29870545864105225
1761131802141211100,9.201211181640625,0.3259296417236328,-0.07179495692253113,-0.4889492988586426
1761131802151211000,9.2112109375,0.2915325164794922,-0.10327264666557312,-0.5336117744445801
1761131802161211100,9.221211181640625,0.31778717041015625,-0.18466541171073914,-0.4182403087615967
1761131802171211000,9.2312109375,0.2852926254272461,-0.2121899127960205,-0.3430948257446289
1761131802181211100,9.241211181640624,0.15808486938476562,-0.16732051968574524,-0.2882441282272339
1761131802191211000,9.2512109375,-0.0896148681640625,-0.12862184643745422,-0.2346196174621582
1761131802201211100,9.261211181640626,-0.28210926055908203,-0.09152400493621826,-0.2100774049758911
1761131802211211000,9.2712109375,-0.4235963821411133,-0.13987964391708374,-0.10360491275787354
1761131802221211100,9.281211181640625,-0.5400962829589844,-0.15011632442474365,-0.13322293758392334
1761131802231211000,9.2912109375,-0.6224641799926758,-0.16653203964233398,-0.16516399383544922
1761131802241210000,9.301210205078124,-0.5657138824462891,-0.18889647722244263,-0.15642976760864258
1761131802251210200,9.311210205078124,-0.48010730743408203,-0.22074371576309204,-0.23771584033966064
1761131802261210400,9.32121044921875,-0.4830665588378906,-0.22804993391036987,-0.2696692943572998
1761131802271210200,9.331210205078126,-0.10052871704101562,-0.2522010803222656,-0.07714200019836426
1761131802281210400,9.34121044921875,0.1120443344116211,-0.2730695605278015,0.011122703552246094
1761131802291210200,9.351210205078125,0.090240478515625,-0.815707802772522,0.8205148577690125
1761131802301210000,9.361210205078125,0.11863231658935547,-0.35049334168434143,-0.5148436427116394
1761131802311210200,9.371210205078125,-0.19237327575683594,0.47678422927856445,-0.6973133683204651
1761131802321210000,9.381210205078125,0.5527677536010742,0.11911576986312866,-0.31985557079315186
1761131802331210200,9.391210205078124,0.5988368988037109,-0.20480090379714966,0.12251067161560059
1761131802341211000,9.4012109375,0.4071178436279297,-0.8705140352249146,1.165493130683899
1761131802351211000,9.4112109375,0.037471771240234375,-0.13531279563903809,-0.19679927825927734
1761131802361211000,9.4212109375,-0.23884868621826172,0.49834901094436646,-0.4746134281158447
1761131802371211000,9.4312109375,-0.24277496337890625,0.5173872113227844,-0.507215142250061
1761131802381211100,9.441211181640625,0.32802295684814453,-0.13355889916419983,0.3130577802658081
1761131802391211000,9.4512109375,0.2645301818847656,0.18731743097305298,-0.02555316686630249
1761131802401211100,9.461211181640625,0.26321887969970703,-0.022887051105499268,0.22945910692214966
1761131802411211000,9.4712109375,0.1928119659423828,-0.10740205645561218,0.3134901821613312
1761131802421211100,9.481211181640624,0.10335350036621094,-0.09891250729560852,0.27925625443458557
1761131802431211000,9.4912109375,0.09547805786132812,-0.0523037314414978,0.23569369316101074
1761131802441210000,9.501210205078126,0.10013103485107422,0.01715761423110962,0.2421482801437378
1761131802451210200,9.511210205078125,0.08138656616210938,0.0690118670463562,0.13111186027526855
1761131802461210000,9.521210205078125,0.053381919860839844,0.12358450889587402,0.0679890513420105
1761131802471210000,9.5312099609375,-0.0009670257568359375,0.13735413551330566,0.01650381088256836
1761131802481209900,9.5412099609375,-0.05782032012939453,0.1185714602470398,0.0001437067985534668
1761131802491209700,9.551209716796874,-0.1028757095336914,0.05427825450897217,0.021714746952056885
1761131802501209900,9.5612099609375,-0.10262489318847656,0.05065399408340454,0.021961569786071777
1761131802510863600,9.570863525390624,-0.12889480590820312,-0.013645648956298828,-0.115750253200531
1761131802520863700,9.58086376953125,-0.047629356384277344,-0.014928340911865234,-0.21075135469436646
1761131802530863900,9.59086376953125,0.011883735656738281,-0.013451933860778809,-0.23199743032455444
1761131802540864500,9.600864501953126,0.032944679260253906,-0.02946382761001587,-0.21799403429031372
1761131802550864600,9.61086474609375,0.0347900390625,-0.05934256315231323,-0.14230746030807495
1761131802560864500,9.620864501953125,0.029524803161621094,-0.05399399995803833,-0.09271615743637085
1761131802570864600,9.63086474609375,0.010071754455566406,-0.05010366439819336,-0.03727942705154419
1761131802580864500,9.640864501953125,-0.00919342041015625,-0.0024364590644836426,-0.009528577327728271
1761131802590864600,9.65086474609375,-0.028405189514160156,-0.007074236869812012,0.007753551006317139
1761131802600864500,9.660864501953125,-0.03325939178466797,-0.06642645597457886,0.06170940399169922
1761131802610864600,9.67086474609375,-0.08605098724365234,-0.0919136106967926,0.06559908390045166
1761131802620864800,9.68086474609375,-0.13650989532470703,-0.11158165335655212,0.07724452018737793
1761131802630864600,9.69086474609375,-0.16781997680664062,-0.1231275200843811,0.06861245632171631
1761131802640863700,9.70086376953125,-0.20151042938232422,-0.12360119819641113,0.10255330801010132
1761131802650863900,9.71086376953125,-0.1753091812133789,-0.09544828534126282,0.07698667049407959
1761131802660863700,9.72086376953125,-0.010259628295898438,-0.03976619243621826,0.11677008867263794
1761131802670864000,9.73086376953125,0.05172920227050781,-0.07853937149047852,0.134521484375
1761131802680863700,9.74086376953125,0.12312602996826172,-0.11847296357154846,0.14377957582473755
1761131802690863900,9.75086376953125,0.19209957122802734,-0.18152868747711182,0.1149444580078125
1761131802700863700,9.76086376953125,0.24437904357910156,-0.20312440395355225,0.03725153207778931
1761131802710863600,9.770863525390626,0.29678821563720703,-0.15495452284812927,-0.07434320449829102
1761131802720863700,9.78086376953125,0.36371326446533203,-0.12131834030151367,-0.2199803590774536
1761131802730863600,9.790863525390625,0.3230171203613281,-0.08845403790473938,-0.2880064845085144
1761131802740864500,9.800864501953125,0.2537040710449219,-0.09754893183708191,-0.29082679748535156
1761131802750864400,9.810864501953125,0.20615768432617188,-0.10168161988258362,-0.2229723334312439
1761131802760864500,9.820864501953125,0.1371917724609375,-0.0810314416885376,-0.15941327810287476
1761131802770865000,9.830864990234375,0.11859130859375,0.007949113845825195,-0.13148272037506104
1761131802780864800,9.84086474609375,0.07849502563476562,0.09825897216796875,-0.08938592672348022
1761131802790864100,9.850864013671876,-0.026264190673828125,0.0939183235168457,-0.010280907154083252
1761131802800864000,9.860864013671875,-0.037609100341796875,0.05228835344314575,-0.01555544137954712
1761131802810864000,9.870864013671875,-0.09928607940673828,0.08171635866165161,-0.08212840557098389
1761131802830864100,9.890864013671875,-0.16101741790771484,0.06876993179321289,-0.1854785680770874
1761131802840863200,9.90086328125,-0.1466388702392578,0.04626798629760742,-0.13942378759384155
1761131802850863400,9.91086328125,-0.17554664611816406,0.017535626888275146,-0.10725891590118408
1761131802860863200,9.92086328125,-0.2022104263305664,0.016545891761779785,-0.12874817848205566
1761131802870863400,9.93086328125,-0.15948486328125,0.007623493671417236,-0.18541914224624634
1761131802880863200,9.94086328125,-0.15030956268310547,-0.04172241687774658,-0.235415518283844
1761131802890863400,9.95086328125,-0.026258468627929688,-0.03066098690032959,-0.2283722162246704
1761131802900863200,9.96086328125,0.042713165283203125,-0.03377795219421387,-0.19040840864181519
1761131802910863400,9.97086328125,0.07821178436279297,-0.06142258644104004,-0.16938942670822144
1761131802930862800,9.99086279296875,-0.056305885314941406,-0.11468607187271118,-0.3596377372741699
1761131802940863700,10.00086376953125,-0.05638408660888672,-0.10706889629364014,-0.3540922999382019
1761131802950863600,10.010863525390626,-0.18329906463623047,-0.18888428807258606,-0.3872913122177124
1761131802960863700,10.02086376953125,-0.142730712890625,-0.17236676812171936,-0.30041223764419556
1761131802970863000,10.030863037109375,-0.14313602447509766,-0.15780726075172424,-0.29423338174819946
1761131802980863200,10.04086328125,0.08591938018798828,-0.0624043345451355,-0.04554873704910278
1761131802990863000,10.050863037109375,0.15437793731689453,-0.07043656706809998,0.11133778095245361
1761131803000863200,10.06086328125,0.17723751068115234,-0.08234363794326782,0.18389278650283813
1761131803010863000,10.070863037109374,0.1498546600341797,-0.12272706627845764,0.13540393114089966
1761131803020863200,10.08086328125,0.19205665588378906,-0.14151042699813843,0.04401278495788574
1761131803030863000,10.090863037109376,0.23198413848876953,-0.10737258195877075,-0.0019098520278930664
1761131803040862500,10.100862548828125,0.2527151107788086,-0.13015952706336975,0.00045037269592285156
1761131803050862300,10.1108623046875,0.25428199768066406,-0.18602901697158813,0.07296794652938843
1761131803060862200,10.1208623046875,0.21292972564697266,-0.16238996386528015,0.10585540533065796
1761131803070862300,10.1308623046875,0.1312122344970703,-0.1453179121017456,0.1015424132347107
1761131803080862200,10.1408623046875,0.214996337890625,-0.19936621189117432,0.16263073682785034
1761131803090862800,10.15086279296875,0.41643238067626953,-0.19240018725395203,0.22049173712730408
1761131803100863000,10.160863037109374,0.35810089111328125,-0.04967722296714783,0.043867528438568115
1761131803110862800,10.17086279296875,0.04367637634277344,0.0798988938331604,-0.08071494102478027
1761131803120863000,10.180863037109376,-0.19893741607666016,0.10549640655517578,-0.14796817302703857
1761131803130863000,10.190863037109375,-0.2651205062866211,0.10951614379882812,0.06753230094909668
1761131803140863700,10.20086376953125,-0.2915229797363281,0.11808663606643677,0.34640514850616455
1761131803150864000,10.21086376953125,-0.20128154754638672,0.05790060758590698,0.5753709077835083
1761131803160864000,10.220864013671875,-0.1614675521850586,-0.04117065668106079,0.5893129706382751
1761131803170863900,10.23086376953125,-0.19592761993408203,-0.09662538766860962,0.4086386561393738
1761131803180863700,10.24086376953125,-0.04367256164550781,-0.07251328229904175,0.16110259294509888
1761131803190864000,10.25086376953125,0.2763662338256836,-0.13054409623146057,-0.024519920349121094
