time,seconds_elapsed,z,y,x
1761131793058854100,0.118854248046875,-0.22945626080036163,0.6674466133117676,0.353461891412735
1761131793068880100,0.128880126953125,-0.22945626080036163,0.6674466133117676,0.353461891412735
1761131793088880000,0.148880126953125,-0.22945626080036163,0.6674466133117676,0.353461891412735
1761131793098880000,0.1588798828125,-0.22945626080036163,0.6674466133117676,0.353461891412735
1761131793108880100,0.168880126953125,0.04726569727063179,0.27832546830177307,-0.04604396969079971
1761131793118880000,0.1788798828125,0.054596081376075745,0.2361757755279541,-0.11629346758127213
1761131793128880000,0.188880126953125,0.04909829422831535,0.1958586722612381,-0.18104518949985504
1761131793138880000,0.1988798828125,0.03443752974271774,0.14637859165668488,-0.2390773892402649
1761131793148880100,0.208880126953125,0.02099849283695221,0.09934195876121521,-0.28611400723457336
1761131793158880000,0.2188798828125,0.019165897741913795,0.0846811980009079,-0.3148246705532074
1761131793168880000,0.228880126953125,0.03871358558535576,0.12072224169969559,-0.3184898793697357
1761131793178880300,0.23888037109375,0.06986771523952484,0.18730655312538147,-0.3081051707267761
1761131793188880100,0.248880126953125,0.1382846236228943,0.25938865542411804,-0.2946661114692688
1761131793198880300,0.25888037109375,0.20059287548065186,0.2905427813529968,-0.2891683280467987
1761131793208880000,0.268880126953125,0.26656633615493774,0.3284164369106293,-0.2751184403896332
1761131793218880300,0.27888037109375,0.32337677478790283,0.35407277941703796,-0.2494620978832245
1761131793228880100,0.288880126953125,0.3661373555660248,0.3815616965293884,-0.20609065890312195
1761131793238878700,0.298878662109375,0.3905719518661499,0.4237114191055298,-0.14011721312999725
1761131793248878600,0.308878662109375,0.40340012311935425,0.48052188754081726,-0.06498079001903534
1761131793258878700,0.318878662109375,0.41745004057884216,0.5202280879020691,0.0022143865935504436
1761131793268878600,0.328878662109375,0.4406629204750061,0.5379431843757629,0.0541379339993
1761131793278878700,0.338878662109375,0.4724279046058655,0.5128977298736572,0.08040513843297958
1761131793288878600,0.348878662109375,0.5011385679244995,0.4683045744895935,0.07551821321249008
1761131793298878700,0.358878662109375,0.5188536643981934,0.4194353520870209,0.04375322163105011
1761131793308878600,0.368878662109375,0.5194645524024963,0.3589596748352051,-0.013057244941592216
1761131793318878700,0.378878662109375,0.5078580975532532,0.2661081850528717,-0.09308059513568878
1761131793328878600,0.388878662109375,0.48403435945510864,0.13171781599521637,-0.1981494128704071
1761131793338878700,0.398878662109375,0.44432809948921204,0.0009926559869199991,-0.3081051707267761
1761131793348878600,0.408878662109375,0.38201984763145447,-0.07292203605175018,-0.3948480188846588
1761131793358878700,0.418878662109375,0.30749428272247314,-0.028328875079751015,-0.43272167444229126
1761131793368878600,0.428878662109375,0.2335795909166336,0.12866349518299103,-0.41745004057884216
1761131793378878700,0.438878662109375,0.19448421895503998,0.38033998012542725,-0.3398701548576355
1761131793388878600,0.448878662109375,0.21525363624095917,0.6650031805038452,-0.20914499461650848
1761131793398878700,0.458878662109375,0.292833536863327,0.9136253595352173,-0.060704734176397324
1761131793408878800,0.46887890625,0.4015675485134125,1.0675634145736694,0.0645226389169693
1761131793418878700,0.478878662109375,0.5854379534721375,1.116432547569275,0.15798501670360565
1761131793428878800,0.48887890625,0.6929502487182617,1.0834459066390991,0.1549306958913803
1761131793438878000,0.4988779296875,0.7216609120368958,1.0449613332748413,0.03520110994577408
1761131793448877800,0.5088779296875,0.7131088376045227,0.634459912776947,-0.2592359483242035
1761131793458878000,0.5188779296875,0.6831763982772827,-0.2293035387992859,-0.6813437938690186
1761131793468877800,0.5288779296875,0.5701663494110107,-1.257389783859253,-1.0906234979629517
1761131793478878000,0.5388779296875,0.325209379196167,-1.8474855422973633,-1.360625982284546
1761131793488877800,0.5488779296875,0.008170322515070438,-2.002645254135132,-1.4449254274368286
1761131793498878000,0.5588779296875,-0.29359710216522217,-1.701488733291626,-1.3166437149047852
1761131793508877800,0.5688779296875,-0.5153411626815796,-1.0704649686813354,-1.049695611000061
1761131793518878000,0.5788779296875,-0.4878522455692291,-0.5597816109657288,-0.9550114274024963
1761131793528877800,0.5888779296875,-0.26916250586509705,0.33024901151657104,-0.8267297744750977
1761131793538878700,0.598878662109375,0.036880988627672195,1.0461831092834473,-0.6336963176727295
1761131793548878600,0.608878662109375,0.31726813316345215,1.5544229745864868,-0.43821945786476135
1761131793558878700,0.618878662109375,0.6007096171379089,1.7321847677230835,-0.24701863527297974
1761131793568878800,0.62887890625,0.8707120418548584,1.7468454837799072,-0.057039543986320496
1761131793578878700,0.638878662109375,1.0735193490982056,1.6271159648895264,0.1353830099105835
1761131793588878800,0.64887890625,1.1260536909103394,1.4035392999649048,0.31009048223495483
1761131793598878700,0.658878662109375,0.9892199039459229,1.0309114456176758,0.4542546570301056
1761131793608878600,0.668878662109375,0.7467064261436462,0.531223714351654,0.5379431843757629
1761131793618878700,0.678878662109375,0.5084689855575562,0.04069889709353447,0.5300019383430481
1761131793628878600,0.688878662109375,0.3191007375717163,-0.4913647174835205,0.39072468876838684
1761131793638878000,0.6988779296875,0.14011721312999725,-1.0710757970809937,0.08162686973810196
1761131793648877800,0.7088779296875,-0.15309810638427734,-1.6214654445648193,-0.5603924989700317
1761131793658878000,0.7188779296875,-0.35468363761901855,-1.6306284666061401,-0.9403507113456726
1761131793668877800,0.7288779296875,-0.5562691688537598,-1.3978887796401978,-1.1950814723968506
1761131793678878000,0.7388779296875,-0.7199810743331909,-0.970893919467926,-1.2885438203811646
1761131793688877800,0.7488779296875,-0.8116108179092407,-0.4406629204750061,-1.2457833290100098
1761131793698878000,0.7588779296875,-0.7792350053787231,0.07124216109514236,-1.1205558776855469
1761131793708877800,0.7688779296875,-0.6014732122421265,0.5171737670898438,-0.9953285455703735
1761131793718878000,0.7788779296875,-0.33452507853507996,0.8476518988609314,-0.8438339829444885
1761131793728877800,0.7888779296875,-0.024205535650253296,0.9441685676574707,-0.677067756652832
1761131793738878700,0.798878662109375,0.2726749777793884,0.8659778237342834,-0.5005277395248413
1761131793748878600,0.808878662109375,0.5194645524024963,0.6931029558181763,-0.32154420018196106
1761131793758878700,0.818878662109375,0.6746243238449097,0.47074803709983826,-0.13950635492801666
1761131793768878600,0.828878662109375,0.7137196660041809,0.25328001379966736,0.04253149405121803
1761131793778878700,0.838878662109375,0.6446918845176697,0.0694095641374588,0.22456933557987213
1761131793788878600,0.848878662109375,0.5096907019615173,-0.11385001242160797,0.36629006266593933
1761131793798878700,0.858878662109375,0.3704134225845337,-0.24518603086471558,0.42004621028900146
1761131793808878600,0.868878662109375,0.25557073950767517,-0.30627256631851196,0.3778965175151825
1761131793818878700,0.878878662109375,0.16027577221393585,-0.31787899136543274,0.2465604841709137
1761131793828878600,0.888878662109375,0.07658722996711731,-0.31115949153900146,0.047418415546417236
1761131793838877700,0.898877685546875,-0.0071013085544109344,-0.30260735750198364,-0.18165604770183563
1761131793848877800,0.9088779296875,-0.07551821321249008,-0.29710957407951355,-0.4052327275276184
1761131793858877700,0.918877685546875,-0.11827878654003143,-0.30688342452049255,-0.5884923338890076
1761131793868877800,0.9288779296875,-0.140269935131073,-0.3105486333370209,-0.7039458155632019
1761131793878877700,0.938877685546875,-0.15676330029964447,-0.27634015679359436,-0.7442629337310791
1761131793888877800,0.9488779296875,-0.16898059844970703,-0.23968824744224548,-0.7002806663513184
1761131793898877700,0.958877685546875,-0.17325665056705475,-0.20425806939601898,-0.6269767880439758
1761131793908877800,0.9688779296875,-0.16287194192409515,-0.17676913738250732,-0.5310709476470947
1761131793918877700,0.978877685546875,-0.1359938681125641,-0.16699528694152832,-0.42294782400131226
1761131793928877800,0.9888779296875,-0.11033753305673599,-0.1676061451435089,-0.30688342452049255
1761131793938878700,0.998878662109375,-0.08895725011825562,-0.15966489911079407,-0.1932624876499176
1761131793948878600,1.008878662109375,-0.08101600408554077,-0.1376737505197525,-0.09430231899023056
1761131793958878700,1.018878662109375,-0.08651378750801086,-0.12118039280176163,-0.028328875079751015
1761131793968878600,1.028878662109375,-0.10117455571889877,-0.12606731057167053,-0.0069485921412706375
1761131793978878700,1.038878662109375,-0.12927435338497162,-0.14866933226585388,-0.03199406713247299
1761131793988878600,1.048878662109375,-0.16836974024772644,-0.152334526181221,-0.07414376735687256
1761131793998878700,1.058878662109375,-0.20990857481956482,-0.11568260937929153,-0.10407616943120956
1761131794008878600,1.068878662109375,-0.2361757755279541,-0.06620252132415771,-0.10102184116840363
1761131794018878700,1.078878662109375,-0.23739750683307648,0.002825251780450344,-0.05948300287127495
1761131794028878600,1.088878662109375,-0.20746511220932007,0.0749073475599289,0.012599095702171326
1761131794038878000,1.0988779296875,-0.15187637507915497,0.12194397300481796,0.09812022745609283
1761131794048877800,1.1088779296875,-0.08223773539066315,0.10728321224451065,0.1757001131772995
1761131794058878000,1.1188779296875,-0.011988230049610138,0.021762074902653694,0.2355649173259735
1761131794068879000,1.128879150390625,0.04787656292319298,-0.09796751290559769,0.272827684879303
1761131794078879000,1.13887890625,0.08330674469470978,-0.19692768156528473,0.2856558561325073
1761131794088879000,1.148879150390625,0.09857837855815887,-0.2677880525588989,0.26916250586509705
1761131794098879000,1.15887890625,0.08941540122032166,-0.3905719518661499,0.19891299307346344
1761131794108879000,1.168879150390625,0.019776761531829834,-0.6917285323143005,-0.039324451237916946
1761131794118879000,1.17887890625,-0.0645226389169693,-0.829784095287323,-0.23724478483200073
1761131794128879000,1.188879150390625,-0.17631098628044128,-0.8041277527809143,-0.40278926491737366
1761131794138880000,1.1988798828125,-0.31497737765312195,-0.6257550716400146,-0.4803691506385803
1761131794148880000,1.2088798828125,-0.4432590901851654,-0.325209379196167,-0.4406629204750061
1761131794158879700,1.218879638671875,-0.5122868418693542,0.023594669997692108,-0.2842814028263092
1761131794168879900,1.2288798828125,-0.4841870665550232,0.3375793993473053,-0.05581781268119812
1761131794178880300,1.23888037109375,-0.3418554663658142,0.5251150131225586,0.15126550197601318
1761131794188880100,1.248880126953125,-0.13904820382595062,0.6851617097854614,0.3522401750087738
1761131794198880300,1.25888037109375,0.060093868523836136,0.7700719833374023,0.5562691688537598
1761131794208880000,1.268880126953125,0.18593211472034454,0.8097782135009766,0.7315874695777893
1761131794218880300,1.27888037109375,0.27145323157310486,0.6283512711524963,0.8946884870529175
1761131794228880100,1.288880126953125,0.32337677478790283,0.37972912192344666,1.041296124458313
1761131794238879200,1.298879150390625,0.3307071626186371,0.0895681157708168,1.1310933828353882
1761131794248879400,1.30887939453125,0.2629011273384094,-0.14989106357097626,1.1152108907699585
1761131794258879200,1.318879150390625,0.12423472106456757,-0.3594178259372711,0.9863182902336121
1761131794268879400,1.32887939453125,-0.06085744872689247,-0.5035820603370667,0.776791512966156
1761131794278879200,1.338879150390625,-0.25999951362609863,-0.5781075954437256,0.5049564838409424
1761131794288879400,1.34887939453125,-0.44570255279541016,-0.6019313335418701,0.20257818698883057
1761131794298879200,1.358879150390625,-0.5855907201766968,-0.5665011405944824,-0.060704734176397324
1761131794308879400,1.36887939453125,-0.6650031805038452,-0.4803691506385803,-0.24090997874736786
1761131794318879200,1.378879150390625,-0.6827182769775391,-0.3698025345802307,-0.325209379196167
1761131794328879400,1.38887939453125,-0.6399577260017395,-0.2384665161371231,-0.315435528755188
1761131794338880300,1.39888037109375,-0.5409975051879883,-0.07597636431455612,-0.22747094929218292
1761131794348880100,1.408880126953125,-0.3155882656574249,0.2111303061246872,-0.024052819237113
1761131794358880300,1.41888037109375,-0.14393512904644012,0.3589596748352051,0.11278099566698074
1761131794368878800,1.42887890625,0.01366810966283083,0.4121049642562866,0.23373231291770935
1761131794378879000,1.43887890625,0.132786825299263,0.38522690534591675,0.34002286195755005
1761131794388878800,1.44887890625,0.2085341215133667,0.3320816159248352,0.42615485191345215
1761131794398879000,1.45887890625,0.24640776216983795,0.282601535320282,0.4896848499774933
1761131794408879000,1.468879150390625,0.24090997874736786,0.22395847737789154,0.5251150131225586
1761131794418879000,1.47887890625,0.20120373368263245,0.18241962790489197,0.5183955430984497
1761131794428879000,1.488879150390625,0.14439326524734497,0.16348281502723694,0.46036332845687866
1761131794438878200,1.498878173828125,0.07780896127223969,0.16348281502723694,0.3528510332107544
1761131794448878000,1.508878173828125,0.0038942659739404917,0.16226108372211456,0.2160172164440155
1761131794458878200,1.518878173828125,-0.0645226389169693,0.16714800894260406,0.06574437022209167
1761131794468878300,1.52887841796875,-0.13232868909835815,0.1610393524169922,-0.07964155822992325
1761131794478878000,1.5388779296875,-0.19219347834587097,0.15187637507915497,-0.19570595026016235
1761131794488877800,1.5488779296875,-0.2361757755279541,0.16898059844970703,-0.2745075821876526
1761131794498878000,1.5588779296875,-0.2606103718280792,0.2062433809041977,-0.31726813316345215
1761131794512210700,1.572210693359375,-0.2575560510158539,0.2575560510158539,-0.32704198360443115
1761131794532210700,1.592210693359375,-0.16898059844970703,0.34429892897605896,-0.30077478289604187
1761131794542211600,1.602211669921875,-0.09506590664386749,0.34063372015953064,-0.26595544815063477
1761131794552211500,1.61221142578125,-0.0071013085544109344,0.30947959423065186,-0.19998200237751007
1761131794562211600,1.622211669921875,0.08819366991519928,0.28015807271003723,-0.102243572473526
1761131794572211500,1.63221142578125,0.18043431639671326,0.25877779722213745,0.014431691728532314
1761131794582211600,1.642211669921875,0.2897791862487793,0.21907155215740204,0.17692184448242188
1761131794592211500,1.65221142578125,0.3410918712615967,0.1750892549753189,0.24350616335868835
1761131794602211600,1.662211669921875,0.3814089894294739,0.12072224169969559,0.26366472244262695
1761131794612211500,1.67221142578125,0.41256311535835266,0.05474879592657089,0.23861923813819885
1761131794622211600,1.682211669921875,0.41806089878082275,0.002825251780450344,0.17875444889068604
1761131794632211500,1.69221142578125,0.3899610936641693,-0.0264962799847126,0.09201157838106155
1761131794642210600,1.70221044921875,0.33742669224739075,-0.04787656292319298,-0.022220224142074585
1761131794652210700,1.712210693359375,0.2647337317466736,-0.06925684958696365,-0.15355625748634338
1761131794662210600,1.72221044921875,0.18715384602546692,-0.0918588638305664,-0.28672486543655396
1761131794672210700,1.732210693359375,0.11018481850624084,-0.10835222154855728,-0.406454473733902
1761131794682210600,1.74221044921875,0.045433104038238525,-0.0924697294831276,-0.48953214287757874
1761131794692210700,1.752210693359375,0.008781188167631626,-0.057650405913591385,-0.525573194026947
1761131794702210600,1.76221044921875,0.0032834007870405912,0.0009926559869199991,-0.506025493144989
1761131794712210700,1.772210693359375,0.033826664090156555,0.12072224169969559,-0.4198935031890869
1761131794722210600,1.78221044921875,0.10346530377864838,0.27343854308128357,-0.2745075821876526
1761131794732210700,1.792210693359375,0.20181460678577423,0.42004621028900146,-0.0918588638305664
1761131794742211300,1.80221142578125,0.3294854462146759,0.5373323559761047,0.10422888398170471
1761131794752211500,1.81221142578125,0.4571562707424164,0.605749249458313,0.30214923620224
1761131794762211300,1.82221142578125,0.5707772374153137,0.5990297198295593,0.4750240743160248
1761131794772211500,1.83221142578125,0.6508005857467651,0.5440518856048584,0.5910884737968445
1761131794782211300,1.84221142578125,0.6758460402488708,0.48601967096328735,0.6424011588096619
1761131794792211500,1.85221142578125,0.6312528848648071,0.4744132161140442,0.6307947039604187
1761131794802211600,1.862211669921875,0.5371796488761902,0.4982369542121887,0.5550474524497986
1761131794812211500,1.87221142578125,0.35819610953330994,0.4841870665550232,0.2771037518978119
1761131794822211600,1.882211669921875,0.23663392663002014,0.34918585419654846,-0.03871358558535576
1761131794832211500,1.89221142578125,0.11446087807416916,0.08651378750801086,-0.43944117426872253
1761131794842210600,1.90221044921875,-0.018096882849931717,-0.16943874955177307,-0.8187885284423828
1761131794852210700,1.912210693359375,-0.17692184448242188,-0.353920042514801,-1.0429760217666626
1761131794862210600,1.92221044921875,-0.33880114555358887,-0.444938987493515,-1.0655781030654907
1761131794872210700,1.932210693359375,-0.45181119441986084,-0.4406629204750061,-0.8908706307411194
1761131794882210600,1.94221044921875,-0.4432590901851654,-0.43211081624031067,-0.6960045695304871
1761131794892210700,1.952210693359375,-0.3161991238594055,-0.1779908537864685,-0.4876995384693146
1761131794902210600,1.96221044921875,-0.13171781599521637,0.07185302674770355,-0.23541219532489777
1761131794912210700,1.972210693359375,0.016111571341753006,0.30398181080818176,0.009544769302010536
1761131794922210600,1.98221044921875,0.10285443812608719,0.3571271002292633,0.23923009634017944
1761131794932210700,1.992210693359375,0.16027577221393585,0.36995527148246765,0.4695262908935547
1761131794942211600,2.002211669921875,0.1877647042274475,0.3870594799518585,0.6949355602264404
1761131794952211500,2.01221142578125,0.16027577221393585,0.35590535402297974,0.8342128396034241
1761131794962211600,2.022211669921875,0.060093868523836136,0.272827684879303,0.8555931448936462
1761131794972211500,2.03221142578125,-0.08162686973810196,0.12194397300481796,0.7883979678153992
1761131794982211300,2.04221142578125,-0.2257910668849945,-0.03260493278503418,0.6515641212463379
1761131794992211500,2.05221142578125,-0.3589596748352051,-0.18715384602546692,0.44997861981391907
1761131795002211000,2.062211181640625,-0.4786892831325531,-0.3184898793697357,0.2105194330215454
1761131795012211200,2.072211181640625,-0.5849798321723938,-0.42355868220329285,-0.045433104038238525
1761131795022211000,2.082211181640625,-0.6753878593444824,-0.5096907019615173,-0.30566170811653137
1761131795032211200,2.092211181640625,-0.757854700088501,-0.5897140502929688,-0.5438991189002991
1761131795042210300,2.102210205078125,-0.8390997648239136,-0.6281985640525818,-0.7271587252616882
1761131795052210200,2.112210205078125,-0.9356164932250977,-0.5750532746315002,-0.8365035653114319
1761131795062210300,2.122210205078125,-0.9600511193275452,-0.44249552488327026,-0.7858017683029175
1761131795072210400,2.13221044921875,-0.9453903436660767,-0.254349023103714,-0.6556875109672546
1761131795082210300,2.142210205078125,-0.8745299577713013,-0.07353290170431137,-0.496862530708313
1761131795092210200,2.152210205078125,-0.7719045877456665,0.12133310735225677,-0.3197115957736969
1761131795112210400,2.17221044921875,-0.5562691688537598,0.35590535402297974,0.08712465316057205
1761131795122210300,2.182210205078125,-0.49579349160194397,0.36445748805999756,0.28871017694473267
1761131795132210200,2.192210205078125,-0.4695262908935547,0.32536208629608154,0.43592870235443115
1761131795142211000,2.202211181640625,-0.47563496232032776,0.2526691257953644,0.5110651254653931
1761131795152211200,2.212211181640625,-0.5104542970657349,0.1811978965997696,0.5177846550941467
1761131795162211000,2.222211181640625,-0.5715407729148865,0.09201157838106155,0.4640285074710846
1761131795172211200,2.232211181640625,-0.6576728224754333,-0.017333300784230232,0.36445748805999756
1761131795182211300,2.24221142578125,-0.7615199089050293,-0.1321759670972824,0.22456933557987213
1761131795192211200,2.252211181640625,-0.8733082413673401,-0.23296873271465302,0.05474879592657089
1761131795202211300,2.26221142578125,-0.9850965738296509,-0.29100093245506287,-0.12423472106456757
1761131795212211200,2.272211181640625,-1.0834459066390991,-0.30688342452049255,-0.292833536863327
1761131795222211300,2.28221142578125,-1.1646909713745117,-0.3050508201122284,-0.4198935031890869
1761131795232211200,2.292211181640625,-1.2294427156448364,-0.29710957407951355,-0.4913647174835205
1761131795242210300,2.302210205078125,-1.2789227962493896,-0.2726749777793884,-0.506025493144989
1761131795252210400,2.31221044921875,-1.3131312131881714,-0.23663392663002014,-0.47303876280784607
1761131795262210300,2.322210205078125,-1.340009331703186,-0.1938733607530594,-0.406454473733902
1761131795272210400,2.33221044921875,-1.3632221221923828,-0.15111279487609863,-0.27206411957740784
1761131795282210300,2.342210205078125,-1.3644438982009888,-0.13461942970752716,-0.18165604770183563
1761131795292210400,2.35221044921875,-1.3528374433517456,-0.10590875893831253,-0.09980010986328125
1761131795302210600,2.36221044921875,-1.3296245336532593,-0.072311170399189,-0.027718011289834976
1761131795312210700,2.372210693359375,-1.3064117431640625,-0.03321579843759537,0.03520110994577408
1761131795322210600,2.38221044921875,-1.2844204902648926,0.01687515154480934,0.10056369006633759
1761131795332210700,2.392210693359375,-1.2679271697998047,0.060246583074331284,0.15920674800872803
1761131795342211600,2.402211669921875,-1.261818528175354,0.09017898142337799,0.2062433809041977
1761131795352211500,2.41221142578125,-1.2624293565750122,0.11155926436185837,0.24350616335868835
1761131795362211600,2.422211669921875,-1.268537998199463,0.11339186131954193,0.2654972970485687
1761131795372211500,2.43221142578125,-1.2764792442321777,0.09689849615097046,0.27527114748954773
1761131795382211600,2.442211669921875,-1.2831988334655762,0.0645226389169693,0.2722168266773224
1761131795392211500,2.45221142578125,-1.2862530946731567,0.01992947794497013,0.25328001379966736
1761131795402211600,2.462211669921875,-1.2874748706817627,-0.03504839166998863,0.22334760427474976
1761131795412211500,2.47221142578125,-1.2795336246490479,-0.10285443812608719,0.18791742622852325
1761131795422211600,2.482211669921875,-1.2691489458084106,-0.17188221216201782,0.14943291246891022
1761131795432211500,2.49221142578125,-1.2624293565750122,-0.2238057553768158,0.12622003257274628
1761131795442210800,2.5022109375,-1.2709815502166748,-0.25251641869544983,0.11950051039457321
1761131795452210700,2.512210693359375,-1.2954161167144775,-0.2842814028263092,0.12805262207984924
1761131795462210800,2.5222109375,-1.3247376680374146,-0.3197115957736969,0.14698944985866547
1761131795472210700,2.532210693359375,-1.3510048389434814,-0.33253976702690125,0.1659262776374817
1761131795482210600,2.54221044921875,-1.3736069202423096,-0.3337614834308624,0.17814357578754425
1761131795492210700,2.552210693359375,-1.3864350318908691,-0.33192890882492065,0.190360888838768
1761131795502210600,2.56221044921875,-1.383380651473999,-0.3288745880126953,0.20807597041130066
1761131795512210700,2.572210693359375,-1.3503940105438232,-0.3459787964820862,0.24411702156066895
1761131795522210600,2.58221044921875,-1.3308463096618652,-0.34781140089035034,0.27893635630607605
1761131795532210700,2.592210693359375,-1.3247376680374146,-0.35269832611083984,0.3180317282676697
1761131795542211600,2.602211669921875,-1.3406201601028442,-0.3655264973640442,0.35040757060050964
1761131795552211500,2.61221142578125,-1.366276502609253,-0.3850741684436798,0.3626248836517334
1761131795562211600,2.622211669921875,-1.39559805393219,-0.40889793634414673,0.35101842880249023
1761131795572211500,2.63221142578125,-1.4249194860458374,-0.4143957197666168,0.32414036989212036
1761131795582211600,2.642211669921875,-1.4511867761611938,-0.40217840671539307,0.2862667143344879
1761131795592211500,2.65221142578125,-1.4652366638183594,-0.37835466861724854,0.24228443205356598
1761131795602211600,2.662211669921875,-1.4621822834014893,-0.36369389295578003,0.19402606785297394
1761131795612211500,2.67221142578125,-1.4487433433532715,-0.37285688519477844,0.1408807933330536
1761131795622211600,2.682211669921875,-1.4346933364868164,-0.4162282943725586,0.08529205620288849
1761131795632211500,2.69221142578125,-1.4279738664627075,-0.4858669340610504,0.035811975598335266
1761131795642210800,2.7022109375,-1.4310282468795776,-0.5665011405944824,0.006490443367511034
1761131795652211000,2.7122109375,-1.4377477169036865,-0.6269767880439758,0.018707748502492905
1761131795662210800,2.7222109375,-1.4389694929122925,-0.6281985640525818,0.08712465316057205
1761131795672211000,2.7322109375,-1.4267520904541016,-0.5799401998519897,0.20013472437858582
1761131795682210800,2.7422109375,-1.4023175239562988,-0.5109124183654785,0.3412446081638336
1761131795692211000,2.7522109375,-1.3601678609848022,-0.4406629204750061,0.4799109995365143
1761131795702210800,2.7622109375,-1.3051899671554565,-0.3789655268192291,0.5855907201766968
1761131795712211000,2.7722109375,-1.2331078052520752,-0.3148246705532074,0.6460663676261902
1761131795722210800,2.7822109375,-1.1665235757827759,-0.2537381649017334,0.6588945388793945
1761131795732211000,2.7922109375,-1.118265151977539,-0.2030363380908966,0.6222426295280457
1761131795742211600,2.802211669921875,-1.1103239059448242,-0.17188221216201782,0.4994587004184723
1761131795752211700,2.812211669921875,-1.1445324420928955,-0.19081902503967285,0.39133554697036743
1761131795762211600,2.822211669921875,-1.1921799182891846,-0.24213171005249023,0.27466028928756714
1761131795772211700,2.832211669921875,-1.2453252077102661,-0.3258202373981476,0.15187637507915497
1761131795782211600,2.842211669921875,-1.2990813255310059,-0.3948480188846588,0.0290924571454525
1761131795792211700,2.852211669921875,-1.348561406135559,-0.41256311535835266,-0.08330674469470978
1761131795802211600,2.862211669921875,-1.385824203491211,-0.3899610936641693,-0.1724930703639984
1761131795812211700,2.872211669921875,-1.4120913743972778,-0.353920042514801,-0.23480132222175598
1761131795822211600,2.882211669921875,-1.4090369939804077,-0.3142138123512268,-0.2647337317466736
1761131795832211700,2.892211669921875,-1.3705525398254395,-0.2800053656101227,-0.2696206569671631
1761131795842210800,2.9022109375,-1.3003029823303223,-0.25557073950767517,-0.2586250603199005
1761131795852211000,2.9122109375,-1.2086732387542725,-0.23785565793514252,-0.23296873271465302
1761131795862210800,2.9222109375,-1.1029936075210571,-0.19448421895503998,-0.1737148016691208
1761131795872211000,2.9322109375,-0.9942595362663269,-0.18654297292232513,-0.09369145333766937
1761131795882210800,2.9422109375,-0.8922450542449951,-0.16210836172103882,-0.0069485921412706375
1761131795892211000,2.9522109375,-0.7981718182563782,-0.122402124106884,0.0999528244137764
1761131795902210800,2.9622109375,-0.7199810743331909,-0.1126282811164856,0.19708040356636047
1761131795912211000,2.9722109375,-0.6595053672790527,-0.14133894443511963,0.26427558064460754
1761131795922210800,2.9822109375,-0.6283512711524963,-0.17737999558448792,0.2874884605407715
1761131795932211000,2.9922109375,-0.6179665327072144,-0.20670153200626373,0.272827684879303
1761131795942211600,3.002211669921875,-0.624686062335968,-0.223194882273674,0.2257910668849945
1761131795952211500,3.01221142578125,-0.6485098004341125,-0.22563834488391876,0.1604284793138504
1761131795962211600,3.022211669921875,-0.6869943141937256,-0.2189188301563263,0.08895725011825562
1761131795972211500,3.03221142578125,-0.7517460584640503,-0.20975585281848907,-0.005115996580570936
1761131795982211600,3.042211669921875,-0.777402400970459,-0.20609065890312195,-0.04482223838567734
1761131795992211500,3.05221142578125,-0.786565363407135,-0.2085341215133667,-0.07536549866199493
1761131796002211600,3.062211669921875,-0.785954475402832,-0.20547980070114136,-0.09002626687288284
1761131796012211500,3.07221142578125,-0.777402400970459,-0.19142989814281464,-0.07903069257736206
1761131796022211600,3.082211669921875,-0.757854700088501,-0.17554740607738495,-0.05581781268119812
1761131796032211500,3.09221142578125,-0.7279223203659058,-0.15661057829856873,-0.028939740732312202
1761131796042210600,3.10221044921875,-0.6906595230102539,-0.12912164628505707,-0.008781188167631626
1761131796052210700,3.112210693359375,-0.6485098004341125,-0.10163270682096481,0.0022143865935504436
1761131796062210600,3.12221044921875,-0.6026949286460876,-0.06986771523952484,0.01687515154480934
1761131796072210700,3.132210693359375,-0.5587126016616821,-0.033826664090156555,0.04130976274609566
1761131796082210600,3.14221044921875,-0.5190063714981079,0.004046982154250145,0.0742964819073677
1761131796092210700,3.152210693359375,-0.4835762083530426,0.041920628398656845,0.1146135926246643
1761131796102210600,3.16221044921875,-0.444480836391449,0.07002042979001999,0.1555415689945221
1761131796112210700,3.172210693359375,-0.4041637182235718,0.08345946669578552,0.18852828443050385
1761131796122210600,3.18221044921875,-0.3626248836517334,0.07307475805282593,0.20441077649593353
1761131796132210700,3.192210693359375,-0.32536208629608154,0.048029281198978424,0.19952386617660522
1761131796142211600,3.202211669921875,-0.2868776023387909,0.0071013085544109344,0.180587038397789
1761131796152211500,3.21221142578125,-0.25816693902015686,-0.033826664090156555,0.14698944985866547
1761131796162211600,3.222211669921875,-0.23923009634017944,-0.06498079001903534,0.10056369006633759
1761131796172211500,3.23221142578125,-0.230677992105484,-0.06253732740879059,0.044974952936172485
1761131796182211600,3.242211669921875,-0.2166280895471573,-0.036880988627672195,-0.010002918541431427
1761131796192211500,3.25221142578125,-0.1909717470407486,0.0009926559869199991,-0.04787656292319298
1761131796202211600,3.262211669921875,-0.13110695779323578,0.0443640872836113,-0.06498079001903534
1761131796212211500,3.27221142578125,-0.08162686973810196,0.04375322163105011,-0.06559165567159653
1761131796222211600,3.282211669921875,-0.026648996397852898,0.03275764733552933,-0.057650405913591385
1761131796232211500,3.29221142578125,0.024663684889674187,0.01687515154480934,-0.03871358558535576
1761131796242210600,3.30221044921875,0.06620252132415771,-0.008170322515070438,-0.016722436994314194
1761131796252210700,3.312210693359375,0.09369145333766937,-0.030772335827350616,-0.0032834007870405912
1761131796262210600,3.32221044921875,0.11018481850624084,-0.04970915988087654,-0.007559457328170538
1761131796272210700,3.332210693359375,0.12118039280176163,-0.05826127156615257,-0.02038762718439102
1761131796282210600,3.34221044921875,0.132786825299263,-0.05276348441839218,-0.031383201479911804
1761131796292210700,3.352210693359375,0.13584116101264954,-0.048487428575754166,-0.04421137273311615
1761131796302210600,3.36221044921875,0.13584116101264954,-0.03749185428023338,-0.06742425262928009
1761131796312210700,3.372210693359375,0.13584116101264954,-0.022220224142074585,-0.08819366991519928
1761131796322210600,3.38221044921875,0.1419498175382614,-0.012446379289031029,-0.10835222154855728
1761131796332210700,3.392210693359375,0.14928019046783447,0.004657847341150045,-0.11385001242160797
1761131796342211600,3.402211669921875,0.15477798879146576,0.024816401302814484,-0.10163270682096481
1761131796352211500,3.41221142578125,0.16455182433128357,0.027870727702975273,-0.07780896127223969
1761131796362211300,3.42221142578125,0.18654297292232513,0.014431691728532314,-0.04726569727063179
1761131796372211500,3.43221142578125,0.21708624064922333,-0.008170322515070438,-0.01488984003663063
1761131796382211600,3.442211669921875,0.24701863527297974,-0.03627012297511101,0.0034361169673502445
1761131796392211500,3.45221142578125,0.26595544815063477,-0.04787656292319298,0.008933904580771923
1761131796402211600,3.462211669921875,0.2751184403896332,-0.04787656292319298,0.01748601719737053
1761131796412211500,3.47221142578125,0.273285835981369,-0.05398521572351456,0.027870727702975273
1761131796422211600,3.482211669921875,0.26106852293014526,-0.06742425262928009,0.036422841250896454
1761131796432211500,3.49221142578125,0.2494620978832245,-0.05520694702863693,0.04314235970377922
1761131796442210600,3.50221044921875,0.25740334391593933,-0.030161472037434578,0.04680754989385605
1761131796452210700,3.512210693359375,0.26595544815063477,0.004657847341150045,0.056581392884254456
1761131796462210600,3.52221044921875,0.2738966941833496,0.03764457255601883,0.07002042979001999
1761131796472210700,3.532210693359375,0.2855031490325928,0.07673994451761246,0.08223773539066315
1761131796482210600,3.54221044921875,0.29772046208381653,0.11155926436185837,0.08895725011825562
1761131796492210700,3.552210693359375,0.3032182455062866,0.12255483865737915,0.09017898142337799
1761131796502210600,3.56221044921875,0.30566170811653137,0.11155926436185837,0.09262244403362274
1761131796512210700,3.572210693359375,0.3081051707267761,0.10178542137145996,0.1048397496342659
1761131796522210600,3.58221044921875,0.31177034974098206,0.09323330968618393,0.11827878654003143
1761131796532210700,3.592210693359375,0.3136029541492462,0.0749073475599289,0.12377656996250153
1761131796542211300,3.60221142578125,0.3136029541492462,0.05535966157913208,0.12133310735225677
1761131796552211500,3.61221142578125,0.3148246705532074,0.04253149405121803,0.1201113760471344
1761131796562211600,3.622211669921875,0.3148246705532074,0.03825543448328972,0.11217013001441956
1761131796572211500,3.63221142578125,0.3093268871307373,0.03214678168296814,0.09262244403362274
1761131796582211600,3.642211669921875,0.2946661114692688,0.029703322798013687,0.060246583074331284
1761131796592211500,3.65221142578125,0.27634015679359436,0.03275764733552933,0.02603813074529171
1761131796602211600,3.662211669921875,0.254349023103714,0.03764457255601883,-0.0069485921412706375
1761131796612211500,3.67221142578125,0.23296873271465302,0.030314188450574875,-0.03749185428023338
1761131796622211600,3.682211669921875,0.20425806939601898,0.015653422102332115,-0.06620252132415771
1761131796632211500,3.69221142578125,0.17982345819473267,0.005879578180611134,-0.08391761034727097
1761131796642210600,3.70221044921875,0.1584431678056717,-0.0069485921412706375,-0.08636107295751572
1761131796652210700,3.712210693359375,0.1419498175382614,-0.024663684889674187,-0.082085020840168
1761131796662210600,3.72221044921875,0.12912164628505707,-0.03810271993279457,-0.06131559982895851
1761131796672210700,3.732210693359375,0.132786825299263,-0.03627012297511101,-0.036880988627672195
1761131796682210600,3.74221044921875,0.13950635492801666,-0.028328875079751015,-0.01488984003663063
1761131796692210700,3.752210693359375,0.1419498175382614,-0.017333300784230232,-0.005726861767470837
1761131796702210600,3.76221044921875,0.13645201921463013,0.0016035212902352214,0.00038179077091626823
1761131796712210700,3.772210693359375,0.12545645236968994,0.01748601719737053,0.011988230049610138
1761131796722210600,3.78221044921875,0.10835222154855728,0.01992947794497013,0.016264287754893303
1761131796732210700,3.792210693359375,0.08819366991519928,0.02054034359753132,0.015042556449770927
1761131796742211300,3.80221142578125,0.07047858089208603,0.018096882849931717,0.004657847341150045
1761131796752211500,3.81221142578125,0.05887213721871376,0.011988230049610138,-0.01061378326267004
1761131796762211300,3.82221142578125,0.04787656292319298,0.011988230049610138,-0.018555032089352608
1761131796772211500,3.83221142578125,0.03810271993279457,0.012599095702171326,-0.02038762718439102
1761131796782211300,3.84221142578125,0.0264962799847126,0.009544769302010536,-0.02099849283695221
1761131796792211500,3.85221142578125,0.018555032089352608,-0.002672535367310047,-0.030161472037434578
1761131796802211300,3.86221142578125,0.008781188167631626,-0.0069485921412706375,-0.045433104038238525
1761131796812211500,3.87221142578125,0.000839939690195024,0.0016035212902352214,-0.05887213721871376
1761131796822211300,3.88221142578125,-0.0034361169673502445,0.015042556449770927,-0.06864598393440247
1761131796832211500,3.89221142578125,-0.0022143865935504436,0.04130976274609566,-0.06864598393440247
1761131796842210600,3.90221044921875,0.013057244941592216,0.0742964819073677,-0.060704734176397324
1761131796852210700,3.912210693359375,0.03504839166998863,0.09934195876121521,-0.04604396969079971
1761131796862210600,3.92221044921875,0.060704734176397324,0.10056369006633759,-0.025885414332151413
1761131796872210400,3.93221044921875,0.09674578160047531,0.09201157838106155,0.005268712528049946
1761131796882210600,3.94221044921875,0.1376737505197525,0.07124216109514236,0.038866300135850906
1761131796892210400,3.95221044921875,0.17066048085689545,0.04253149405121803,0.05902485549449921
1761131796902210600,3.96221044921875,0.2030363380908966,0.008323038928210735,0.0645226389169693
1761131796912210400,3.97221044921875,0.2079232633113861,-0.02344195358455181,0.04314235970377922
1761131796922210600,3.98221044921875,0.20181460678577423,-0.03810271993279457,0.008323038928210735
1761131796932210700,3.992210693359375,0.18104518949985504,-0.027718011289834976,-0.028328875079751015
1761131796942211300,4.00221142578125,0.152334526181221,-0.002672535367310047,-0.06314819306135178
1761131796952211500,4.01221142578125,0.122402124106884,0.027259862050414085,-0.09430231899023056
1761131796962211300,4.02221142578125,0.09552405029535294,0.04680754989385605,-0.11812606453895569
1761131796972211500,4.03221142578125,0.07353290170431137,0.05230533704161644,-0.1376737505197525
1761131796982211300,4.04221142578125,0.05642867833375931,0.0443640872836113,-0.15111279487609863
1761131796992211500,4.05221142578125,0.04421137273311615,0.035811975598335266,-0.15661057829856873
1761131797002211300,4.06221142578125,0.03627012297511101,0.03214678168296814,-0.14683672785758972
1761131797012211500,4.07221142578125,0.028939740732312202,0.024205535650253296,-0.13034337759017944
1761131797022211300,4.08221142578125,0.019165897741913795,0.019318614155054092,-0.11385001242160797
1761131797032211500,4.09221142578125,0.007559457328170538,0.023594669997692108,-0.09369145333766937
1761131797042210600,4.10221044921875,-0.00038179077091626823,0.033368512988090515,-0.07353290170431137
1761131797052210700,4.112210693359375,-0.0016035212902352214,0.039477165788412094,-0.05276348441839218
1761131797062210600,4.12221044921875,-0.00038179077091626823,0.048029281198978424,-0.02955060638487339
1761131797072210700,4.132210693359375,-0.005879578180611134,0.0541379339993,-0.00939205288887024
1761131797082210600,4.14221044921875,-0.010155634954571724,0.05230533704161644,0.005268712528049946
1761131797092210700,4.152210693359375,-0.018707748502492905,0.039477165788412094,0.013209961354732513
1761131797102210600,4.16221044921875,-0.024205535650253296,0.03459024429321289,0.025427265092730522
1761131797112210700,4.172210693359375,-0.026648996397852898,0.039477165788412094,0.04864014685153961
1761131797122210600,4.18221044921875,-0.022372938692569733,0.0443640872836113,0.07673994451761246
1761131797132210700,4.192210693359375,-0.013209961354732513,0.027259862050414085,0.1097266674041748
1761131797142211600,4.202211669921875,-0.006490443367511034,0.01687515154480934,0.130496084690094
1761131797152211500,4.21221142578125,-0.004657847341150045,0.01748601719737053,0.15737415850162506
1761131797162211600,4.222211669921875,-0.007712173741310835,0.02054034359753132,0.18852828443050385
1761131797172211500,4.23221142578125,-0.022372938692569733,0.014431691728532314,0.20807597041130066
1761131797182211600,4.242211669921875,-0.041920628398656845,0.009544769302010536,0.2111303061246872
1761131797192211500,4.25221142578125,-0.059635721147060394,0.016264287754893303,0.2062433809041977
1761131797202211600,4.262211669921875,-0.07002042979001999,0.024205535650253296,0.1964695304632187
1761131797212211500,4.27221142578125,-0.08040513843297958,0.01992947794497013,0.17814357578754425
1761131797222211600,4.282211669921875,-0.09750936180353165,0.024205535650253296,0.15370896458625793
1761131797232211500,4.29221142578125,-0.1146135926246643,0.035811975598335266,0.12927435338497162
1761131797242210600,4.30221044921875,-0.13232868909835815,0.03825543448328972,0.10911580175161362
1761131797252210700,4.312210693359375,-0.1549306958913803,0.023594669997692108,0.08345946669578552
1761131797262210600,4.32221044921875,-0.17753271758556366,0.013820826075971127,0.05719225853681564
1761131797272210700,4.332210693359375,-0.1915826052427292,0.011377365328371525,0.0339793786406517
1761131797282210600,4.34221044921875,-0.1964695304632187,0.015653422102332115,0.019318614155054092
1761131797292210700,4.352210693359375,-0.19402606785297394,0.021151209250092506,0.011988230049610138
1761131797302210600,4.36221044921875,-0.18730655312538147,0.02298380434513092,0.009544769302010536
1761131797312210700,4.372210693359375,-0.180587038397789,0.008933904580771923,0.005268712528049946
1761131797322210600,4.38221044921875,-0.1757001131772995,-0.016722436994314194,-0.0038942659739404917
1761131797332210700,4.392210693359375,-0.17447838187217712,-0.03749185428023338,-0.01061378326267004
1761131797342211300,4.40221142578125,-0.17692184448242188,-0.057039543986320496,-0.019776761531829834
1761131797352211500,4.41221142578125,-0.18303050100803375,-0.06925684958696365,-0.03260493278503418
1761131797362211300,4.42221142578125,-0.17875444889068604,-0.07292203605175018,-0.05276348441839218
1761131797372211500,4.43221142578125,-0.16714800894260406,-0.07353290170431137,-0.06375905871391296
1761131797382211300,4.44221142578125,-0.15126550197601318,-0.07536549866199493,-0.07292203605175018
1761131797392211500,4.45221142578125,-0.13416127860546112,-0.07353290170431137,-0.07047858089208603
1761131797402211800,4.4622119140625,-0.1201113760471344,-0.05337435007095337,-0.05337435007095337
1761131797412211700,4.472211669921875,-0.10667234659194946,-0.03565925732254982,-0.0264962799847126
1761131797422211800,4.4822119140625,-0.09812022745609283,-0.01794416643679142,0.004046982154250145
1761131797432211700,4.492211669921875,-0.09078984707593918,-0.008781188167631626,0.03520110994577408
1761131797442211000,4.502211181640625,-0.0846811980009079,-0.008170322515070438,0.056581392884254456
1761131797452211000,4.5122109375,-0.0797942727804184,-0.0069485921412706375,0.06757696717977524
1761131797462211000,4.522211181640625,-0.08101600408554077,-0.0032834007870405912,0.07124216109514236
1761131797472211000,4.5322109375,-0.08651378750801086,-0.005726861767470837,0.06696610152721405
1761131797482210800,4.5422109375,-0.09567677229642868,-0.00939205288887024,0.060246583074331284
1761131797492211000,4.5522109375,-0.1048397496342659,-0.02099849283695221,0.041920628398656845
1761131797502210800,4.5622109375,-0.11400272697210312,-0.03810271993279457,0.009544769302010536
1761131797512211000,4.5722109375,-0.12744176387786865,-0.033826664090156555,-0.025885414332151413
1761131797522210800,4.5822109375,-0.13843733072280884,-0.019165897741913795,-0.05642867833375931
1761131797532211000,4.5922109375,-0.14149166643619537,-0.010002918541431427,-0.07597636431455612
1761131797542211800,4.6022119140625,-0.13721559941768646,-0.006337726954370737,-0.08513934165239334
1761131797552211700,4.612211669921875,-0.12438743561506271,-0.01061378326267004,-0.09063713252544403
1761131797562211800,4.6222119140625,-0.10422888398170471,-0.02038762718439102,-0.10163270682096481
1761131797572211700,4.632211669921875,-0.08223773539066315,-0.024052819237113,-0.10529789328575134
1761131797582211800,4.6422119140625,-0.06085744872689247,-0.017333300784230232,-0.10590875893831253
1761131797592211700,4.652211669921875,-0.03703370690345764,-0.006337726954370737,-0.09369145333766937
1761131797602211800,4.6622119140625,-0.02298380434513092,-0.0038942659739404917,-0.08147415518760681
1761131797612211700,4.672211669921875,-0.0071013085544109344,-0.004505131393671036,-0.06864598393440247
1761131797622211800,4.6822119140625,0.005115996580570936,-0.0032834007870405912,-0.05398521572351456
1761131797632211700,4.692211669921875,0.015500705689191818,0.008323038928210735,-0.04421137273311615
1761131797642210800,4.7022109375,0.024052819237113,0.027259862050414085,-0.03443752974271774
1761131797652211000,4.7122109375,0.03749185428023338,0.04619668424129486,-0.02099849283695221
1761131797662210800,4.7222109375,0.052152618765830994,0.04986187443137169,-0.0038942659739404917
1761131797672211000,4.7322109375,0.06742425262928009,0.03825543448328972,0.008933904580771923
1761131797682211000,4.742211181640625,0.07658722996711731,0.02848159149289131,0.01748601719737053
1761131797692211000,4.7522109375,0.08513934165239334,0.02848159149289131,0.022372938692569733
1761131797702210600,4.76221044921875,0.09430231899023056,0.027870727702975273,0.02603813074529171
1761131797712210700,4.772210693359375,0.10285443812608719,0.02603813074529171,0.033368512988090515
1761131797722210600,4.78221044921875,0.11201741546392441,0.02054034359753132,0.03520110994577408
1761131797732210700,4.792210693359375,0.11323914676904678,0.021762074902653694,0.024205535650253296
1761131797742211300,4.80221142578125,0.1077413558959961,0.02603813074529171,-0.000839939690195024
1761131797752211500,4.81221142578125,0.09796751290559769,0.026648996397852898,-0.028328875079751015
1761131797762211300,4.82221142578125,0.09124799817800522,0.026648996397852898,-0.05032002553343773
1761131797772211500,4.83221142578125,0.08391761034727097,0.03214678168296814,-0.06436992436647415
1761131797782211300,4.84221142578125,0.08086328953504562,0.04130976274609566,-0.06864598393440247
1761131797792211500,4.85221142578125,0.0869719386100769,0.041920628398656845,-0.06436992436647415
1761131797802211300,4.86221142578125,0.10346530377864838,0.04375322163105011,-0.05032002553343773
1761131797812211500,4.87221142578125,0.12118039280176163,0.04069889709353447,-0.03504839166998863
1761131797822211300,4.88221142578125,0.14866933226585388,0.04008803144097328,-0.01366810966283083
1761131797832211500,4.89221142578125,0.16149750351905823,0.04253149405121803,0.0016035212902352214
1761131797842210600,4.90221044921875,0.17188221216201782,0.03764457255601883,0.011377365328371525
1761131797852210700,4.912210693359375,0.17432567477226257,0.03459024429321289,0.01748601719737053
1761131797862210600,4.92221044921875,0.17615826427936554,0.0339793786406517,0.021151209250092506
1761131797872210400,4.93221044921875,0.17432567477226257,0.03520110994577408,0.01748601719737053
1761131797882210600,4.94221044921875,0.1737148016691208,0.038866300135850906,0.010155634954571724
1761131797892210400,4.95221044921875,0.17493653297424316,0.03703370690345764,0.00038179077091626823
1761131797902210600,4.96221044921875,0.17676913738250732,0.04375322163105011,-0.002672535367310047
1761131797912210700,4.972210693359375,0.1786017268896103,0.05780312418937683,-0.000839939690195024
1761131797922210600,4.98221044921875,0.1737148016691208,0.06818783283233643,0.0022143865935504436
1761131797932210700,4.992210693359375,0.16455182433128357,0.07124216109514236,0.008323038928210735
1761131797942211600,5.002211669921875,0.15111279487609863,0.06207918003201485,0.01748601719737053
1761131797962211600,5.022211669921875,0.12484558671712875,0.009544769302010536,0.0339793786406517
1761131797972211500,5.03221142578125,0.11201741546392441,-0.012446379289031029,0.03459024429321289
1761131797982211300,5.04221142578125,0.09613491594791412,-0.016111571341753006,0.02298380434513092
1761131797992211500,5.05221142578125,0.08147415518760681,-0.014278975315392017,0.0016035212902352214
1761131798002211600,5.062211669921875,0.0668133869767189,-0.0020616701804101467,-0.019165897741913795
1761131798012211500,5.07221142578125,0.05520694702863693,0.014431691728532314,-0.027718011289834976
1761131798022211600,5.082211669921875,0.048487428575754166,0.027870727702975273,-0.028328875079751015
1761131798032211500,5.09221142578125,0.04421137273311615,0.03275764733552933,-0.019776761531829834
1761131798042210600,5.10221044921875,0.048487428575754166,0.019318614155054092,-0.006337726954370737
1761131798052210700,5.112210693359375,0.05642867833375931,-0.0069485921412706375,0.011988230049610138
1761131798062210600,5.12221044921875,0.06375905871391296,-0.0417679101228714,0.026648996397852898
1761131798072210700,5.132210693359375,0.06131559982895851,-0.05276348441839218,0.023594669997692108
1761131798082210600,5.14221044921875,0.057039543986320496,-0.04421137273311615,0.015042556449770927
1761131798092210700,5.152210693359375,0.042989641427993774,-0.03199406713247299,0.0022143865935504436
1761131798102210600,5.16221044921875,0.028328875079751015,-0.022220224142074585,-0.011835514567792416
1761131798112210700,5.172210693359375,0.016722436994314194,-0.02344195358455181,-0.031383201479911804
1761131798122210600,5.18221044921875,0.01488984003663063,-0.021609358489513397,-0.04604396969079971
1761131798132210700,5.192210693359375,0.016722436994314194,-0.012446379289031029,-0.04909829422831535
1761131798142211600,5.202211669921875,0.018555032089352608,-0.0069485921412706375,-0.036880988627672195
1761131798152211500,5.21221142578125,0.017333300784230232,-0.015500705689191818,-0.019165897741913795
1761131798162211600,5.222211669921875,0.017333300784230232,-0.03443752974271774,-0.006337726954370737
1761131798172211500,5.23221142578125,0.019165897741913795,-0.05276348441839218,-0.005726861767470837
1761131798182211600,5.242211669921875,0.02038762718439102,-0.06314819306135178,-0.01061378326267004
1761131798192211500,5.25221142578125,0.011224648915231228,-0.0619264654815197,-0.017333300784230232
1761131798202211600,5.262211669921875,-0.0016035212902352214,-0.04787656292319298,-0.019776761531829834
1761131798212211500,5.27221142578125,-0.010766499675810337,-0.017333300784230232,-0.016722436994314194
1761131798222211600,5.282211669921875,-0.010766499675810337,0.015653422102332115,-0.01061378326267004
1761131798232211500,5.29221142578125,-0.005879578180611134,0.036422841250896454,-0.007559457328170538
1761131798242210600,5.30221044921875,0.005726861767470837,0.048029281198978424,-0.002672535367310047
1761131798252210700,5.312210693359375,0.017333300784230232,0.047418415546417236,0.005268712528049946
1761131798262210600,5.32221044921875,0.028328875079751015,0.03703370690345764,0.01748601719737053
1761131798272210700,5.332210693359375,0.03443752974271774,0.02054034359753132,0.02603813074529171
1761131798282210600,5.34221044921875,0.03565925732254982,0.010155634954571724,0.025427265092730522
1761131798292210700,5.352210693359375,0.024663684889674187,-0.0069485921412706375,-0.00022907447419129312
1761131798302210600,5.36221044921875,0.01366810966283083,-0.011224648915231228,-0.01488984003663063
1761131798312210700,5.372210693359375,0.004505131393671036,-0.002672535367310047,-0.02099849283695221
1761131798322210600,5.38221044921875,-0.00038179077091626823,0.009544769302010536,-0.022831087931990623
1761131798332210700,5.392210693359375,-0.0009926559869199991,0.02848159149289131,-0.024663684889674187
1761131798342211300,5.40221142578125,0.0014508049935102463,0.05719225853681564,-0.030161472037434578
1761131798352211500,5.41221142578125,0.0038942659739404917,0.07735081017017365,-0.030772335827350616
1761131798362211300,5.42221142578125,0.011835514567792416,0.0944550409913063,-0.024052819237113
1761131798372211500,5.43221142578125,0.02099849283695221,0.0999528244137764,-0.017333300784230232
1761131798382211300,5.44221142578125,0.03321579843759537,0.09078984707593918,-0.011835514567792416
1761131798392211500,5.45221142578125,0.04726569727063179,0.07857254147529602,-0.006337726954370737
1761131798402211300,5.46221142578125,0.057650405913591385,0.044974952936172485,0.0016035212902352214
1761131798412211500,5.47221142578125,0.06436992436647415,-0.0020616701804101467,0.02054034359753132
1761131798422211300,5.48221142578125,0.06559165567159653,-0.04726569727063179,0.04253149405121803
1761131798432211500,5.49221142578125,0.06375905871391296,-0.08513934165239334,0.05902485549449921
1761131798442210600,5.50221044921875,0.057650405913591385,-0.102243572473526,0.06879869848489761
1761131798452210700,5.512210693359375,0.052152618765830994,-0.10285443812608719,0.07063129544258118
1761131798462210600,5.52221044921875,0.05642867833375931,-0.09674578160047531,0.06391177326440811
1761131798472210700,5.532210693359375,0.06498079001903534,-0.08086328953504562,0.04864014685153961
1761131798482210600,5.54221044921875,0.0771980956196785,-0.0619264654815197,0.024816401302814484
1761131798492210700,5.552210693359375,0.08513934165239334,-0.04482223838567734,0.002825251780450344
1761131798502210600,5.56221044921875,0.09063713252544403,-0.03260493278503418,-0.007559457328170538
1761131798512210400,5.57221044921875,0.09552405029535294,-0.033826664090156555,-0.010002918541431427
1761131798522210600,5.58221044921875,0.0924697294831276,-0.054596081376075745,-0.010002918541431427
1761131798532210700,5.592210693359375,0.08513934165239334,-0.06742425262928009,-0.01794416643679142
1761131798542211600,5.602211669921875,0.08025242388248444,-0.07597636431455612,-0.03504839166998863
1761131798552211500,5.61221142578125,0.08025242388248444,-0.07780896127223969,-0.057039543986320496
1761131798562211600,5.622211669921875,0.082085020840168,-0.0771980956196785,-0.06986771523952484
1761131798572211500,5.63221142578125,0.08941540122032166,-0.07841982692480087,-0.0771980956196785
1761131798582211600,5.642211669921875,0.10102184116840363,-0.082085020840168,-0.07780896127223969
1761131798592211500,5.65221142578125,0.12118039280176163,-0.09124799817800522,-0.07536549866199493
1761131798602211600,5.662211669921875,0.142560675740242,-0.10102184116840363,-0.07353290170431137
1761131798612211500,5.67221142578125,0.15966489911079407,-0.10590875893831253,-0.07292203605175018
1761131798622211600,5.682211669921875,0.17004960775375366,-0.10651962459087372,-0.082085020840168
1761131798632211500,5.69221142578125,0.17188221216201782,-0.09552405029535294,-0.09369145333766937
1761131798642210600,5.70221044921875,0.17127133905887604,-0.08025242388248444,-0.1077413558959961
1761131798652210700,5.712210693359375,0.17127133905887604,-0.072311170399189,-0.1126282811164856
1761131798662210600,5.72221044921875,0.1737148016691208,-0.06742425262928009,-0.10529789328575134
1761131798672210700,5.732210693359375,0.17921258509159088,-0.05826127156615257,-0.08758280426263809
1761131798682210600,5.74221044921875,0.18532124161720276,-0.0466548316180706,-0.060704734176397324
1761131798692210700,5.752210693359375,0.19570595026016235,-0.036880988627672195,-0.0264962799847126
1761131798702210600,5.76221044921875,0.2036471962928772,-0.027718011289834976,0.011377365328371525
1761131798712210700,5.772210693359375,0.2085341215133667,-0.030772335827350616,0.044974952936172485
1761131798722210600,5.78221044921875,0.21097758412361145,-0.031383201479911804,0.06574437022209167
1761131798732210700,5.792210693359375,0.21647536754608154,-0.02710714563727379,0.0742964819073677
1761131798742211300,5.80221142578125,0.21647536754608154,-0.024052819237113,0.07551821321249008
1761131798752211500,5.81221142578125,0.20547980070114136,-0.01488984003663063,0.07612907886505127
1761131798762211300,5.82221142578125,0.1932624876499176,-0.000839939690195024,0.07918340712785721
1761131798772211500,5.83221142578125,0.18104518949985504,0.013820826075971127,0.08407033234834671
1761131798782211300,5.84221142578125,0.1731039434671402,0.018707748502492905,0.08895725011825562
1761131798792211500,5.85221142578125,0.16577355563640594,0.010155634954571724,0.0944550409913063
1761131798802211300,5.86221142578125,0.15905404090881348,-0.005115996580570936,0.09567677229642868
1761131798812211200,5.872211181640625,0.15050192177295685,-0.028939740732312202,0.08345946669578552
1761131798822211300,5.88221142578125,0.13950635492801666,-0.05276348441839218,0.056581392884254456
1761131798832211200,5.892211181640625,0.12179125845432281,-0.06742425262928009,0.024816401302814484
1761131798842210600,5.90221044921875,0.10041097551584244,-0.07108944654464722,-0.008170322515070438
1761131798852210400,5.91221044921875,0.08025242388248444,-0.05948300287127495,-0.030161472037434578
1761131798862210300,5.922210205078125,0.06498079001903534,-0.04787656292319298,-0.03810271993279457
1761131798872210400,5.93221044921875,0.057650405913591385,-0.04360050708055496,-0.028328875079751015
1761131798882210300,5.942210205078125,0.05337435007095337,-0.04909829422831535,-0.01061378326267004
1761131798892210400,5.95221044921875,0.054596081376075745,-0.06253732740879059,0.011377365328371525
1761131798902210300,5.962210205078125,0.05948300287127495,-0.06620252132415771,0.03214678168296814
1761131798912210400,5.97221044921875,0.0619264654815197,-0.06131559982895851,0.04680754989385605
1761131798922210300,5.982210205078125,0.0619264654815197,-0.05642867833375931,0.05169447138905525
1761131798932210400,5.99221044921875,0.060093868523836136,-0.0668133869767189,0.04314235970377922
1761131798942211300,6.00221142578125,0.05520694702863693,-0.09063713252544403,0.027870727702975273
1761131798952211200,6.012211181640625,0.04970915988087654,-0.12973250448703766,0.011988230049610138
1761131798962211300,6.02221142578125,0.04115704447031021,-0.17921258509159088,-0.004505131393671036
1761131798972211200,6.032211181640625,0.02710714563727379,-0.2140319049358368,-0.005115996580570936
1761131798982211300,6.04221142578125,-0.007712173741310835,-0.23174700140953064,0.11644618958234787
1761131798992211200,6.052211181640625,-0.035811975598335266,-0.28061622381210327,0.1964695304632187
1761131799002211300,6.06221142578125,-0.06391177326440811,-0.29710957407951355,0.2978731691837311
1761131799012211200,6.072211181640625,-0.09262244403362274,-0.3753003478050232,0.4188244938850403
1761131799022211300,6.08221142578125,-0.1359938681125641,-0.5023602843284607,0.5635995268821716
1761131799032211200,6.092211181640625,-0.19280433654785156,-0.6789003610610962,0.7120398283004761
1761131799042210600,6.10221044921875,-0.24961480498313904,-0.8798750042915344,0.8366563320159912
1761131799052210400,6.11221044921875,-0.31436651945114136,-1.0124328136444092,0.9447794556617737
1761131799062210600,6.12221044921875,-0.37484219670295715,-1.112614631652832,1.0388526916503906
1761131799072210400,6.13221044921875,-0.3577379584312439,-1.2512811422348022,1.1048262119293213
1761131799082210300,6.142210205078125,-0.3687335252761841,-1.1297188997268677,1.1897363662719727
1761131799092210400,6.15221044921875,-0.3620140254497528,-0.9977720379829407,1.261818528175354
1761131799102210600,6.16221044921875,-0.3577379584312439,-0.8646034002304077,1.3088551759719849
1761131799112210400,6.17221044921875,-0.36506834626197815,-0.7558693885803223,1.3247376680374146
1761131799122210600,6.18221044921875,-0.3736204504966736,-0.6807329654693604,1.299692153930664
1761131799132210400,6.19221044921875,-0.3785073757171631,-0.5952118039131165,1.232496976852417
1761131799142211300,6.20221142578125,-0.3723987340927124,-0.4864778220653534,1.1286499500274658
1761131799152211500,6.21221142578125,-0.32902729511260986,-0.31787899136543274,0.9563859105110168
1761131799162211300,6.22221142578125,-0.24472789466381073,-0.1834886521100998,0.7615199089050293
1761131799172211500,6.23221142578125,-0.12805262207984924,-0.04421137273311615,0.5507713556289673
1761131799182211300,6.24221142578125,-0.015042556449770927,0.09140071272850037,0.3314707577228546
1761131799192211500,6.25221142578125,0.07353290170431137,0.1958586722612381,0.09873109310865402
1761131799202211300,6.26221142578125,0.10346530377864838,0.28871017694473267,-0.09430231899023056
1761131799212211500,6.27221142578125,0.03565925732254982,0.32963815331459045,-0.28183794021606445
1761131799222211300,6.28221142578125,-0.041920628398656845,0.2716059684753418,-0.35697436332702637
1761131799232211500,6.29221142578125,-0.10667234659194946,0.20318904519081116,-0.39301541447639465
1761131799242210600,6.30221044921875,-0.1500437706708908,0.16165021061897278,-0.38812851905822754
1761131799252210700,6.312210693359375,-0.16836974024772644,0.13232868909835815,-0.3655264973640442
1761131799262210600,6.32221044921875,-0.17142406105995178,0.10728321224451065,-0.3410918712615967
1761131799272210700,6.332210693359375,-0.16287194192409515,0.08529205620288849,-0.3184898793697357
1761131799282210600,6.34221044921875,-0.14882203936576843,0.07246389240026474,-0.29588785767555237
1761131799292210700,6.352210693359375,-0.130496084690094,0.0694095641374588,-0.27206411957740784
1761131799302210600,6.36221044921875,-0.1146135926246643,0.06330090761184692,-0.24274258315563202
1761131799312210400,6.37221044921875,-0.10667234659194946,0.048029281198978424,-0.21097758412361145
1761131799322210600,6.38221044921875,-0.11033753305673599,0.033368512988090515,-0.16943874955177307
1761131799332210400,6.39221044921875,-0.1152244582772255,0.024205535650253296,-0.1278999149799347
1761131799342211300,6.40221142578125,-0.1201113760471344,0.01992947794497013,-0.09369145333766937
1761131799352211500,6.41221142578125,-0.1201113760471344,0.03275764733552933,-0.06498079001903534
1761131799362211300,6.42221142578125,-0.12072224169969559,0.0541379339993,-0.0417679101228714
1761131799372211500,6.43221142578125,-0.11827878654003143,0.07185302674770355,-0.021609358489513397
1761131799382211300,6.44221142578125,-0.11217013001441956,0.08834638446569443,-0.008781188167631626
1761131799392211500,6.45221142578125,-0.10850493609905243,0.10911580175161362,-0.006337726954370737
1761131799402211300,6.46221142578125,-0.10239628702402115,0.13416127860546112,-0.013057244941592216
1761131799412211200,6.472211181640625,-0.09689849615097046,0.15615242719650269,-0.0264962799847126
1761131799422211300,6.48221142578125,-0.09384417533874512,0.16898059844970703,-0.04115704447031021
1761131799432211200,6.492211181640625,-0.0944550409913063,0.16165021061897278,-0.05581781268119812
1761131799442210600,6.50221044921875,-0.09689849615097046,0.14210252463817596,-0.07292203605175018
1761131799452210400,6.51221044921875,-0.1048397496342659,0.10545061528682709,-0.09308059513568878
1761131799462210600,6.52221044921875,-0.10728321224451065,0.09323330968618393,-0.09857837855815887
1761131799472210400,6.53221044921875,-0.10789407044649124,0.09323330968618393,-0.09796751290559769
1761131799482210300,6.542210205078125,-0.10606148093938828,0.11033753305673599,-0.10041097551584244
1761131799492210400,6.55221044921875,-0.09934195876121521,0.14454598724842072,-0.10529789328575134
1761131799502210300,6.562210205078125,-0.09750936180353165,0.18486309051513672,-0.11446087807416916
1761131799512210400,6.57221044921875,-0.09567677229642868,0.22456933557987213,-0.1278999149799347
1761131799522210300,6.582210205078125,-0.09812022745609283,0.25999951362609863,-0.15416711568832397
1761131799532210400,6.59221044921875,-0.10789407044649124,0.29420796036720276,-0.20181460678577423
1761131799542211300,6.60221142578125,-0.12194397300481796,0.3259729743003845,-0.2683989107608795
1761131799552211200,6.612211181640625,-0.13660474121570587,0.3381902575492859,-0.33315062522888184
1761131799562211300,6.62221142578125,-0.14393512904644012,0.31009048223495483,-0.38263070583343506
1761131799572211200,6.632211181640625,-0.13904820382595062,0.25022566318511963,-0.4046218693256378
1761131799582211300,6.64221142578125,-0.12622003257274628,0.17692184448242188,-0.39240455627441406
1761131799592211200,6.652211181640625,-0.11278099566698074,0.1048397496342659,-0.35330918431282043
1761131799602211300,6.66221142578125,-0.09750936180353165,0.04008803144097328,-0.29588785767555237
1761131799612211200,6.672211181640625,-0.08529205620288849,-0.0014508049935102463,-0.22991441190242767
1761131799622211300,6.68221142578125,-0.07246389240026474,-0.02710714563727379,-0.16149750351905823
1761131799632211200,6.692211181640625,-0.05719225853681564,-0.04115704447031021,-0.09796751290559769
1761131799642210300,6.702210205078125,-0.04130976274609566,-0.03871358558535576,-0.05093089118599892
1761131799652210400,6.71221044921875,-0.024816401302814484,-0.015500705689191818,-0.02710714563727379
1761131799662210300,6.722210205078125,-0.016264287754893303,0.015653422102332115,-0.025885414332151413
1761131799672210400,6.73221044921875,-0.016264287754893303,0.04375322163105011,-0.04115704447031021
1761131799682210600,6.74221044921875,-0.026648996397852898,0.06269004940986633,-0.08330674469470978
1761131799692210400,6.75221044921875,-0.02848159149289131,0.05230533704161644,-0.11568260937929153
1761131799702210600,6.76221044921875,-0.021151209250092506,0.04680754989385605,-0.1419498175382614
1761131799712210700,6.772210693359375,-0.005879578180611134,0.04008803144097328,-0.16088663041591644
1761131799722210600,6.78221044921875,0.007559457328170538,0.018707748502492905,-0.15661057829856873
1761131799732210700,6.792210693359375,0.013057244941592216,0.012599095702171326,-0.11568260937929153
1761131799742211300,6.80221142578125,0.015500705689191818,0.011988230049610138,-0.06436992436647415
1761131799752211500,6.81221142578125,0.015500705689191818,0.012599095702171326,-0.0264962799847126
1761131799762211300,6.82221142578125,0.025274548679590225,0.018707748502492905,-0.0069485921412706375
1761131799772211500,6.83221142578125,0.04482223838567734,0.024205535650253296,-0.004505131393671036
1761131799782211300,6.84221142578125,0.05826127156615257,0.02603813074529171,-0.01061378326267004
1761131799792211500,6.85221142578125,0.05948300287127495,0.03703370690345764,-0.019776761531829834
1761131799802211800,6.8622119140625,0.04482223838567734,0.04986187443137169,-0.030772335827350616
1761131799812212000,6.8722119140625,0.03199406713247299,0.060246583074331284,-0.03810271993279457
1761131799822211800,6.8822119140625,0.025274548679590225,0.07307475805282593,-0.045433104038238525
1761131799832212000,6.8922119140625,0.030161472037434578,0.0846811980009079,-0.04787656292319298
1761131799842211000,6.902211181640625,0.03871358558535576,0.08101600408554077,-0.051541756838560104
1761131799852210700,6.912210693359375,0.05337435007095337,0.06146831437945366,-0.05826127156615257
1761131799862210600,6.92221044921875,0.07047858089208603,0.039477165788412094,-0.06498079001903534
1761131799872210200,6.932210205078125,0.08513934165239334,0.01748601719737053,-0.06986771523952484
1761131799882210600,6.94221044921875,0.09369145333766937,-0.00022907447419129312,-0.07353290170431137
1761131799892212000,6.9522119140625,0.09369145333766937,-0.004505131393671036,-0.07780896127223969
1761131799902211800,6.9622119140625,0.08819366991519928,-0.005115996580570936,-0.09002626687288284
1761131799922211800,6.9822119140625,0.07170030474662781,0.021151209250092506,-0.14866933226585388
1761131799932212000,6.9922119140625,0.07108944654464722,0.03764457255601883,-0.1682170182466507
1761131799942212900,7.002212890625,0.07292203605175018,0.05780312418937683,-0.1786017268896103
1761131799952212700,7.012212646484375,0.07841982692480087,0.07857254147529602,-0.17982345819473267
1761131799962212900,7.022212890625,0.08147415518760681,0.08895725011825562,-0.1688278764486313
1761131799972212700,7.032212646484375,0.08575020730495453,0.08712465316057205,-0.1529453843832016
1761131799982212900,7.042212890625,0.09857837855815887,0.07002042979001999,-0.13523028790950775
1761131799992212700,7.052212646484375,0.1175151988863945,0.05535966157913208,-0.122402124106884
1761131800002179600,7.0621796875,0.1382846236228943,0.04986187443137169,-0.11018481850624084
1761131800012146200,7.072146240234375,0.15416711568832397,0.04253149405121803,-0.10407616943120956
1761131800022112800,7.08211279296875,0.15966489911079407,0.027259862050414085,-0.10346530377864838
1761131800032079600,7.09207958984375,0.15477798879146576,0.01687515154480934,-0.1126282811164856
1761131800042045400,7.10204541015625,0.13523028790950775,0.006490443367511034,-0.12973250448703766
1761131800052012000,7.112011962890625,0.11934779584407806,0.0022143865935504436,-0.15172365307807922
1761131800061978600,7.121978515625,0.11079568415880203,0.005268712528049946,-0.1627192348241806
1761131800071945200,7.1319453125,0.1077413558959961,0.018096882849931717,-0.16394096612930298
1761131800081912000,7.141912109375,0.1077413558959961,0.03214678168296814,-0.16149750351905823
1761131800091878700,7.151878662109375,0.11201741546392441,0.04253149405121803,-0.15538884699344635
1761131800101844700,7.1618447265625,0.12301298975944519,0.03764457255601883,-0.15172365307807922
1761131800111811600,7.1718115234375,0.13339769840240479,0.02848159149289131,-0.14866933226585388
1761131800121778200,7.181778076171875,0.14133894443511963,0.015042556449770927,-0.14500413835048676
1761131800131744800,7.191744873046875,0.1431715488433838,0.004657847341150045,-0.13950635492801666
1761131800141712400,7.20171240234375,0.13645201921463013,0.004046982154250145,-0.12362385541200638
1761131800151679500,7.211679443359375,0.1278999149799347,0.006490443367511034,-0.09980010986328125
1761131800161646000,7.22164599609375,0.11446087807416916,0.004657847341150045,-0.07658722996711731
1761131800171613200,7.23161328125,0.10346530377864838,-0.0032834007870405912,-0.060093868523836136
1761131800181579300,7.241579345703125,0.09918924421072006,-0.02038762718439102,-0.051541756838560104
1761131800191544800,7.251544921875,0.10346530377864838,-0.07903069257736206,-0.05093089118599892
1761131800201511400,7.261511474609375,0.102243572473526,-0.11629346758127213,-0.045433104038238525
1761131800211478000,7.27147802734375,0.09674578160047531,-0.14622586965560913,-0.031383201479911804
1761131800221444900,7.28144482421875,0.0869719386100769,-0.16577355563640594,-0.016111571341753006
1761131800231411500,7.291411376953125,0.07536549866199493,-0.1688278764486313,-0.00022907447419129312
1761131800241377300,7.301377197265625,0.0668133869767189,-0.1529453843832016,0.011988230049610138
1761131800251344000,7.31134375,0.06131559982895851,-0.1278999149799347,0.01687515154480934
1761131800261310500,7.321310546875,0.05093089118599892,-0.10651962459087372,0.005268712528049946
1761131800271277300,7.33127734375,0.04360050708055496,-0.09613491594791412,-0.01366810966283083
1761131800281244000,7.341243896484375,0.04726569727063179,-0.0869719386100769,-0.017333300784230232
1761131800291209700,7.351209716796875,0.057039543986320496,-0.07170030474662781,-0.013057244941592216
1761131800301209600,7.361209716796875,0.057650405913591385,-0.05337435007095337,-0.01366810966283083
1761131800311209700,7.371209716796875,0.05520694702863693,-0.039324451237916946,-0.019776761531829834
1761131800321209600,7.381209716796875,0.054596081376075745,-0.030772335827350616,-0.022220224142074585
1761131800331209700,7.391209716796875,0.05398521572351456,-0.027718011289834976,-0.02038762718439102
1761131800341210400,7.40121044921875,0.05642867833375931,-0.0264962799847126,-0.016722436994314194
1761131800351210500,7.41121044921875,0.052152618765830994,-0.022831087931990623,-0.011835514567792416
1761131800361210400,7.42121044921875,0.04604396969079971,-0.018555032089352608,-0.012446379289031029
1761131800371210500,7.43121044921875,0.0417679101228714,-0.008170322515070438,-0.01794416643679142
1761131800381210400,7.44121044921875,0.045433104038238525,0.013820826075971127,-0.01794416643679142
1761131800391210500,7.45121044921875,0.052152618765830994,0.039477165788412094,-0.01366810966283083
1761131800401210600,7.461210693359375,0.06131559982895851,0.06391177326440811,-0.0069485921412706375
1761131800411210500,7.47121044921875,0.07414376735687256,0.07307475805282593,-0.00022907447419129312
1761131800421210600,7.481210693359375,0.09796751290559769,0.04986187443137169,0.002825251780450344
1761131800431210500,7.49121044921875,0.11323914676904678,0.010766499675810337,-0.006337726954370737
1761131800441209600,7.501209716796875,0.12667818367481232,-0.024052819237113,-0.017333300784230232
1761131800451209200,7.511209228515625,0.13523028790950775,-0.05093089118599892,-0.03260493278503418
1761131800461208600,7.52120849609375,0.1376737505197525,-0.06559165567159653,-0.05093089118599892
1761131800471208200,7.531208251953125,0.1321759670972824,-0.05398521572351456,-0.06803511828184128
1761131800481207800,7.541207763671875,0.12484558671712875,-0.02344195358455181,-0.07597636431455612
1761131800491207200,7.551207275390625,0.12056952714920044,0.016264287754893303,-0.08025242388248444
1761131800501207300,7.561207275390625,0.1175151988863945,0.048029281198978424,-0.07903069257736206
1761131800511207200,7.571207275390625,0.122402124106884,0.07673994451761246,-0.072311170399189
1761131800521207300,7.581207275390625,0.13156510889530182,0.10606148093938828,-0.045433104038238525
1761131800531207200,7.591207275390625,0.13889548182487488,0.12927435338497162,0.00038179077091626823
1761131800541208000,7.6012080078125,0.1419498175382614,0.14149166643619537,0.056581392884254456
1761131800551208000,7.6112080078125,0.13950635492801666,0.14393512904644012,0.10667234659194946
1761131800561208000,7.6212080078125,0.13339769840240479,0.13293954730033875,0.14637859165668488
1761131800571208200,7.631208251953125,0.12606731057167053,0.11644618958234787,0.1659262776374817
1761131800581208000,7.6412080078125,0.11507174372673035,0.10361801832914352,0.16959145665168762
1761131800591209000,7.651208984375,0.09857837855815887,0.0944550409913063,0.15920674800872803
1761131800601208800,7.661208740234375,0.07964155822992325,0.09262244403362274,0.13355042040348053
1761131800611208700,7.671208740234375,0.06131559982895851,0.08834638446569443,0.0944550409913063
1761131800621208800,7.681208740234375,0.04604396969079971,0.0797942727804184,0.05047274008393288
1761131800631208700,7.691208740234375,0.03321579843759537,0.06146831437945366,0.009544769302010536
1761131800641208000,7.7012080078125,0.017333300784230232,0.03825543448328972,-0.016111571341753006
1761131800651208000,7.7112080078125,-0.011988230049610138,0.014431691728532314,-0.02955060638487339
1761131800661207800,7.721207763671875,-0.03459024429321289,0.012599095702171326,-0.025274548679590225
1761131800671208000,7.7312080078125,-0.05230533704161644,0.022372938692569733,-0.016111571341753006
1761131800681207800,7.741207763671875,-0.05902485549449921,0.035811975598335266,-0.0014508049935102463
1761131800691208000,7.7512080078125,-0.0645226389169693,0.04375322163105011,0.013209961354732513
1761131800701207800,7.761207763671875,-0.06574437022209167,0.044974952936172485,0.024205535650253296
1761131800711207700,7.771207763671875,-0.0694095641374588,0.03275764733552933,0.024816401302814484
1761131800721207800,7.781207763671875,-0.07551821321249008,0.016264287754893303,0.01687515154480934
1761131800731207700,7.791207763671875,-0.08040513843297958,0.004046982154250145,0.010155634954571724
1761131800741208600,7.80120849609375,-0.08529205620288849,-0.0014508049935102463,0.011988230049610138
1761131800751208400,7.81120849609375,-0.08834638446569443,0.00038179077091626823,0.01687515154480934
1761131800761208000,7.8212080078125,-0.09506590664386749,0.008323038928210735,0.02298380434513092
1761131800771208400,7.83120849609375,-0.09689849615097046,0.018707748502492905,0.03459024429321289
1761131800781208000,7.8412080078125,-0.09628763794898987,0.02298380434513092,0.04619668424129486
1761131800791208000,7.8512080078125,-0.0944550409913063,0.022372938692569733,0.05169447138905525
1761131800801208000,7.8612080078125,-0.09323330968618393,0.027870727702975273,0.05597052723169327
1761131800811207400,7.87120751953125,-0.0944550409913063,0.033368512988090515,0.05597052723169327
1761131800821207600,7.88120751953125,-0.09934195876121521,0.041920628398656845,0.0492510087788105
1761131800831207000,7.89120703125,-0.10728321224451065,0.053527068346738815,0.03703370690345764
1761131800841206000,7.9012060546875,-0.11217013001441956,0.06146831437945366,0.022372938692569733
1761131800851206100,7.9112060546875,-0.11583532392978668,0.07185302674770355,0.014431691728532314
1761131800861206000,7.9212060546875,-0.11888964474201202,0.09140071272850037,0.012599095702171326
1761131800871206100,7.9312060546875,-0.11766792088747025,0.11827878654003143,0.019318614155054092
1761131800881206000,7.9412060546875,-0.11094839870929718,0.1500437706708908,0.0339793786406517
1761131800891206100,7.9512060546875,-0.10606148093938828,0.15676330029964447,0.04314235970377922
1761131800901206000,7.9612060546875,-0.10361801832914352,0.14943291246891022,0.04986187443137169
1761131800911206100,7.9712060546875,-0.10667234659194946,0.14393512904644012,0.05291620269417763
1761131800921206000,7.9812060546875,-0.10422888398170471,0.13416127860546112,0.05780312418937683
1761131800931206100,7.9912060546875,-0.10850493609905243,0.10239628702402115,0.07185302674770355
1761131800941206300,8.001206298828125,-0.1097266674041748,0.08223773539066315,0.08407033234834671
1761131800951205400,8.011205322265624,-0.0999528244137764,0.07246389240026474,0.0895681157708168
1761131800961205500,8.02120556640625,-0.07857254147529602,0.07857254147529602,0.0846811980009079
1761131800971205400,8.031205322265626,-0.05535966157913208,0.10178542137145996,0.07307475805282593
1761131800981204700,8.041204833984375,-0.03275764733552933,0.1298852264881134,0.05719225853681564
1761131800991204600,8.05120458984375,-0.016264287754893303,0.1549306958913803,0.04069889709353447
1761131801001204700,8.061204833984375,-0.0009926559869199991,0.16959145665168762,0.03275764733552933
1761131801011204400,8.071204345703125,0.016111571341753006,0.17325665056705475,0.027870727702975273
1761131801021204200,8.081204345703124,0.033826664090156555,0.16836974024772644,0.02848159149289131
1761131801041204000,8.101203857421876,0.04482223838567734,0.11827878654003143,0.035811975598335266
1761131801081204200,8.141204345703125,0.0038942659739404917,-0.031383201479911804,0.04864014685153961
1761131801091204900,8.151204833984375,0.00939205288887024,-0.04604396969079971,0.04253149405121803
1761131801101204700,8.161204833984375,0.01061378326267004,-0.05337435007095337,0.02848159149289131
1761131801111205000,8.171205078125,0.011224648915231228,-0.0466548316180706,0.008323038928210735
1761131801121205200,8.181205322265624,0.017333300784230232,0.0022143865935504436,-0.02099849283695221
1761131801131206000,8.191205810546874,0.01488984003663063,0.04069889709353447,-0.03443752974271774
1761131801141206800,8.201206787109374,0.00022907447419129312,0.06513350456953049,-0.048487428575754166
1761131801151206700,8.21120654296875,-0.02054034359753132,0.07063129544258118,-0.07108944654464722
1761131801161207000,8.22120703125,-0.04619668424129486,0.0492510087788105,-0.10041097551584244
1761131801171207000,8.23120703125,-0.0694095641374588,0.04619668424129486,-0.1278999149799347
1761131801181207000,8.24120703125,-0.08529205620288849,0.0645226389169693,-0.1584431678056717
1761131801191207000,8.25120703125,-0.0999528244137764,0.10117455571889877,-0.18104518949985504
1761131801201207000,8.26120703125,-0.11155926436185837,0.15126550197601318,-0.20059287548065186
1761131801211207200,8.271207275390625,-0.10911580175161362,0.20379991829395294,-0.21952970325946808
1761131801221207000,8.28120703125,-0.08895725011825562,0.25389087200164795,-0.23724478483200073
1761131801231207000,8.29120703125,-0.06207918003201485,0.30459266901016235,-0.25190556049346924
1761131801241206800,8.301206787109376,-0.016264287754893303,0.3876703679561615,-0.2885574698448181
1761131801251207200,8.311207275390625,0.019165897741913795,0.4072180390357971,-0.30627256631851196
1761131801261207300,8.321207275390625,0.07597636431455612,0.48601967096328735,-0.2934443950653076
1761131801271206400,8.331206298828125,0.18654297292232513,0.8494845032691956,-0.2537381649017334
1761131801281207300,8.341207275390625,0.28183794021606445,1.0076985359191895,-0.27695104479789734
1761131801291207200,8.351207275390625,0.2604576647281647,0.6417902708053589,-0.33131805062294006
1761131801301207000,8.36120703125,0.06131559982895851,0.4389830231666565,-0.32643112540245056
1761131801311207700,8.371207763671874,-0.2013564556837082,0.4579198658466339,-0.2940552532672882
1761131801321207600,8.38120751953125,-0.3216969072818756,0.4738023579120636,-0.32337677478790283
1761131801331207200,8.391207275390625,-0.31925344467163086,0.401720255613327,-0.3991240859031677
1761131801341207300,8.401207275390625,-0.2563343346118927,0.2471713423728943,-0.4510476291179657
1761131801351208000,8.4112080078125,-0.23495404422283173,0.12194397300481796,-0.37774381041526794
1761131801361208800,8.421208740234375,-0.26855164766311646,0.13843733072280884,-0.2952769994735718
1761131801371208700,8.431208740234375,-0.2618321180343628,0.11888964474201202,-0.2549598813056946
1761131801381209300,8.441209228515625,-0.2905427813529968,0.3528510332107544,-0.28611400723457336
1761131801391209500,8.45120947265625,-0.28871017694473267,0.391946405172348,-0.4369977116584778
1761131801401209600,8.461209716796875,-0.2764928936958313,0.36506834626197815,-0.6361398100852966
1761131801411209500,8.47120947265625,-0.2667190432548523,0.1256091594696045,-0.8022951483726501
1761131801421209600,8.481209716796876,-0.3259729743003845,0.03275764733552933,-0.8823184967041016
1761131801431209500,8.49120947265625,-0.38461601734161377,-0.019776761531829834,-0.9379072189331055
1761131801441208600,8.50120849609375,-0.3742313086986542,-0.07841982692480087,-0.9763917326927185
1761131801451208700,8.511208740234375,-0.34490978717803955,-0.08025242388248444,-0.9482919573783875
1761131801461208300,8.521208251953125,-0.3174208402633667,-0.0869719386100769,-0.8823184967041016
1761131801471208200,8.531208251953124,-0.29970577359199524,-0.10957395285367966,-0.7888560891151428
1761131801481208300,8.541208251953124,-0.28871017694473267,-0.2030363380908966,-0.7051675915718079
1761131801491208200,8.551208251953126,-0.30520355701446533,-0.2390773892402649,-0.5952118039131165
1761131801501208300,8.561208251953126,-0.3064252734184265,-0.43455424904823303,-0.6165921092033386
1761131801511207400,8.57120751953125,-0.35101842880249023,-0.3300963044166565,-0.5829945206642151
1761131801521207600,8.58120751953125,-0.46036332845687866,-0.43455424904823303,-0.5585598945617676
1761131801531207700,8.591207763671875,-0.5281693339347839,-0.5872705578804016,-0.7082219123840332
1761131801541208600,8.60120849609375,-0.5348888635635376,-0.4852560758590698,-0.8041277527809143
1761131801551209000,8.611208984375,-0.5080108046531677,-0.38263070583343506,-0.9189704060554504
1761131801561209000,8.621208984375,-0.4426482319831848,-0.31115949153900146,-1.0057132244110107
1761131801571209000,8.631208984375,-0.31497737765312195,-0.21952970325946808,-1.0380891561508179
1761131801581209000,8.641208984375,-0.05902485549449921,-0.04482223838567734,-0.981278657913208
1761131801591209000,8.651208984375,0.10957395285367966,0.09873109310865402,-0.8872054219245911
1761131801601209000,8.661208984375,0.23480132222175598,0.22945626080036163,-0.7625889182090759
1761131801611209000,8.671208984375,0.3032182455062866,0.2960405647754669,-0.6233116388320923
1761131801621209000,8.681208984375,0.33192890882492065,0.26488643884658813,-0.4803691506385803
1761131801631209000,8.691208984375,0.3197115957736969,0.1702023297548294,-0.32704198360443115
1761131801641208800,8.701208740234375,0.27756190299987793,0.07002042979001999,-0.15538884699344635
1761131801651209000,8.711208984375,0.20914499461650848,-0.06742425262928009,0.02603813074529171
1761131801661208800,8.721208740234376,0.12667818367481232,-0.23968824744224548,0.2160172164440155
1761131801671208700,8.731208740234376,0.05032002553343773,-0.3948480188846588,0.42065706849098206
1761131801681208800,8.741208740234375,-0.015653422102332115,-0.515799343585968,0.633849024772644
1761131801691208700,8.751208740234375,-0.06696610152721405,-0.4314999282360077,0.8659778237342834
1761131801701208800,8.761208740234375,-0.11583532392978668,-0.26656633615493774,1.0858893394470215
1761131801711208700,8.771208740234375,-0.2056325078010559,-0.28122708201408386,1.2001211643218994
1761131801721208600,8.78120849609375,-0.30947959423065186,-0.32215505838394165,1.216003656387329
1761131801731208000,8.7912080078125,-0.36995527148246765,-0.3203224539756775,1.1646909713745117
1761131801741208800,8.801208740234374,-0.37606391310691833,-0.2995530366897583,1.07061767578125
1761131801751208400,8.81120849609375,-0.3363576829433441,-0.27572929859161377,0.9533315896987915
1761131801761208600,8.82120849609375,-0.26366472244262695,-0.2629011273384094,0.8293259143829346
1761131801771208000,8.8312080078125,-0.18852828443050385,-0.25618159770965576,0.6924921274185181
1761131801781207800,8.841207763671875,-0.12255483865737915,-0.21769709885120392,0.5495496392250061
1761131801791208000,8.8512080078125,-0.08162686973810196,-0.14622586965560913,0.3986659348011017
1761131801801208000,8.8612080078125,-0.06696610152721405,-0.06620252132415771,0.24533875286579132
1761131801811208700,8.871208740234374,-0.06513350456953049,0.08101600408554077,0.0541379339993
1761131801821208600,8.88120849609375,-0.05841398984193802,0.16836974024772644,-0.03504839166998863
1761131801831208700,8.891208740234376,-0.04375322163105011,0.2777146100997925,-0.09796751290559769
1761131801841207800,8.901207763671875,-0.03214678168296814,0.3870594799518585,-0.14500413835048676
1761131801851208000,8.9112080078125,-0.019318614155054092,0.5428301095962524,-0.18471038341522217
1761131801861207800,8.921207763671875,-0.0071013085544109344,0.654007613658905,-0.23113614320755005
1761131801871208400,8.93120849609375,-0.00038179077091626823,0.7444156408309937,-0.2891683280467987
1761131801881208600,8.94120849609375,0.04360050708055496,0.8696430325508118,-0.3362049460411072
1761131801891208400,8.95120849609375,0.11934779584407806,0.9741010069847107,-0.37224599719047546
1761131801901208600,8.96120849609375,0.20181460678577423,1.0028116703033447,-0.4040110111236572
1761131801911208400,8.97120849609375,0.28061622381210327,1.0028116703033447,-0.4150065779685974
1761131801921208600,8.98120849609375,0.34720054268836975,0.9997573494911194,-0.39851322770118713
1761131801931208400,8.99120849609375,0.3844633102416992,0.9918161034584045,-0.3588069677352905
1761131801941209300,9.001209228515625,0.39179369807243347,0.966770589351654,-0.2952769994735718
1761131801951209200,9.011209228515625,0.37774381041526794,0.9276752471923828,-0.2189188301563263
1761131801961209300,9.021209228515625,0.3441462218761444,0.8531496524810791,-0.13645201921463013
1761131801971209500,9.03120947265625,0.2903900742530823,0.7364743947982788,-0.0619264654815197
1761131801981209300,9.041209228515624,0.23296873271465302,0.6118578910827637,0.00038179077091626823
1761131801991209500,9.05120947265625,0.17676913738250732,0.5226715803146362,0.05474879592657089
1761131802001209300,9.061209228515626,0.12362385541200638,0.45120033621788025,0.09201157838106155
1761131802011209500,9.07120947265625,0.082085020840168,0.36079227924346924,0.11339186131954193
1761131802021209300,9.081209228515625,0.05398521572351456,0.24961480498313904,0.1201113760471344
1761131802031210000,9.0912099609375,0.03749185428023338,0.13782647252082825,0.12194397300481796
1761131802041209300,9.101209228515625,0.022220224142074585,0.04986187443137169,0.11827878654003143
1761131802051209700,9.111209716796875,-0.01748601719737053,-0.033826664090156555,0.08590292185544968
1761131802061209600,9.121209716796875,-0.05291620269417763,-0.04787656292319298,0.0492510087788105
1761131802071210200,9.131210205078125,-0.08712465316057205,-0.04115704447031021,0.007712173741310835
1761131802081210000,9.141210205078124,-0.12805262207984924,-0.03443752974271774,-0.027718011289834976
1761131802091210200,9.151210205078126,-0.16898059844970703,-0.033826664090156555,-0.05337435007095337
1761131802101210000,9.161210205078126,-0.20318904519081116,-0.02955060638487339,-0.06498079001903534
1761131802111210200,9.171210205078125,-0.21846067905426025,-0.005115996580570936,-0.05887213721871376
1761131802121210000,9.181210205078125,-0.21846067905426025,0.018707748502492905,-0.033826664090156555
1761131802131210200,9.191210205078125,-0.20868684351444244,0.002825251780450344,0.005268712528049946
1761131802141211100,9.201211181640625,-0.1860848218202591,-0.07597636431455612,0.05841398984193802
1761131802151211000,9.2112109375,-0.140269935131073,-0.20609065890312195,0.12255483865737915
1761131802161211100,9.221211181640625,-0.09873109310865402,-0.3288745880126953,0.2056325078010559
1761131802171211000,9.2312109375,-0.06757696717977524,-0.4699844419956207,0.29848402738571167
1761131802181211100,9.241211181640624,-0.04986187443137169,-0.5884923338890076,0.3888920843601227
1761131802191211000,9.2512109375,-0.035811975598335266,-0.6459136605262756,0.45608726143836975
1761131802201211100,9.261211181640626,-0.021762074902653694,-0.6459136605262756,0.4744132161140442
1761131802211211000,9.2712109375,-0.010766499675810337,-0.5964335799217224,0.4542546570301056
1761131802221211100,9.281211181640625,-0.014431691728532314,-0.544510006904602,0.3937790095806122
1761131802231211000,9.2912109375,-0.02054034359753132,-0.49319732189178467,0.3058144152164459
1761131802241210000,9.301210205078124,-0.013820826075971127,-0.4308890700340271,0.20318904519081116
1761131802251210200,9.311210205078124,-0.008323038928210735,-0.3649156391620636,0.09628763794898987
1761131802261210400,9.32121044921875,0.004505131393671036,-0.2946661114692688,-0.0038942659739404917
1761131802271210200,9.331210205078126,0.019776761531829834,-0.23113614320755005,-0.08880453556776047
1761131802281210400,9.34121044921875,0.0264962799847126,-0.14928019046783447,-0.16455182433128357
1761131802291210200,9.351210205078125,0.024663684889674187,-0.13034337759017944,-0.18104518949985504
1761131802301210000,9.361210205078125,-0.04253149405121803,-0.5261840224266052,-0.2537381649017334
1761131802311210200,9.371210205078125,-0.027259862050414085,-0.2903900742530823,-0.24579690396785736
1761131802321210000,9.381210205078125,0.07964155822992325,-0.08636107295751572,-0.1883755773305893
1761131802331210200,9.391210205078124,0.1077413558959961,-0.1731039434671402,-0.1731039434671402
1761131802341211000,9.4012109375,0.08269587904214859,-0.24457517266273499,-0.17004960775375366
1761131802351211000,9.4112109375,-0.0009926559869199991,-0.525573194026947,-0.20242546498775482
1761131802361211000,9.4212109375,-0.010766499675810337,-0.3508657217025757,-0.19142989814281464
1761131802371211000,9.4312109375,0.072311170399189,-0.09063713252544403,-0.13095423579216003
1761131802381211100,9.441211181640625,0.09674578160047531,-0.08269587904214859,-0.10590875893831253
1761131802391211000,9.4512109375,0.09124799817800522,-0.10835222154855728,-0.08636107295751572
1761131802401211100,9.461211181640625,0.09796751290559769,-0.09124799817800522,-0.04970915988087654
1761131802411211000,9.4712109375,0.07536549866199493,-0.10102184116840363,-0.019165897741913795
1761131802421211100,9.481211181640624,0.039935316890478134,-0.10041097551584244,0.010155634954571724
1761131802431211000,9.4912109375,0.008170322515070438,-0.05520694702863693,0.04864014685153961
1761131802441210000,9.501210205078126,-0.019318614155054092,-0.008781188167631626,0.08407033234834671
1761131802451210200,9.511210205078125,-0.04619668424129486,0.015042556449770927,0.10728321224451065
1761131802461210000,9.521210205078125,-0.06757696717977524,0.010155634954571724,0.1097266674041748
1761131802471210000,9.5312099609375,-0.08284860104322433,0.00038179077091626823,0.10056369006633759
1761131802481209900,9.5412099609375,-0.09323330968618393,-0.004505131393671036,0.07673994451761246
1761131802491209700,9.551209716796874,-0.10667234659194946,-0.0032834007870405912,0.044974952936172485
1761131802501209900,9.5612099609375,-0.1201113760471344,0.004657847341150045,0.005268712528049946
1761131802510863600,9.570863525390624,-0.12805262207984924,0.024205535650253296,-0.05093089118599892
1761131802520863700,9.58086376953125,-0.12255483865737915,0.01992947794497013,-0.07964155822992325
1761131802530863900,9.59086376953125,-0.10728321224451065,0.013209961354732513,-0.09796751290559769
1761131802540864500,9.600864501953126,-0.09201157838106155,0.007712173741310835,-0.10468703508377075
1761131802550864600,9.61086474609375,-0.07673994451761246,0.010766499675810337,-0.09857837855815887
1761131802560864500,9.620864501953125,-0.07002042979001999,0.022372938692569733,-0.08391761034727097
1761131802570864600,9.63086474609375,-0.07185302674770355,0.033368512988090515,-0.06620252132415771
1761131802580864500,9.640864501953125,-0.07857254147529602,0.024205535650253296,-0.04482223838567734
1761131802590864600,9.65086474609375,-0.08407033234834671,0.007712173741310835,-0.02344195358455181
1761131802600864500,9.660864501953125,-0.0944550409913063,-0.01488984003663063,-0.0014508049935102463
1761131802610864600,9.67086474609375,-0.10178542137145996,-0.033826664090156555,0.013209961354732513
1761131802620864800,9.68086474609375,-0.10667234659194946,-0.045433104038238525,0.02848159149289131
1761131802630864600,9.69086474609375,-0.10728321224451065,-0.05093089118599892,0.03825543448328972
1761131802640863700,9.70086376953125,-0.10850493609905243,-0.04726569727063179,0.039477165788412094
1761131802650863900,9.71086376953125,-0.10911580175161362,-0.039324451237916946,0.03214678168296814
1761131802660863700,9.72086376953125,-0.11278099566698074,-0.042989641427993774,0.018707748502492905
1761131802670864000,9.73086376953125,-0.11827878654003143,-0.05520694702863693,0.007712173741310835
1761131802680863700,9.74086376953125,-0.12683089077472687,-0.05093089118599892,0.0022143865935504436
1761131802690863900,9.75086376953125,-0.13721559941768646,-0.033826664090156555,0.00038179077091626823
1761131802700863700,9.76086376953125,-0.1457677185535431,-0.013057244941592216,0.0022143865935504436
1761131802710863600,9.770863525390626,-0.14271339774131775,0.002825251780450344,0.004046982154250145
1761131802720863700,9.78086376953125,-0.12927435338497162,0.007712173741310835,0.009544769302010536
1761131802730863600,9.790863525390625,-0.10422888398170471,0.008933904580771923,0.01992947794497013
1761131802740864500,9.800864501953125,-0.05597052723169327,0.018096882849931717,0.04130976274609566
1761131802750864400,9.810864501953125,-0.027259862050414085,0.02054034359753132,0.05719225853681564
1761131802760864500,9.820864501953125,-0.008933904580771923,0.02298380434513092,0.06757696717977524
1761131802770865000,9.830864990234375,0.00022907447419129312,0.022372938692569733,0.0742964819073677
1761131802780864800,9.84086474609375,0.0038942659739404917,0.011988230049610138,0.08101600408554077
1761131802790864100,9.850864013671876,0.00022907447419129312,0.010155634954571724,0.09078984707593918
1761131802800864000,9.860864013671875,-0.011377365328371525,-0.0032834007870405912,0.09750936180353165
1761131802810864000,9.870864013671875,-0.027259862050414085,-0.03627012297511101,0.09750936180353165
1761131802820864300,9.8808642578125,-0.03764457255601883,-0.06620252132415771,0.09750936180353165
1761131802830864100,9.890864013671875,-0.03764457255601883,-0.09002626687288284,0.0895681157708168
1761131802840863200,9.90086328125,-0.0339793786406517,-0.11507174372673035,0.07918340712785721
1761131802850863400,9.91086328125,-0.03275764733552933,-0.1278999149799347,0.0645226389169693
1761131802860863200,9.92086328125,-0.03764457255601883,-0.12423472106456757,0.047418415546417236
1761131802870863400,9.93086328125,-0.04253149405121803,-0.11140654981136322,0.01992947794497013
1761131802880863200,9.94086328125,-0.041920628398656845,-0.10041097551584244,-0.00939205288887024
1761131802890863400,9.95086328125,-0.03703370690345764,-0.08391761034727097,-0.03627012297511101
1761131802900863200,9.96086328125,-0.02848159149289131,-0.0619264654815197,-0.05581781268119812
1761131802910863400,9.97086328125,-0.02298380434513092,-0.03443752974271774,-0.06436992436647415
1761131802920863000,9.980863037109375,-0.01748601719737053,-0.013057244941592216,-0.06620252132415771
1761131802930862800,9.99086279296875,-0.005879578180611134,-0.013057244941592216,-0.06986771523952484
1761131802940863700,10.00086376953125,0.02038762718439102,-0.01488984003663063,-0.08330674469470978
1761131802950863600,10.010863525390626,0.05642867833375931,-0.021609358489513397,-0.10651962459087372
1761131802960863700,10.02086376953125,0.08513934165239334,-0.03810271993279457,-0.13584116101264954
1761131802970863000,10.030863037109375,0.11568260937929153,-0.07170030474662781,-0.16210836172103882
1761131802980863200,10.04086328125,0.12118039280176163,-0.08086328953504562,-0.1633300930261612
1761131802990863000,10.050863037109375,0.11018481850624084,-0.08147415518760681,-0.15050192177295685
1761131803000863200,10.06086328125,0.08941540122032166,-0.07170030474662781,-0.12912164628505707
1761131803010863000,10.070863037109374,0.06620252132415771,-0.060093868523836136,-0.10346530377864838
1761131803020863200,10.08086328125,0.052152618765830994,-0.057650405913591385,-0.07964155822992325
1761131803030863000,10.090863037109376,0.052152618765830994,-0.0771980956196785,-0.060093868523836136
1761131803040862500,10.100862548828125,0.06314819306135178,-0.09369145333766937,-0.039324451237916946
1761131803050862300,10.1108623046875,0.07353290170431137,-0.08086328953504562,-0.01794416643679142
1761131803060862200,10.1208623046875,0.0869719386100769,-0.04237877577543259,0.0016035212902352214
1761131803070862300,10.1308623046875,0.09918924421072006,-0.0069485921412706375,0.02054034359753132
1761131803080862200,10.1408623046875,0.1071304902434349,0.038866300135850906,0.038866300135850906
1761131803090862800,10.15086279296875,0.08391761034727097,0.14821118116378784,0.15676330029964447
1761131803100863000,10.160863037109374,0.04787656292319298,0.09262244403362274,0.2471713423728943
1761131803110862800,10.17086279296875,0.039935316890478134,0.0022143865935504436,0.30459266901016235
1761131803120863000,10.180863037109376,0.06803511828184128,-0.11812606453895569,0.30214923620224
1761131803130863000,10.190863037109375,0.10102184116840363,-0.22747094929218292,0.2526691257953644
1761131803140863700,10.20086376953125,0.11629346758127213,-0.27084237337112427,0.1702023297548294
1761131803150864000,10.21086376953125,0.1071304902434349,-0.21525363624095917,0.07857254147529602
1761131803160864000,10.220864013671875,0.06803511828184128,-0.122402124106884,-0.021609358489513397
1761131803170863900,10.23086376953125,0.010002918541431427,-0.02344195358455181,-0.12179125845432281
1761131803180863700,10.24086376953125,-0.024205535650253296,0.09384417533874512,-0.21097758412361145
1761131803190864000,10.25086376953125,-0.018096882849931717,0.19219347834587097,-0.254349023103714
