time,seconds_elapsed,z,y,x
1761132339484715500,0.118715576171875,0.778956413269043,1.099142074584961,0.5450963973999023
1761132339514704400,0.148704345703125,0.7754650115966797,1.1256897449493408,0.5464529991149902
1761132339524704500,0.15870458984375,0.7741165161132812,1.1336466073989868,0.5455541610717773
1761132339534704400,0.168704345703125,0.7680282592773438,1.1182001829147339,0.5110540390014648
1761132339544704500,0.17870458984375,0.7680931091308594,1.0967192649841309,0.4982795715332031
1761132339554704600,0.18870458984375,0.7694282531738281,1.0728044509887695,0.4890885353088379
1761132339564704500,0.19870458984375,0.7726430892944336,1.0414618253707886,0.48282885551452637
1761132339574704600,0.20870458984375,0.7806520462036133,0.9954107999801636,0.48674845695495605
1761132339584704500,0.21870458984375,0.7985172271728516,0.9351245164871216,0.5213367938995361
1761132339594702000,0.2287021484375,0.8228235244750977,0.8663815259933472,0.5740814208984375
1761132339604702000,0.238701904296875,0.846074104309082,0.7952780723571777,0.6175310611724854
1761132339614702000,0.2487021484375,0.8650913238525391,0.7245463132858276,0.6415815353393555
1761132339624702000,0.258701904296875,0.8791160583496094,0.652972936630249,0.6430549621582031
1761132339634702000,0.2687021484375,0.8951997756958008,0.578190803527832,0.6477928161621094
1761132339644702000,0.278701904296875,0.9232110977172852,0.4942384958267212,0.6886000633239746
1761132339654702000,0.2887021484375,0.9561481475830078,0.40097665786743164,0.7362339496612549
1761132339664702000,0.298701904296875,0.9906463623046875,0.30553388595581055,0.7829372882843018
1761132339674702000,0.3087021484375,1.0133047103881836,0.21901535987854004,0.7899446487426758
1761132339684702000,0.318701904296875,1.0096149444580078,0.14852118492126465,0.7115993499755859
1761132339694702000,0.3287021484375,0.9765539169311523,0.09701228141784668,0.5312964916229248
1761132339704702000,0.338701904296875,0.9227619171142578,0.06633663177490234,0.26389002799987793
1761132339714702000,0.3487021484375,-4.503242492675781,1.6779532432556152,-2.5987491607666016
1761132339724702200,0.3587021484375,-4.027317523956299,2.083974838256836,-4.615649223327637
1761132339734702000,0.3687021484375,-4.052236080169678,2.1064891815185547,-4.739840030670166
1761132339744702200,0.3787021484375,-6.177655220031738,0.8226346969604492,-3.513397693634033
1761132339754702000,0.3887021484375,-6.434295177459717,0.9563686847686768,-2.9120373725891113
1761132339764702200,0.3987021484375,-5.124924182891846,0.754446268081665,-1.4516737461090088
1761132339774702000,0.4087021484375,-5.802953720092773,-0.7156432867050171,1.421697974205017
1761132339784702200,0.4187021484375,-6.5461106300354,-0.8157919645309448,2.0291526317596436
1761132339794701300,0.428701416015625,-5.515006065368652,0.44904112815856934,0.5811384916305542
1761132339804701200,0.438701171875,-5.315898418426514,0.7348314523696899,0.4430408477783203
1761132339814701300,0.448701416015625,-4.492696285247803,1.0810277462005615,0.2111341953277588
1761132339824701200,0.458701171875,-3.432054042816162,1.3544902801513672,0.5702230930328369
1761132339834701300,0.468701416015625,-1.189824104309082,1.1226227283477783,2.4751436710357666
1761132339844701200,0.478701171875,-0.1258859634399414,0.4083389341831207,4.6284918785095215
1761132339854701300,0.488701416015625,0.46258068084716797,0.022817395627498627,5.633934497833252
1761132339864701200,0.498701171875,0.883305549621582,-0.07647854089736938,5.894667148590088
1761132339874701300,0.508701416015625,0.7941179275512695,-0.20546716451644897,5.905780792236328
1761132339884701200,0.518701171875,-0.09750747680664062,0.23360490798950195,5.229379177093506
1761132339894702000,0.5287021484375,-0.4417734146118164,1.4704313278198242,4.7666497230529785
1761132339904702200,0.5387021484375,-1.591252326965332,1.8618335723876953,4.2535858154296875
1761132339914702000,0.5487021484375,-2.2029385566711426,1.697843313217163,5.307435512542725
1761132339924702200,0.5587021484375,-2.5017032623291016,2.2953732013702393,4.292758941650391
1761132339934702000,0.5687021484375,-3.2135086059570312,2.8743770122528076,3.436138153076172
1761132339944702200,0.5787021484375,-4.377872467041016,2.8296611309051514,3.5526795387268066
1761132339954702000,0.5887021484375,-5.1783952713012695,2.399353504180908,3.22133469581604
1761132339974702000,0.6087021484375,-6.728978157043457,3.240396499633789,-0.6987283229827881
1761132339984702200,0.6187021484375,-6.978065013885498,3.1820292472839355,-2.373457193374634
1761132339994701300,0.628701416015625,-4.891335964202881,3.4191274642944336,-3.930666208267212
1761132340004701200,0.638701171875,-3.2635178565979004,3.522002696990967,-4.341992378234863
1761132340014701300,0.648701416015625,0.9552507400512695,2.733081817626953,0.04401814937591553
1761132340024701200,0.658701171875,7.919078826904297,3.3129820823669434,2.4690442085266113
1761132340034701300,0.668701416015625,14.635993957519531,4.201261043548584,4.572944641113281
1761132340044701200,0.678701171875,23.430910110473633,2.2403550148010254,8.56092357635498
1761132340054701300,0.688701416015625,29.4315185546875,0.1134987473487854,9.539742469787598
1761132340064701200,0.698701171875,32.779327392578125,-1.3756604194641113,6.883703708648682
1761132340074701300,0.708701416015625,30.859214782714844,-1.2330875396728516,2.95205020904541
1761132340084701200,0.718701171875,28.607393264770508,-0.9167256951332092,0.7414830923080444
1761132340094702000,0.7287021484375,28.605104446411133,-1.019278645515442,0.8004785776138306
1761132340104702200,0.7387021484375,26.14672088623047,-0.9433671236038208,3.2565479278564453
1761132340114702000,0.7487021484375,25.948993682861328,-0.8517186641693115,4.42753791809082
1761132340124702200,0.7587021484375,25.060359954833984,-1.1197434663772583,3.6580586433410645
1761132340134702000,0.7687021484375,21.827835083007812,-1.4421203136444092,2.4412872791290283
1761132340144702200,0.7787021484375,17.309473037719727,-1.2054250240325928,1.6757619380950928
1761132340154702000,0.7887021484375,17.308834075927734,-1.3897082805633545,1.6536849737167358
1761132340164702200,0.7987021484375,8.337337493896484,-0.18683913350105286,1.9771983623504639
1761132340174702000,0.8087021484375,5.124234199523926,0.1219484806060791,2.3692984580993652
1761132340184702200,0.8187021484375,2.7459983825683594,0.08261924982070923,2.1459364891052246
1761132340194701300,0.828701416015625,1.098846435546875,-0.36173731088638306,1.371045470237732
1761132340204701400,0.838701416015625,-0.7176284790039062,-0.6551445722579956,0.6888642311096191
1761132340214701300,0.848701416015625,-3.2901434898376465,-1.0414562225341797,0.21545755863189697
1761132340224701200,0.858701171875,-6.199105262756348,-1.5492489337921143,-0.19233810901641846
1761132340234701300,0.868701416015625,-6.158296585083008,-1.776498794555664,-0.15931522846221924
1761132340244701200,0.878701171875,-10.374030113220215,-2.434131383895874,-0.723860502243042
1761132340254701300,0.888701416015625,-12.263802528381348,-3.633296251296997,-1.4347865581512451
1761132340264701200,0.898701171875,-14.64090347290039,-5.157629013061523,-0.8348333835601807
1761132340274701300,0.908701416015625,-16.02594566345215,-5.874000549316406,0.2130643129348755
1761132340284701200,0.918701171875,-16.980348587036133,-5.806580543518066,0.9291130304336548
1761132340294702000,0.9287021484375,-17.57848358154297,-6.018443584442139,2.0288631916046143
1761132340304702200,0.9387021484375,-17.268335342407227,-5.842334270477295,2.8954615592956543
1761132340314702000,0.9487021484375,-17.175071716308594,-5.60558557510376,2.35854434967041
1761132340324702200,0.9587021484375,-17.275863647460938,-5.751597881317139,1.925836443901062
1761132340334702000,0.9687021484375,-17.17207145690918,-6.0057172775268555,1.541752815246582
1761132340344702200,0.9787021484375,-16.90345573425293,-6.178951740264893,1.4378879070281982
1761132340354702000,0.9887021484375,-16.38930892944336,-6.250371932983398,1.6604902744293213
1761132340364702200,0.9987021484375,-15.779691696166992,-6.161409378051758,1.7492564916610718
1761132340374702000,1.0087021484375,-15.372396469116211,-6.069440841674805,2.199690818786621
1761132340384702200,1.0187021484375,-15.01866626739502,-6.028592109680176,2.703580379486084
1761132340394701300,1.028701416015625,-14.544055938720703,-6.036343097686768,2.795686960220337
1761132340404701200,1.038701171875,-13.800633430480957,-6.143612861633301,2.4957692623138428
1761132340414701300,1.048701416015625,-12.863040924072266,-6.349668979644775,1.8629634380340576
1761132340424701200,1.058701171875,-12.115991592407227,-6.6111836433410645,1.441164255142212
1761132340434701300,1.068701416015625,-11.430566787719727,-6.8100690841674805,1.0696419477462769
1761132340444701200,1.078701171875,-10.79553508758545,-6.879757881164551,0.9968518018722534
1761132340454701300,1.088701416015625,-9.939258575439453,-6.959953308105469,1.1822625398635864
1761132340464701200,1.098701171875,-9.1080961227417,-6.730867862701416,1.2313339710235596
1761132340474701000,1.108701171875,-8.670761108398438,-6.2928876876831055,1.2638237476348877
1761132340484701200,1.118701171875,-8.716136932373047,-6.116851806640625,1.3374347686767578
1761132340494702000,1.1287021484375,-7.826639175415039,-5.9640793800354,1.3409212827682495
1761132340504702000,1.138701904296875,-6.980225563049316,-5.720431327819824,0.8118512630462646
1761132340514702000,1.1487021484375,-6.436999320983887,-5.334844589233398,0.6184515953063965
1761132340524702000,1.158701904296875,-5.861874580383301,-4.8410444259643555,0.5832313299179077
1761132340534702000,1.1687021484375,-5.053124904632568,-4.332470893859863,0.8560972213745117
1761132340544702000,1.178701904296875,-4.3307271003723145,-3.413546562194824,1.5123471021652222
1761132340554702000,1.1887021484375,-4.33806848526001,-3.3517208099365234,1.5425664186477661
1761132340564702000,1.198701904296875,-1.2080721855163574,-1.0875773429870605,3.965162754058838
1761132340574702000,1.2087021484375,2.549419403076172,0.32590627670288086,3.153834342956543
1761132340584702000,1.218701904296875,8.90092658996582,3.254009962081909,1.1189148426055908
1761132340594701300,1.228701416015625,17.655052185058594,4.3232741355896,1.9118602275848389
1761132340604701200,1.238701171875,29.257966995239258,3.465203285217285,4.837210178375244
1761132340614701300,1.248701416015625,41.671974182128906,2.782189130783081,7.230873107910156
1761132340624701200,1.258701171875,50.12411880493164,3.2350313663482666,7.43195915222168
1761132340634701300,1.268701416015625,51.638710021972656,4.27694845199585,6.995247840881348
1761132340644701200,1.278701171875,46.690093994140625,6.1300458908081055,7.052978515625
1761132340654701000,1.288701171875,39.63158416748047,7.64522123336792,6.909007549285889
1761132340664701200,1.298701171875,32.9412956237793,8.844972610473633,6.750304222106934
1761132340674701300,1.308701416015625,27.2442626953125,9.362957954406738,5.532224178314209
1761132340684701200,1.318701171875,22.290664672851562,9.30309009552002,3.9673962593078613
1761132340694702000,1.3287021484375,17.97537612915039,8.615325927734375,2.6833908557891846
1761132340704702000,1.338701904296875,13.117477416992188,7.84215784072876,2.095569610595703
1761132340714702000,1.3487021484375,9.400976181030273,7.234850883483887,2.1897621154785156
1761132340724702200,1.3587021484375,6.225950241088867,6.625672340393066,2.431809663772583
1761132340734701300,1.368701416015625,3.7415390014648438,5.978909969329834,2.7347116470336914
1761132340744700400,1.378700439453125,1.5395498275756836,5.190174102783203,3.3010196685791016
1761132340754699800,1.38869970703125,-0.9386129379272461,4.058640480041504,3.517261028289795
1761132340764699400,1.398699462890625,-3.67264986038208,2.832568883895874,3.274045467376709
1761132340774698800,1.40869873046875,-5.809295654296875,1.8226943016052246,2.8779821395874023
1761132340784698400,1.418698486328125,-7.204336643218994,0.8040651082992554,2.4523468017578125
1761132340794697500,1.428697509765625,-7.217783451080322,0.7989881038665771,2.385756731033325
1761132340804696800,1.43869677734375,-8.777307510375977,-1.2370887994766235,1.559873342514038
1761132340814696700,1.44869677734375,-9.658269882202148,-2.095899820327759,1.110351324081421
1761132340824696800,1.45869677734375,-10.732147216796875,-2.8578414916992188,0.6573516130447388
1761132340834696700,1.46869677734375,-11.856328010559082,-3.4666953086853027,0.369482159614563
1761132340844696000,1.478696044921875,-12.884061813354492,-3.7860748767852783,-0.30257606506347656
1761132340854696200,1.4886962890625,-14.771200180053711,-4.230037689208984,-0.8602821826934814
1761132340864696000,1.498696044921875,-16.09515953063965,-4.909867286682129,0.12041711807250977
1761132340874696200,1.5086962890625,-16.740978240966797,-4.814775466918945,0.9517766833305359
1761132340884696000,1.518696044921875,-17.041725158691406,-4.503747463226318,1.4318444728851318
1761132340894697000,1.528697021484375,-17.460041046142578,-4.544826030731201,1.8346319198608398
1761132340904696800,1.53869677734375,-17.429615020751953,-4.686923503875732,1.8496978282928467
1761132340918075600,1.55207568359375,-18.050350189208984,-5.117955207824707,2.1667470932006836
1761132340928075500,1.562075439453125,-17.58228302001953,-5.226534843444824,1.7598614692687988
1761132340938075400,1.572075439453125,-16.256359100341797,-5.198915481567383,1.0378258228302002
1761132340948075500,1.582075439453125,-14.656088829040527,-5.293764591217041,0.4617331027984619
1761132340958075600,1.59207568359375,-13.03760814666748,-5.400668621063232,-0.11988949775695801
1761132340968074800,1.60207470703125,-11.532283782958984,-5.389270782470703,-0.575139045715332
1761132340978073900,1.612073974609375,-10.143556594848633,-5.218992710113525,-0.7821800708770752
1761132340988073000,1.622072998046875,-9.043778419494629,-4.903270721435547,-0.915839433670044
1761132340998072000,1.632072021484375,-8.372292518615723,-4.623255729675293,-0.8039522171020508
1761132341008071200,1.6420712890625,-8.267595291137695,-4.291294097900391,-0.6538164615631104
1761132341018070300,1.6520703125,-7.973518371582031,-4.030149459838867,-0.23323345184326172
1761132341028069400,1.6620693359375,-7.742874622344971,-3.622152805328369,-0.013804316520690918
1761132341038069500,1.672069580078125,-7.95011568069458,-3.2604169845581055,-0.2692786455154419
1761132341048069400,1.6820693359375,-8.568151473999023,-3.056227684020996,-0.7016674280166626
1761132341058069000,1.692069091796875,-8.78294563293457,-2.7997634410858154,-0.7594578266143799
1761132341068068600,1.702068603515625,-8.547689437866211,-2.418863296508789,-0.6094517707824707
1761132341078068200,1.712068115234375,-8.35346508026123,-2.288569927215576,0.1442946195602417
1761132341088067800,1.72206787109375,-6.827821731567383,-2.059232711791992,1.0983245372772217
1761132341098067700,1.732067626953125,-4.9737467765808105,-1.63905930519104,1.79202139377594
1761132341108067600,1.742067626953125,-2.7689876556396484,-1.2251547574996948,2.17923641204834
1761132341118066700,1.752066650390625,-0.9792566299438477,-0.7673213481903076,2.7959165573120117
1761132341128065800,1.762065673828125,0.010141372680664062,-0.6607536673545837,3.863091230392456
1761132341138065000,1.77206494140625,1.0575151443481445,-0.35659945011138916,4.2446112632751465
1761132341148064800,1.782064697265625,3.3045873641967773,0.6991789937019348,4.314115524291992
1761132341158063900,1.79206396484375,6.3979291915893555,1.9916441440582275,4.047943592071533
1761132341168063000,1.80206298828125,11.342942237854004,3.6716785430908203,3.38061261177063
1761132341178062000,1.81206201171875,20.340126037597656,5.27007532119751,3.007920026779175
1761132341188061200,1.822061279296875,30.727195739746094,5.75194787979126,4.324642181396484
1761132341198060300,1.832060302734375,30.722171783447266,5.941347122192383,4.188558101654053
1761132341208059400,1.842059326171875,45.44175338745117,5.1913042068481445,7.0339436531066895
1761132341218058500,1.85205859375,44.3682861328125,4.8903961181640625,5.036673069000244
1761132341228057600,1.8620576171875,39.899845123291016,5.564406394958496,2.774709939956665
1761132341238056700,1.872056640625,35.690860748291016,6.30986213684082,2.1381568908691406
1761132341248055800,1.882055908203125,30.95318603515625,6.755176544189453,1.7083791494369507
1761132341258056000,1.892055908203125,26.13103485107422,7.17225456237793,0.5163804292678833
1761132341268056600,1.902056640625,21.87210464477539,6.850090980529785,-0.056659698486328125
1761132341278057500,1.912057373046875,17.89584732055664,6.287326812744141,-0.16599178314208984
1761132341288058400,1.922058349609375,13.91179370880127,5.8075385093688965,-0.14429402351379395
1761132341298059300,1.932059326171875,10.397528648376465,5.510801792144775,0.3648865222930908
1761132341308060200,1.94206005859375,6.50433349609375,5.009701728820801,1.3281724452972412
1761132341318061000,1.95206103515625,2.064295768737793,4.426568508148193,2.599705219268799
1761132341328061700,1.962061767578125,-1.7303037643432617,4.061938762664795,4.505599498748779
1761132341338062600,1.9720625,-3.5515551567077637,3.2103819847106934,5.649058818817139
1761132341348063500,1.9820634765625,-3.73984432220459,1.7490260601043701,5.556662559509277
1761132341358064400,1.992064453125,-4.065659046173096,0.2134995460510254,4.941176891326904
1761132341368064800,2.002064697265625,-3.9544248580932617,-1.0343270301818848,3.9195139408111572
1761132341378065000,2.01206494140625,-3.7471671104431152,-1.9908404350280762,2.944180965423584
1761132341388065000,2.02206494140625,-3.9056529998779297,-2.7077536582946777,2.474094867706299
1761132341398065200,2.032065185546875,-4.374233245849609,-3.0869100093841553,2.3578073978424072
1761132341408066000,2.042066162109375,-4.861822128295898,-3.1857523918151855,2.645700454711914
1761132341418067000,2.05206689453125,-5.24345588684082,-2.9832780361175537,2.9082610607147217
1761132341428067800,2.06206787109375,-5.7859015464782715,-2.894756555557251,3.302180767059326
1761132341438068700,2.07206884765625,-6.58387565612793,-2.8671350479125977,3.51850962638855
1761132341448069400,2.0820693359375,-7.5612030029296875,-2.8101017475128174,3.525439977645874
1761132341458070300,2.0920703125,-8.815544128417969,-2.6424078941345215,3.5306851863861084
1761132341468071200,2.1020712890625,-10.083910942077637,-2.6592140197753906,3.8017497062683105
1761132341478072000,2.112072021484375,-11.487772941589355,-2.7220497131347656,4.159512996673584
1761132341488073000,2.122072998046875,-12.456252098083496,-2.6705424785614014,4.660915851593018
1761132341498073900,2.132073974609375,-12.997783660888672,-2.735560894012451,5.171142578125
1761132341508074800,2.14207470703125,-13.403273582458496,-2.762228488922119,5.567778587341309
1761132341518075600,2.15207568359375,-13.617355346679688,-2.63539981842041,6.069206714630127
1761132341528076500,2.16207666015625,-14.015708923339844,-2.6440186500549316,6.683753967285156
1761132341538077400,2.172077392578125,-14.182723045349121,-2.587263584136963,6.943822383880615
1761132341548078000,2.182078125,-14.294000625610352,-2.507373571395874,7.055263519287109
1761132341558078200,2.192078125,-14.231491088867188,-2.5350799560546875,6.954030990600586
1761132341568077600,2.20207763671875,-14.020602226257324,-2.6514830589294434,6.761958122253418
1761132341578077700,2.21207763671875,-13.514259338378906,-2.836637496948242,6.344487190246582
1761132341588077800,2.222077880859375,-12.958314895629883,-3.0996148586273193,5.904339790344238
1761132341598077000,2.232076904296875,-12.135332107543945,-3.2324020862579346,5.4378437995910645
1761132341608076800,2.242076904296875,-11.323738098144531,-3.319075584411621,4.843851089477539
1761132341618077000,2.252076904296875,-10.563809394836426,-3.416907787322998,4.499216079711914
1761132341628076800,2.262076904296875,-9.6934814453125,-3.574601173400879,4.253535747528076
1761132341638077000,2.272076904296875,-9.091447830200195,-3.6593194007873535,4.006494998931885
1761132341648076800,2.282076904296875,-8.534031867980957,-3.768238067626953,3.835733413696289
1761132341668077600,2.30207763671875,-7.440619468688965,-3.803889036178589,2.9527268409729004
1761132341678078200,2.312078125,-7.266955375671387,-3.719977378845215,2.4689340591430664
1761132341688078800,2.322078857421875,-7.28591251373291,-3.6235511302948,2.4610419273376465
1761132341698079700,2.332079833984375,-7.852355480194092,-3.206899404525757,2.092609167098999
1761132341708079600,2.34207958984375,-8.214996337890625,-2.7089638710021973,2.458690643310547
1761132341718079700,2.352079833984375,-8.000797271728516,-2.2362852096557617,3.219521999359131
1761132341728079600,2.36207958984375,-6.782215595245361,-1.6934924125671387,4.2910614013671875
1761132341738079700,2.372079833984375,-4.269385814666748,-1.202291488647461,4.293080806732178
1761132341748079600,2.38207958984375,-0.4880542755126953,-1.3252217769622803,2.7789950370788574
1761132341758079500,2.39207958984375,3.680776596069336,-1.5681896209716797,1.6158735752105713
1761132341768079400,2.402079345703125,5.5599260330200195,-1.3940305709838867,0.31895875930786133
1761132341778079500,2.41207958984375,6.404126167297363,-0.28442689776420593,-2.1025710105895996
1761132341788079400,2.422079345703125,9.844691276550293,1.945039987564087,-3.3459606170654297
1761132341798078700,2.43207861328125,12.175155639648438,4.496175765991211,-5.7217488288879395
1761132341808078600,2.44207861328125,16.128662109375,5.188242435455322,-6.315950870513916
1761132341818078700,2.45207861328125,23.508731842041016,4.4264607429504395,-4.9238152503967285
1761132341828078600,2.46207861328125,30.11652946472168,2.6545112133026123,-3.0279321670532227
1761132341838078700,2.47207861328125,35.88954544067383,0.6918741464614868,0.007734060287475586
1761132341848078600,2.48207861328125,39.512779235839844,-0.058042705059051514,1.2536303997039795
1761132341858078500,2.492078369140625,40.88133239746094,-0.7490851283073425,0.7999684810638428
1761132341868079000,2.5020791015625,39.3382682800293,1.6010887622833252,0.47550010681152344
1761132341878079200,2.512079345703125,36.251930236816406,4.447794437408447,-0.033957481384277344
1761132341888079000,2.5220791015625,32.62104415893555,5.3476152420043945,1.2025864124298096
1761132341898080000,2.532080078125,28.774761199951172,6.35623025894165,1.2735350131988525
1761132341908079900,2.542079833984375,23.605735778808594,6.785788059234619,2.1559596061706543
1761132341918080000,2.552080078125,16.838825225830078,7.496183395385742,3.4255685806274414
1761132341928080100,2.562080078125,11.060750961303711,7.579691410064697,5.037611961364746
1761132341938080000,2.572080078125,6.701825141906738,6.990102291107178,6.599823951721191
1761132341948079900,2.582079833984375,4.051685333251953,5.492258071899414,7.582552433013916
1761132341958080000,2.592080078125,2.4987831115722656,3.128202199935913,6.795019149780273
1761132341968079400,2.602079345703125,1.019160270690918,0.9616943001747131,3.4568285942077637
1761132341978078500,2.612078369140625,-0.28351402282714844,-0.34005820751190186,-0.28231287002563477
1761132341988077600,2.62207763671875,-1.2743496894836426,-0.5133543014526367,-3.055950164794922
1761132341998076700,2.63207666015625,-2.1779861450195312,-0.1541144847869873,-3.2368006706237793
1761132342008075800,2.64207568359375,-3.4182467460632324,-0.18040597438812256,-1.6402020454406738
1761132342018075000,2.652074951171875,-6.1097917556762695,-0.17552578449249268,0.2009296417236328
1761132342028074200,2.66207421875,-9.692022323608398,-0.494642436504364,1.761808156967163
1761132342038073300,2.6720732421875,-13.678415298461914,-1.1123931407928467,2.616332530975342
1761132342048072400,2.682072509765625,-16.649477005004883,-1.750808596611023,3.5913031101226807
1761132342058071800,2.69207177734375,-19.04766845703125,-2.366962194442749,5.081511497497559
1761132342068071000,2.70207080078125,-19.317378997802734,-1.535330057144165,3.627093553543091
1761132342078070800,2.71207080078125,-18.490234375,-2.0028235912323,4.254617691040039
1761132342088071000,2.72207080078125,-17.491519927978516,-2.859354019165039,5.096888065338135
1761132342098071600,2.732071533203125,-15.427133560180664,-3.2697463035583496,4.65300989151001
1761132342108071700,2.74207177734375,-13.991147994995117,-3.6410889625549316,4.8262434005737305
1761132342118071600,2.752071533203125,-12.798955917358398,-3.6188511848449707,4.376661777496338
1761132342128071700,2.76207177734375,-12.05077075958252,-3.624952554702759,3.339026927947998
1761132342138071600,2.772071533203125,-11.207588195800781,-3.824084997177124,2.5860354900360107
1761132342148071700,2.78207177734375,-10.026711463928223,-4.076090335845947,2.2043871879577637
1761132342158072300,2.792072265625,-8.904415130615234,-4.142829895019531,2.0943338871002197
1761132342168071400,2.802071533203125,-8.941679000854492,-4.066085338592529,2.0229270458221436
1761132342178071600,2.812071533203125,-7.615832328796387,-3.869687080383301,2.392385721206665
1761132342188071700,2.82207177734375,-7.518380641937256,-3.5066161155700684,2.642737865447998
1761132342198070800,2.83207080078125,-7.838953971862793,-3.1642253398895264,2.9586195945739746
1761132342208070700,2.842070556640625,-8.154900550842285,-2.680877685546875,3.5134286880493164
1761132342218070500,2.852070556640625,-8.633115768432617,-2.137619733810425,3.9527838230133057
1761132342228070700,2.862070556640625,-9.173778533935547,-1.6085044145584106,4.1617231369018555
1761132342238070800,2.87207080078125,-9.78876781463623,-1.1761747598648071,4.208340167999268
1761132342248070700,2.882070556640625,-10.305712699890137,-0.8389023542404175,4.240456581115723
1761132342258070500,2.892070556640625,-10.704729080200195,-0.453085720539093,4.211036682128906
1761132342268071200,2.9020712890625,-10.975667953491211,-0.09723244607448578,4.423436164855957
1761132342278072000,2.912072021484375,-11.243457794189453,0.2728939950466156,4.492865562438965
1761132342288073000,2.922072998046875,-11.191144943237305,0.43149420619010925,4.479715824127197
1761132342298073900,2.932073974609375,-10.848098754882812,0.5480605959892273,4.324141502380371
1761132342308074800,2.94207470703125,-10.357421875,0.5809767842292786,4.31168270111084
1761132342318076000,2.952075927734375,-9.68891429901123,0.7260523438453674,4.410373687744141
1761132342328076500,2.96207666015625,-9.021093368530273,0.6447900533676147,4.450679779052734
1761132342338077400,2.972077392578125,-8.173847198486328,0.42831146717071533,4.354691028594971
1761132342348078300,2.982078369140625,-6.992466926574707,0.21664616465568542,3.917752742767334
1761132342358079200,2.992079345703125,-6.999290466308594,0.32691773772239685,3.875788927078247
1761132342368079400,3.002079345703125,-3.499481201171875,0.17284995317459106,2.4615635871887207
1761132342378079500,3.01207958984375,-1.175267219543457,0.31556570529937744,2.005706310272217
1761132342388079400,3.022079345703125,0.8952560424804688,0.2664680480957031,2.4995462894439697
1761132342398078500,3.032078369140625,2.5679540634155273,0.6501703262329102,2.781799554824829
1761132342408078600,3.04207861328125,4.93233585357666,1.2921992540359497,1.612016201019287
1761132342418078500,3.052078369140625,8.861949920654297,1.6415228843688965,-0.4160468578338623
1761132342428078600,3.06207861328125,14.23312759399414,1.3996829986572266,-2.7292637825012207
1761132342438078700,3.07207861328125,20.631221771240234,0.9337940216064453,-4.782922744750977
1761132342448078600,3.08207861328125,25.183385848999023,0.7596200704574585,-5.285776615142822
1761132342458078000,3.092077880859375,29.56574821472168,0.7682685256004333,-4.622252464294434
1761132342468078600,3.10207861328125,34.58624267578125,1.4876785278320312,-3.708005666732788
1761132342478078700,3.11207861328125,37.07686996459961,1.8245009183883667,-3.7660470008850098
1761132342488078600,3.12207861328125,37.473876953125,1.4867314100265503,-3.1783359050750732
1761132342498079500,3.13207958984375,37.44306945800781,1.4303616285324097,-3.2513821125030518
1761132342508079400,3.142079345703125,32.51676940917969,4.016108512878418,1.405579924583435
1761132342518079500,3.15207958984375,27.583948135375977,5.524802207946777,2.0641016960144043
1761132342528079600,3.16207958984375,22.608535766601562,6.449762344360352,2.107006072998047
1761132342538079500,3.17207958984375,19.20575523376465,6.606445789337158,2.1169180870056152
1761132342548079600,3.18207958984375,16.681581497192383,6.189556121826172,1.7620844841003418
1761132342558079500,3.19207958984375,16.70081329345703,6.1282734870910645,1.829789400100708
1761132342568079600,3.20207958984375,13.467499732971191,4.597567558288574,2.116586208343506
1761132342578079500,3.21207958984375,11.936147689819336,3.7825064659118652,3.516695976257324
1761132342588078800,3.222078857421875,9.992895126342773,3.047710418701172,4.534412860870361
1761132342598078000,3.232077880859375,8.984665870666504,2.032414674758911,4.244687080383301
1761132342608078000,3.242078125,6.202362060546875,0.8157494068145752,3.175210952758789
1761132342618078000,3.252077880859375,1.3420295715332031,-0.7275562882423401,1.2708714008331299
1761132342628078000,3.262078125,-2.387174606323242,-0.6237143874168396,-2.797696113586426
1761132342638078000,3.272077880859375,-5.677573204040527,-0.9937859773635864,-4.7689666748046875
1761132342648078000,3.282078125,-6.9899702072143555,-0.8448716998100281,-5.246808052062988
1761132342658078000,3.292077880859375,-7.695390224456787,-0.9095032811164856,-4.525364875793457
1761132342668078600,3.30207861328125,-9.038662910461426,-1.2964283227920532,-2.9493374824523926
1761132342678078700,3.31207861328125,-10.7433500289917,-1.6027107238769531,-1.215524673461914
1761132342688078600,3.32207861328125,-12.696798324584961,-1.976379632949829,0.4798722267150879
1761132342698079500,3.33207958984375,-14.519706726074219,-2.0200865268707275,1.9945802688598633
1761132342708079600,3.34207958984375,-15.72793197631836,-1.9529012441635132,3.013293981552124
1761132342718079500,3.35207958984375,-16.328052520751953,-1.894419550895691,3.707904100418091
1761132342728079600,3.36207958984375,-16.156293869018555,-2.011586904525757,4.1019415855407715
1761132342738079500,3.37207958984375,-14.946754455566406,-2.111771583557129,4.213995933532715
1761132342748079600,3.38207958984375,-13.464193344116211,-2.2714455127716064,4.245055198669434
1761132342758079500,3.39207958984375,-11.993321418762207,-2.476471424102783,4.181920528411865
1761132342768078800,3.402078857421875,-10.503005027770996,-2.714050531387329,4.0224456787109375
1761132342778079000,3.412078857421875,-9.277839660644531,-3.0271522998809814,3.538194179534912
1761132342788078800,3.422078857421875,-8.032318115234375,-3.4078140258789062,3.021155834197998
1761132342798078200,3.432078125,-7.2950968742370605,-3.5250051021575928,2.6398887634277344
1761132342808078000,3.442078125,-6.864083290100098,-3.4074554443359375,2.43051815032959
1761132342818078000,3.452077880859375,-6.650184631347656,-3.054286241531372,2.5058717727661133
1761132342828078000,3.462078125,-6.663756847381592,-2.4978861808776855,2.854447841644287
1761132342838078000,3.472077880859375,-6.996382713317871,-1.9654103517532349,3.1696083545684814
1761132342848078000,3.482078125,-7.4082841873168945,-1.5676358938217163,3.45041561126709
1761132342858078000,3.492077880859375,-7.62518310546875,-1.3464410305023193,3.5717427730560303
1761132342868078000,3.502078125,-7.749813079833984,-1.1123995780944824,3.538503885269165
1761132342878078000,3.512077880859375,-8.153238296508789,-0.9250819087028503,3.927086591720581
1761132342888078600,3.52207861328125,-8.850370407104492,-0.770833432674408,4.6279497146606445
1761132342898079500,3.53207958984375,-9.887534141540527,-0.44293564558029175,5.0781731605529785
1761132342908079600,3.54207958984375,-11.078285217285156,-0.13245397806167603,5.628068923950195
1761132342918079500,3.55207958984375,-12.017929077148438,0.3126257061958313,6.6366376876831055
1761132342928079600,3.56207958984375,-13.280325889587402,0.6519263386726379,7.411340236663818
1761132342938079500,3.57207958984375,-14.21666145324707,0.7830452919006348,7.6464972496032715
1761132342948079600,3.58207958984375,-14.438347816467285,0.8407135009765625,7.632061004638672
1761132342958079700,3.592079833984375,-13.207001686096191,0.468536376953125,7.305478096008301
1761132342968078800,3.602078857421875,-11.206290245056152,0.1077997088432312,6.575808048248291
1761132342978078200,3.612078125,-9.19158935546875,-0.5542996525764465,5.403293609619141
1761132342988077300,3.622077392578125,-7.225053310394287,-0.9956596493721008,4.082372188568115
1761132342998076400,3.632076416015625,-5.116212368011475,-1.299338459968567,2.827890396118164
1761132343008075500,3.642075439453125,-2.839718818664551,-1.1486819982528687,2.0924673080444336
1761132343018074600,3.65207470703125,-0.7926464080810547,-0.7418171763420105,1.8820233345031738
1761132343028073700,3.66207373046875,1.061753273010254,-0.306278795003891,2.037747383117676
1761132343038072800,3.67207275390625,2.0989627838134766,-0.027977973222732544,2.5730843544006348
1761132343048072000,3.682072021484375,2.5877199172973633,0.8368432521820068,2.489567756652832
1761132343058071000,3.692071044921875,3.033578872680664,1.983386516571045,1.846645474433899
1761132343068071000,3.70207080078125,6.047946929931641,2.7695364952087402,1.052351951599121
1761132343078070000,3.712070068359375,12.254043579101562,2.809847354888916,-0.5849735736846924
1761132343088070000,3.72206982421875,18.662187576293945,2.048677921295166,-3.057401180267334
1761132343098070800,3.73207080078125,25.539230346679688,1.0436768531799316,-5.265710830688477
1761132343108071000,3.74207080078125,31.484092712402344,0.18700164556503296,-6.203502655029297
1761132343118070800,3.75207080078125,35.38730239868164,0.34359443187713623,-5.56870174407959
1761132343128071000,3.76207080078125,37.09941101074219,1.4184138774871826,-3.773648738861084
1761132343138070800,3.77207080078125,36.26765060424805,3.3648414611816406,-1.4539198875427246
1761132343148071000,3.78207080078125,33.68885803222656,5.253297805786133,0.039635658264160156
1761132343158070800,3.79207080078125,31.119773864746094,6.889349460601807,1.5314515829086304
1761132343168071000,3.80207080078125,28.713871002197266,8.00554084777832,2.709652900695801
1761132343178070800,3.81207080078125,25.349525451660156,8.818094253540039,4.09487771987915
1761132343188071000,3.82207080078125,20.47452163696289,8.816274642944336,5.293618679046631
1761132343198070300,3.8320703125,15.901592254638672,8.172945976257324,5.895674705505371
1761132343208070100,3.842070068359375,12.576523780822754,6.971404075622559,5.531990051269531
1761132343218070000,3.852070068359375,11.136237144470215,5.350703716278076,3.9783945083618164
1761132343228070100,3.862070068359375,10.404068946838379,3.4090423583984375,1.9091153144836426
1761132343238070000,3.872070068359375,8.604571342468262,2.0507471561431885,0.15920114517211914
1761132343248070100,3.882070068359375,5.109923362731934,1.3898152112960815,-0.675225019454956
1761132343258070000,3.892070068359375,2.8308029174804688,1.2130441665649414,-1.224928617477417
1761132343268070700,3.902070556640625,3.737335205078125,0.380190372467041,-2.578575372695923
1761132343278071600,3.912071533203125,3.858377456665039,-0.8197941780090332,-3.4571547508239746
1761132343288072400,3.922072509765625,1.0670976638793945,-1.4867618083953857,-3.579259157180786
1761132343298073300,3.9320732421875,-3.237502098083496,-1.5781159400939941,-2.5322935581207275
1761132343308074200,3.94207421875,-8.481979370117188,-1.325897216796875,-1.0035395622253418
1761132343318075100,3.9520751953125,-12.336906433105469,-1.380460500717163,-0.15488362312316895
1761132343328076000,3.962075927734375,-15.100371360778809,-1.797884464263916,1.5066758394241333
1761132343338077000,3.972076904296875,-16.922199249267578,-1.6754790544509888,3.0727875232696533
1761132343348077800,3.982077880859375,-18.143798828125,-1.5655803680419922,4.07655668258667
1761132343358078500,3.992078369140625,-18.630352020263672,-1.6987498998641968,4.095344066619873
1761132343368079400,4.002079345703125,-17.93183135986328,-1.8788961172103882,2.9583897590637207
1761132343378080300,4.012080322265625,-16.68811798095703,-2.1725616455078125,1.5249685049057007
1761132343388080400,4.022080322265625,-16.67014503479004,-2.239927291870117,1.606812834739685
1761132343398079500,4.03207958984375,-12.445940017700195,-2.626633644104004,0.12584781646728516
1761132343408079400,4.042079345703125,-10.431306838989258,-2.6145474910736084,0.2679264545440674
1761132343418079500,4.05207958984375,-9.13779067993164,-2.6606698036193848,1.1085901260375977
1761132343428079400,4.062079345703125,-8.58338451385498,-2.591362714767456,1.9282968044281006
1761132343438079500,4.07207958984375,-8.863443374633789,-2.427727222442627,2.183567523956299
1761132343448079400,4.082079345703125,-9.407984733581543,-2.4180381298065186,2.4428625106811523
1761132343458079200,4.092079345703125,-9.853849411010742,-2.351123332977295,2.557162284851074
1761132343468079400,4.102079345703125,-10.213974952697754,-2.278920888900757,2.482314348220825
1761132343478079200,4.112079345703125,-10.4851713180542,-2.232501268386841,2.5893421173095703
1761132343488079400,4.122079345703125,-10.392500877380371,-2.2568185329437256,2.984816312789917
1761132343498080000,4.132080078125,-10.04896354675293,-2.359250068664551,3.413684606552124
1761132343508079900,4.142079833984375,-9.66291332244873,-2.429966688156128,3.562408924102783
1761132343518080000,4.152080078125,-9.451142311096191,-2.49550461769104,3.3603973388671875
1761132343528080000,4.162079833984375,-9.498361587524414,-2.63627552986145,3.149980068206787
1761132343538080000,4.172080078125,-9.858710289001465,-2.493608236312866,3.130329132080078
1761132343548080000,4.182080078125,-10.08095932006836,-2.2646384239196777,3.103503465652466
1761132343558080000,4.192080078125,-10.350288391113281,-2.039189100265503,3.2173562049865723
1761132343568080000,4.202079833984375,-10.522394180297852,-1.8744444847106934,3.4447903633117676
1761132343578080000,4.212080078125,-10.481772422790527,-1.7223150730133057,4.003063678741455
1761132343588079900,4.222079833984375,-10.253742218017578,-1.5791373252868652,4.49805212020874
1761132343598079200,4.232079345703125,-9.543572425842285,-1.6713910102844238,4.6002421379089355
1761132343608079000,4.2420791015625,-9.24591064453125,-1.8506114482879639,3.938450336456299
1761132343618079000,4.252078857421875,-8.893778800964355,-1.9497027397155762,3.523498773574829
1761132343628079000,4.2620791015625,-8.07503604888916,-1.8407460451126099,3.002081871032715
1761132343638079000,4.272078857421875,-7.0608320236206055,-1.5606822967529297,2.930394172668457
1761132343648079000,4.2820791015625,-5.60954475402832,-1.2296644449234009,3.4639065265655518
1761132343658079200,4.292079345703125,-3.0400595664978027,-0.32952308654785156,3.8595051765441895
1761132343668079000,4.3020791015625,-1.1555471420288086,0.20576836168766022,4.462685585021973
1761132343678079200,4.312079345703125,0.11326217651367188,0.9566903114318848,5.025110244750977
1761132343688079000,4.3220791015625,0.29500389099121094,2.5062220096588135,5.054320812225342
1761132343698080000,4.332080078125,1.2619714736938477,5.626349449157715,4.636392116546631
1761132343708080000,4.342080078125,4.703840255737305,8.330153465270996,5.538174629211426
1761132343718080000,4.352080078125,11.242939949035645,9.196575164794922,8.466562271118164
1761132343728080100,4.362080078125,20.959217071533203,7.7459611892700195,9.419698715209961
1761132343738080000,4.372080078125,36.12115478515625,3.8058087825775146,8.375288009643555
1761132343748080000,4.382080078125,36.05803680419922,4.181600570678711,7.875284671783447
1761132343758080000,4.392080078125,65.67213439941406,-2.291504144668579,5.002503871917725
1761132343768080100,4.402080078125,68.801025390625,-0.9411802291870117,8.685148239135742
1761132343778080000,4.412080078125,57.93101119995117,1.865793228149414,11.89370059967041
1761132343788080000,4.422080078125,39.491947174072266,5.605095386505127,11.084223747253418
1761132343798079200,4.432079345703125,24.47370147705078,8.150991439819336,9.057330131530762
1761132343808079000,4.4420791015625,14.914055824279785,9.204745292663574,8.453814506530762
1761132343818079200,4.452079345703125,10.870203018188477,8.84675407409668,8.698726654052734
1761132343828079000,4.4620791015625,9.564696311950684,7.07050085067749,6.356750965118408
1761132343838079200,4.472079345703125,8.478621482849121,5.193619728088379,2.6486382484436035
1761132343848079000,4.4820791015625,7.082304000854492,3.8450918197631836,0.13554048538208008
1761132343858079200,4.492079345703125,5.101896286010742,2.874234199523926,0.03244048357009888
1761132343868079000,4.5020791015625,2.6074609756469727,2.0297300815582275,0.7744914889335632
1761132343878079200,4.512079345703125,-0.7498664855957031,1.321656346321106,1.362116813659668
1761132343888079000,4.5220791015625,-4.244734764099121,0.5654526948928833,1.8159680366516113
1761132343898080000,4.532080078125,-5.811474800109863,-0.25567007064819336,1.8346120119094849
1761132343908080000,4.542080078125,-6.525308609008789,-1.0068213939666748,1.3134524822235107
1761132343918080000,4.552080078125,-8.186017990112305,-1.6917778253555298,0.7079577445983887
1761132343928080100,4.562080078125,-10.967107772827148,-2.2562460899353027,0.2162085771560669
1761132343938080000,4.572080078125,-15.255857467651367,-2.9513192176818848,-0.5386225581169128
1761132343948080000,4.582080078125,-19.494665145874023,-3.5911951065063477,-2.4540703296661377
1761132343958080000,4.592080078125,-20.952680587768555,-4.002305507659912,-3.7516469955444336
1761132343968080100,4.602080078125,-20.827537536621094,-4.347891330718994,-3.57706880569458
1761132343978079200,4.612079345703125,-19.69296646118164,-4.452410697937012,-2.8565311431884766
1761132343988078300,4.622078369140625,-18.428855895996094,-4.437908172607422,-1.9979946613311768
1761132343998077400,4.632077392578125,-18.1564884185791,-4.486638069152832,-1.6233243942260742
1761132344008076500,4.64207666015625,-18.188060760498047,-4.778278350830078,-1.809471845626831
1761132344018075600,4.65207568359375,-18.01177978515625,-4.900989055633545,-2.6530089378356934
1761132344028074800,4.66207470703125,-17.36812973022461,-4.916396141052246,-3.4096131324768066
1761132344038073900,4.672073974609375,-15.449127197265625,-4.964911460876465,-3.346377372741699
1761132344048073000,4.682072998046875,-12.41707706451416,-4.874589920043945,-2.49930477142334
1761132344058072300,4.692072265625,-9.273078918457031,-4.908935546875,-1.0202317237854004
1761132344068071400,4.702071533203125,-7.010058403015137,-4.743317604064941,0.28646910190582275
1761132344078070800,4.71207080078125,-6.263696670532227,-4.380190372467041,0.913551926612854
1761132344088070700,4.722070556640625,-6.177257061004639,-3.989745616912842,1.2157487869262695
1761132344098071600,4.732071533203125,-6.233417987823486,-3.5434484481811523,1.3925971984863281
1761132344108071400,4.742071533203125,-6.549751281738281,-3.054659843444824,1.6291131973266602
1761132344118071600,4.752071533203125,-7.135879039764404,-2.5404324531555176,1.3954136371612549
1761132344128071400,4.762071533203125,-8.14730453491211,-2.1783790588378906,1.4250706434249878
1761132344138071600,4.772071533203125,-9.026559829711914,-1.913581132888794,1.6113336086273193
1761132344148071700,4.78207177734375,-9.52632999420166,-1.6820012331008911,1.5993636846542358
1761132344158071600,4.792071533203125,-9.958067893981934,-1.5784255266189575,1.3588789701461792
1761132344168071000,4.80207080078125,-10.550887107849121,-1.4963160753250122,0.9693431258201599
1761132344178071000,4.812071044921875,-11.218381881713867,-1.2565507888793945,0.7197715044021606
1761132344188071200,4.8220712890625,-11.31885051727295,-1.047200083732605,0.9053786396980286
1761132344198070300,4.8320703125,-11.063462257385254,-0.8333865404129028,1.2260782718658447
1761132344208070100,4.842070068359375,-10.905210494995117,-0.7164140343666077,1.5776091814041138
1761132344218070000,4.852070068359375,-10.798142433166504,-0.7663121223449707,1.636586308479309
1761132344228070100,4.862070068359375,-10.239386558532715,-0.7899219989776611,1.4029446840286255
1761132344238070000,4.872070068359375,-9.291213035583496,-0.8613547086715698,1.306632161140442
1761132344248070000,4.88206982421875,-9.29473876953125,-0.7748962640762329,1.2594586610794067
1761132344258070000,4.892070068359375,-7.413100242614746,-0.8952164053916931,1.7852264642715454
1761132344268070100,4.902070068359375,-5.715058326721191,-0.8290254473686218,2.224656105041504
1761132344278071000,4.912071044921875,-2.859654426574707,-0.7610850930213928,2.7102959156036377
1761132344288072000,4.922072021484375,0.5133981704711914,-0.7333815097808838,2.94162654876709
1761132344298072800,4.93207275390625,1.384775161743164,-0.71542888879776,2.839150905609131
1761132344308073500,4.942073486328125,1.2747840881347656,0.2541087567806244,1.8951574563980103
1761132344318074400,4.952074462890625,1.4712677001953125,1.7829563617706299,1.0618977546691895
1761132344328075300,4.9620751953125,3.0932836532592773,3.391371011734009,0.8549743890762329
1761132344338076200,4.972076171875,9.383003234863281,4.608854293823242,1.388676404953003
1761132344348077000,4.9820771484375,21.245038986206055,5.2795281410217285,4.365942478179932
1761132344358078000,4.992077880859375,32.664894104003906,5.653530120849609,7.668598651885986
1761132344368078800,5.002078857421875,42.30529022216797,5.764470100402832,9.770373344421387
1761132344378079500,5.01207958984375,48.9227294921875,5.685617923736572,10.150084495544434
1761132344388079600,5.02207958984375,53.00092697143555,6.2020583152771,11.504798889160156
1761132344398078700,5.03207861328125,56.81911849975586,7.016870498657227,14.581192016601562
1761132344408078600,5.04207861328125,56.32036590576172,8.65536880493164,17.49962615966797
1761132344418078700,5.05207861328125,49.7789421081543,9.868013381958008,17.391530990600586
1761132344428078600,5.06207861328125,40.753196716308594,10.293281555175781,15.495710372924805
1761132344438078700,5.07207861328125,30.281368255615234,10.123592376708984,13.59354019165039
1761132344448078600,5.08207861328125,20.014053344726562,9.423422813415527,12.276388168334961
1761132344458078700,5.09207861328125,12.087620735168457,7.936784744262695,10.532689094543457
1761132344468079400,5.102079345703125,6.408085823059082,6.563745975494385,8.413104057312012
1761132344478079200,5.112079345703125,2.9335155487060547,3.9139935970306396,5.705234527587891
1761132344488078600,5.12207861328125,1.2434253692626953,1.6507630348205566,3.756115674972534
1761132344498080300,5.132080322265625,0.007939338684082031,-1.6425235271453857,2.0998518466949463
1761132344508080400,5.142080322265625,-1.5329742431640625,-4.492416858673096,0.9609127044677734
1761132344518080300,5.152080322265625,-4.191045761108398,-7.321934700012207,0.46588826179504395
1761132344528080400,5.162080322265625,-7.490386009216309,-9.245987892150879,0.2471691370010376
1761132344538080300,5.172080322265625,-11.518001556396484,-10.877771377563477,0.5437103509902954
1761132344548080400,5.182080322265625,-15.345788955688477,-11.841142654418945,0.6585004329681396
1761132344558080300,5.192080322265625,-19.28472137451172,-12.333051681518555,0.4423269033432007
1761132344568080400,5.202080322265625,-22.99590301513672,-12.79871940612793,-0.24417269229888916
1761132344578080300,5.212080322265625,-24.750755310058594,-12.884075164794922,-1.8697359561920166
1761132344588080000,5.222080078125,-24.347618103027344,-12.851812362670898,-3.0858893394470215
1761132344598079200,5.232079345703125,-23.23887825012207,-12.887083053588867,-3.8413567543029785
1761132344608079400,5.242079345703125,-21.83456802368164,-12.684858322143555,-4.365804672241211
1761132344618079200,5.252079345703125,-20.080480575561523,-12.646272659301758,-4.326202869415283
1761132344628079400,5.262079345703125,-18.171262741088867,-12.478174209594727,-3.979386806488037
1761132344638079200,5.272079345703125,-16.10338592529297,-12.370895385742188,-3.5833373069763184
1761132344648079400,5.282079345703125,-14.41224193572998,-12.2247314453125,-3.2729105949401855
1761132344658079200,5.292079345703125,-14.510555267333984,-12.092693328857422,-3.172311544418335
1761132344668079400,5.302079345703125,-12.291025161743164,-11.831969261169434,-2.885284185409546
1761132344678078500,5.312078369140625,-11.971370697021484,-11.596216201782227,-2.8502821922302246
1761132344688078600,5.32207861328125,-12.002326011657715,-11.262914657592773,-2.6869847774505615
1761132344698079500,5.33207958984375,-11.912230491638184,-10.781963348388672,-2.304274797439575
1761132344708079600,5.34207958984375,-11.154979705810547,-10.36594295501709,-1.8229339122772217
1761132344718079500,5.35207958984375,-9.752285957336426,-9.96882438659668,-1.4005763530731201
1761132344728079600,5.36207958984375,-8.589546203613281,-9.609758377075195,-0.9964269995689392
1761132344738079500,5.37207958984375,-7.846680641174316,-9.09395980834961,-0.4706554114818573
1761132344748079600,5.38207958984375,-7.207034111022949,-8.391529083251953,0.09585368633270264
1761132344758080000,5.392080078125,-6.856684684753418,-7.749148368835449,0.675625205039978
1761132344768080000,5.402079833984375,-6.999575614929199,-7.141385078430176,0.9450887441635132
1761132344778080000,5.412080078125,-7.478154182434082,-6.583961486816406,0.852299153804779
1761132344788080600,5.42208056640625,-8.152861595153809,-6.155954360961914,0.7419368624687195
1761132344798079000,5.432078857421875,-8.904265403747559,-5.671583652496338,0.5243662595748901
1761132344808079000,5.4420791015625,-9.76407527923584,-5.009369850158691,0.2620137631893158
1761132344818079000,5.452078857421875,-10.437935829162598,-4.656048774719238,0.11889167875051498
1761132344828079000,5.4620791015625,-10.580031394958496,-4.200714588165283,0.2867260277271271
1761132344838079000,5.472078857421875,-10.46510124206543,-3.8787970542907715,0.7818273305892944
1761132344848079000,5.4820791015625,-10.043540954589844,-3.6458730697631836,1.3293739557266235
1761132344858079000,5.492078857421875,-8.848243713378906,-3.3215343952178955,1.5233912467956543
1761132344868079000,5.5020791015625,-6.741918563842773,-3.0054264068603516,1.7430366277694702
1761132344878079000,5.512078857421875,-3.7748446464538574,-2.4291625022888184,2.129983425140381
1761132344888079000,5.5220791015625,-0.5713024139404297,-1.4826382398605347,2.891390323638916
1761132344898080000,5.532080078125,2.436587333679199,-0.04003942012786865,3.5909392833709717
1761132344908079900,5.542079833984375,4.694418907165527,1.3337842226028442,4.184271335601807
1761132344918080000,5.552080078125,6.418915748596191,2.4336016178131104,4.389091968536377
1761132344928080000,5.562079833984375,8.090441703796387,4.217832565307617,3.3923869132995605
1761132344938080000,5.572080078125,10.702858924865723,6.275276184082031,3.3855438232421875
1761132344948079900,5.582079833984375,14.191630363464355,9.199934005737305,4.5283589363098145
1761132344958080000,5.592080078125,19.19388198852539,12.102917671203613,6.735764026641846
1761132344968080000,5.602079833984375,27.087385177612305,13.170653343200684,8.172565460205078
1761132344978079700,5.612079833984375,38.41818618774414,11.276588439941406,9.114418029785156
1761132344988078800,5.622078857421875,52.66657257080078,7.535552501678467,11.075940132141113
1761132344998078200,5.632078125,59.65530776977539,6.607592582702637,14.283287048339844
1761132345008077300,5.642077392578125,59.70440673828125,6.808752536773682,13.963190078735352
1761132345018076400,5.652076416015625,51.41044616699219,4.931708812713623,17.679935455322266
1761132345028075500,5.662075439453125,51.42292785644531,4.878365516662598,17.569299697875977
1761132345038074600,5.67207470703125,27.76375389099121,8.056984901428223,13.670644760131836
1761132345048073700,5.68207373046875,20.525211334228516,7.81447172164917,10.540637016296387
1761132345058072300,5.692072265625,16.355045318603516,6.4474616050720215,7.004449367523193
1761132345068071700,5.70207177734375,13.423731803894043,4.626280784606934,3.382042407989502
1761132345078070500,5.712070556640625,11.174047470092773,2.8592967987060547,0.36938154697418213
1761132345088069600,5.722069580078125,8.255813598632812,1.3117436170578003,-1.141030192375183
1761132345098069800,5.73206982421875,5.317096710205078,0.12141242623329163,-0.8224256634712219
1761132345108069000,5.742069091796875,1.4739046096801758,-0.5921589136123657,1.412369728088379
1761132345118068500,5.752068359375,-2.2519474029541016,-1.2590316534042358,3.7090084552764893
1761132345128068400,5.762068359375,-6.195008277893066,-1.9777097702026367,4.442995071411133
1761132345138068500,5.772068359375,-10.063676834106445,-2.59173846244812,3.8486855030059814
1761132345148068400,5.782068359375,-13.68206787109375,-2.983774423599243,3.006134271621704
1761132345158068500,5.792068359375,-16.903011322021484,-3.3104119300842285,2.478126049041748
1761132345168068600,5.802068603515625,-18.93174934387207,-3.537458658218384,2.548213481903076
1761132345178068500,5.812068359375,-20.413328170776367,-3.5115275382995605,2.7173547744750977
1761132345188068600,5.822068603515625,-21.150888442993164,-3.694901466369629,3.284385919570923
1761132345198067700,5.832067626953125,-21.468944549560547,-3.8827412128448486,4.124074935913086
1761132345208067600,5.842067626953125,-21.269065856933594,-4.134958744049072,4.583254814147949
1761132345218067700,5.852067626953125,-20.383211135864258,-4.093280792236328,4.992877006530762
1761132345228067600,5.862067626953125,-19.11346435546875,-4.149497032165527,5.310632228851318
1761132345238067500,5.8720673828125,-17.979930877685547,-4.3402814865112305,4.972772598266602
1761132345248067600,5.882067626953125,-17.22698211669922,-4.7538042068481445,4.212233543395996
1761132345258067500,5.8920673828125,-16.68082046508789,-5.248177528381348,3.370051860809326
1761132345268067600,5.902067626953125,-15.972623825073242,-5.601591110229492,2.755232095718384
1761132345278068500,5.912068359375,-15.084901809692383,-5.812873840332031,2.295591115951538
1761132345288069400,5.9220693359375,-14.160499572753906,-5.853893280029297,2.347935914993286
1761132345298070000,5.932070068359375,-13.280146598815918,-5.903807640075684,2.659899950027466
1761132345308071000,5.94207080078125,-12.552845001220703,-5.9664411544799805,2.8533899784088135
1761132345318071800,5.95207177734375,-12.567906379699707,-5.833114147186279,2.890597343444824
1761132345328072700,5.96207275390625,-11.029505729675293,-5.609964370727539,2.9917523860931396
1761132345338073600,5.972073486328125,-10.803488731384277,-5.368650436401367,2.7689642906188965
1761132345348074200,5.98207421875,-10.627768516540527,-5.217900276184082,2.572897434234619
1761132345358075100,5.9920751953125,-10.574849128723145,-4.930617332458496,2.4564154148101807
1761132345368076000,6.002075927734375,-10.897172927856445,-4.670468330383301,2.3879783153533936
1761132345378077000,6.012076904296875,-10.789881706237793,-4.407781600952148,2.3677642345428467
1761132345388077800,6.022077880859375,-10.713167190551758,-4.064347267150879,2.2252655029296875
1761132345398078000,6.032077880859375,-10.6054048538208,-3.6745567321777344,2.4320173263549805
1761132345408078600,6.04207861328125,-10.362460136413574,-3.349501132965088,2.7484638690948486
1761132345418079200,6.052079345703125,-9.82650375366211,-3.144977569580078,3.1659793853759766
1761132345428079400,6.062079345703125,-9.076796531677246,-2.9332289695739746,3.192918062210083
1761132345438079200,6.072079345703125,-8.499128341674805,-2.7512197494506836,3.1014809608459473
1761132345448079000,6.0820791015625,-7.838648796081543,-2.5999693870544434,2.7947142124176025
1761132345458079200,6.092079345703125,-6.797319412231445,-2.2046196460723877,1.9506103992462158
1761132345468079000,6.1020791015625,-4.593313694000244,-1.7256722450256348,1.6831237077713013
1761132345478079200,6.112079345703125,-1.5475091934204102,-1.1778485774993896,2.193490982055664
1761132345488079000,6.1220791015625,2.262515068054199,-0.5198948979377747,3.00575590133667
1761132345498080000,6.132080078125,5.146230697631836,0.14919863641262054,4.0219268798828125
1761132345508079900,6.142079833984375,7.036269187927246,0.9736011624336243,5.101780891418457
1761132345518080000,6.152080078125,8.37083625793457,2.897911548614502,5.277451515197754
1761132345528080100,6.162080078125,9.977875709533691,5.373591423034668,5.491860866546631
1761132345538080000,6.172080078125,11.35717487335205,7.582762718200684,7.395748615264893
1761132345548080000,6.182080078125,13.988468170166016,9.093981742858887,9.778986930847168
1761132345558080300,6.192080322265625,22.44095230102539,9.476828575134277,11.719664573669434
1761132345568080100,6.202080078125,34.76824951171875,7.843846321105957,13.87476634979248
1761132345578079500,6.21207958984375,49.70335006713867,5.051731109619141,15.113680839538574
1761132345588079400,6.222079345703125,59.436561584472656,1.9083168506622314,14.455321311950684
1761132345598078700,6.23207861328125,60.29806137084961,1.0321060419082642,12.181807518005371
1761132345608078600,6.24207861328125,52.66754150390625,2.7157368659973145,10.580423355102539
1761132345618078700,6.25207861328125,37.89531707763672,6.361120700836182,11.028215408325195
1761132345628078600,6.26207861328125,24.728086471557617,8.729004859924316,11.468780517578125
1761132345638078700,6.27207861328125,13.506165504455566,9.791296005249023,9.801036834716797
1761132345648078600,6.28207861328125,5.198874473571777,9.455458641052246,7.41836404800415
1761132345658078700,6.29207861328125,0.30779457092285156,8.39506721496582,4.489874362945557
1761132345668078000,6.302078125,-2.4061760902404785,7.2772040367126465,2.174083709716797
1761132345678078000,6.312077880859375,-3.3612680435180664,5.628887176513672,0.2756690979003906
1761132345688078000,6.322078125,-2.695216655731201,4.121798992156982,-0.7443792223930359
1761132345698079000,6.332078857421875,-1.788163661956787,2.2934491634368896,-1.7316546440124512
1761132345708078800,6.342078857421875,-1.022841453552246,0.8384959101676941,-2.4715805053710938
1761132345718079000,6.352078857421875,-0.7410745620727539,0.1655145287513733,-3.0124571323394775
1761132345728078800,6.362078857421875,-0.7505006790161133,0.2780708968639374,-2.8930373191833496
1761132345738079000,6.372078857421875,-3.633976936340332,-0.12486445903778076,-3.0867409706115723
1761132345748078800,6.382078857421875,-5.759524345397949,-0.15960931777954102,-2.536311626434326
1761132345758079000,6.392078857421875,-8.105179786682129,-0.4130242168903351,-1.993369460105896
1761132345768078800,6.402078857421875,-10.552204132080078,-0.699316143989563,-1.2969306707382202
1761132345778078200,6.412078125,-12.990997314453125,-1.0498073101043701,-0.4133780002593994
1761132345788078300,6.422078369140625,-14.857937812805176,-1.6763311624526978,-0.002340972423553467
1761132345798077400,6.432077392578125,-16.473474502563477,-2.252317190170288,-0.06557327508926392
1761132345808077300,6.442077392578125,-17.34405517578125,-2.6912848949432373,0.576300323009491
1761132345818077400,6.452077392578125,-17.73666763305664,-3.5608465671539307,2.0480546951293945
1761132345828077300,6.462077392578125,-17.79217529296875,-4.159068584442139,2.7038822174072266
1761132345838077400,6.472077392578125,-17.629405975341797,-4.421566486358643,2.2757599353790283
1761132345848077300,6.482077392578125,-16.927919387817383,-4.817295074462891,1.4739950895309448
1761132345858077200,6.4920771484375,-16.192615509033203,-5.3423614501953125,0.9078686833381653
1761132345868077300,6.502077392578125,-15.197216033935547,-5.944591999053955,0.5152184367179871
1761132345878078000,6.512077880859375,-14.010757446289062,-6.677105903625488,-0.4050326645374298
1761132345888078000,6.522078125,-12.338678359985352,-7.021426200866699,-2.1021671295166016
1761132345898078700,6.53207861328125,-12.017043113708496,-7.674878120422363,-2.294747829437256
1761132345908078800,6.542078857421875,-10.449182510375977,-7.921928882598877,-2.6466917991638184
1761132345918078700,6.55207861328125,-9.357726097106934,-7.809183120727539,-2.829773187637329
1761132345928078800,6.562078857421875,-8.916065216064453,-7.5821146965026855,-2.273052215576172
1761132345938079000,6.572078857421875,-9.087772369384766,-7.378610610961914,-1.1776937246322632
1761132345948078800,6.582078857421875,-9.469799995422363,-7.095306396484375,-0.18781626224517822
1761132345958078700,6.59207861328125,-9.952189445495605,-6.7446722984313965,0.25374919176101685
1761132345968078800,6.602078857421875,-10.286349296569824,-6.330365180969238,0.007342338562011719
1761132345978078000,6.612077880859375,-10.298835754394531,-6.062896728515625,-0.4409477710723877
1761132345988077000,6.6220771484375,-10.07244873046875,-5.793156147003174,-0.5590023994445801
1761132345998076200,6.632076171875,-9.810604095458984,-5.493855953216553,-0.37875795364379883
1761132346008075300,6.6420751953125,-9.629733085632324,-5.128753662109375,-0.08284604549407959
1761132346018074400,6.652074462890625,-9.656194686889648,-4.7714457511901855,0.3226689100265503
1761132346028073500,6.662073486328125,-9.552926063537598,-4.375729560852051,0.8529133200645447
1761132346038072600,6.672072509765625,-8.976471900939941,-3.8955540657043457,1.5020747184753418
1761132346048072000,6.682072021484375,-8.00540542602539,-3.417414903640747,1.740376353263855
1761132346058070800,6.69207080078125,-6.692158222198486,-2.9124608039855957,1.6961995363235474
1761132346068071000,6.70207080078125,-5.156578540802002,-2.3163533210754395,1.0215137004852295
1761132346078071600,6.712071533203125,-3.6125497817993164,-1.9213757514953613,0.12835371494293213
1761132346088071700,6.72207177734375,-1.1677236557006836,-1.8183810710906982,-0.4195476770401001
1761132346098072600,6.732072509765625,1.3631830215454102,-1.3139744997024536,-0.8810154795646667
1761132346108072400,6.742072509765625,2.183635711669922,-0.1581813097000122,-1.1225152015686035
1761132346118072600,6.752072509765625,1.0018186569213867,0.8590583801269531,-0.1522625982761383
1761132346128072400,6.762072509765625,0.6297388076782227,2.2394886016845703,2.1961493492126465
1761132346138071800,6.77207177734375,2.2433767318725586,3.1695780754089355,5.712017059326172
1761132346148071700,6.78207177734375,5.454768180847168,3.3972585201263428,9.667150497436523
1761132346158071800,6.79207177734375,11.401937484741211,3.292766571044922,14.003206253051758
1761132346168072000,6.802072021484375,20.141727447509766,3.3349037170410156,19.98581314086914
1761132346178071300,6.8120712890625,29.155776977539062,3.6210153102874756,24.5877628326416
1761132346188071200,6.8220712890625,37.506080627441406,2.4228806495666504,26.601036071777344
1761132346198070300,6.8320703125,41.48914337158203,3.467689037322998,23.039283752441406
1761132346208070400,6.8420703125,45.54268264770508,2.7744345664978027,19.629379272460938
1761132346218070300,6.8520703125,44.71427917480469,4.811288833618164,18.742443084716797
1761132346228070100,6.862070068359375,38.95486831665039,6.78157901763916,18.442256927490234
1761132346238070300,6.8720703125,31.276756286621094,9.003684043884277,16.98229217529297
1761132346248070100,6.882070068359375,23.391403198242188,9.655933380126953,15.893583297729492
1761132346258070300,6.8920703125,13.727959632873535,8.860270500183105,14.100995063781738
1761132346268071000,6.90207080078125,5.367072105407715,8.518924713134766,11.520123481750488
1761132346278071800,6.91207177734375,-0.7834672927856445,7.8755598068237305,9.23396110534668
1761132346288072700,6.92207275390625,-4.05426025390625,6.780669689178467,7.356949806213379
1761132346298073600,6.932073486328125,-5.177369117736816,5.512405872344971,5.016961097717285
1761132346308074200,6.94207421875,-4.695826530456543,3.947132110595703,2.673215627670288
1761132346318075100,6.9520751953125,-3.403271198272705,2.2352895736694336,0.4625968933105469
1761132346328076000,6.962075927734375,-2.4400787353515625,0.9073755741119385,-1.0121686458587646
1761132346338077000,6.972076904296875,-2.214920997619629,-0.050240397453308105,-2.323728084564209
1761132346348077800,6.982077880859375,-3.152463436126709,-0.7544019222259521,-3.36224365234375
1761132346358078700,6.99207861328125,-5.044661998748779,-1.298255443572998,-4.062613487243652
1761132346368078600,7.00207861328125,-7.605598449707031,-1.7152481079101562,-4.383629322052002
1761132346378078700,7.01207861328125,-9.729318618774414,-2.25162410736084,-4.187109470367432
1761132346388078600,7.02207861328125,-11.998820304870605,-2.639112949371338,-4.325200080871582
1761132346398077700,7.03207763671875,-13.41739273071289,-3.2911970615386963,-4.520822525024414
1761132346408077800,7.042077880859375,-15.027400970458984,-3.842439651489258,-4.346375465393066
1761132346418077700,7.05207763671875,-16.253358840942383,-4.247858047485352,-4.046162128448486
1761132346428077800,7.062077880859375,-17.49068832397461,-4.712007522583008,-3.929774045944214
1761132346438078500,7.072078369140625,-18.599437713623047,-5.033224105834961,-3.923156499862671
1761132346448078300,7.082078369140625,-19.77885627746582,-5.352734088897705,-3.8474669456481934
1761132346458078500,7.092078369140625,-20.702983856201172,-5.446407318115234,-4.139628887176514
1761132346468078300,7.102078369140625,-20.84659194946289,-5.490767478942871,-4.273774147033691
1761132346478079000,7.112078857421875,-19.068077087402344,-5.625794410705566,-4.437740325927734
1761132346488079000,7.1220791015625,-15.54556655883789,-5.868075370788574,-4.175704479217529
1761132346498080000,7.132080078125,-11.878523826599121,-6.3252763748168945,-4.3359375
1761132346508079900,7.142079833984375,-8.240374565124512,-6.8252854347229,-5.077536106109619
1761132346518080000,7.152080078125,-5.573854446411133,-7.277467250823975,-6.0465989112854
1761132346528080000,7.162079833984375,-4.3974151611328125,-7.455472946166992,-6.933867454528809
1761132346538080000,7.172080078125,-4.7193098068237305,-7.311099052429199,-7.631778240203857
1761132346548079900,7.182079833984375,-6.706488609313965,-6.854625701904297,-7.801041603088379
1761132346558080000,7.192080078125,-9.139551162719727,-6.32034969329834,-7.200861930847168
1761132346568080100,7.202080078125,-10.943109512329102,-5.697803497314453,-6.256381988525391
1761132346578079500,7.21207958984375,-11.286213874816895,-5.192001819610596,-5.2469611167907715
1761132346588079400,7.222079345703125,-10.095653533935547,-4.753143310546875,-3.9510281085968018
1761132346598078500,7.232078369140625,-8.021395683288574,-4.280365467071533,-2.5695550441741943
1761132346608078600,7.24207861328125,-5.4998459815979,-3.828871965408325,-1.4884833097457886
1761132346618078500,7.252078369140625,-3.5840468406677246,-3.4174396991729736,-1.1739147901535034
1761132346628078300,7.262078369140625,-2.3363089561462402,-2.985950469970703,-1.2866106033325195
1761132346638078500,7.272078369140625,-1.5383596420288086,-2.797494888305664,-0.8163927793502808
1761132346648078600,7.28207861328125,-0.9561738967895508,-2.434919595718384,-0.5196794867515564
1761132346658078500,7.292078369140625,-0.23108768463134766,-1.8569650650024414,-0.6600348353385925
1761132346668078600,7.30207861328125,0.6396312713623047,-1.4301632642745972,-1.2231409549713135
1761132346678078500,7.312078369140625,1.3675432205200195,-1.1669870615005493,-0.9686030149459839
1761132346688078600,7.32207861328125,1.7688446044921875,-0.946506142616272,0.11907428503036499
1761132346698079200,7.332079345703125,1.8979759216308594,-0.5128465890884399,0.8156940937042236
1761132346708079400,7.342079345703125,1.9029712677001953,-0.5830341577529907,0.8577100038528442
1761132346718079200,7.352079345703125,2.334742546081543,1.8080912828445435,0.7308433055877686
1761132346728079400,7.362079345703125,2.897952079772949,2.479630947113037,1.262054443359375
1761132346738079500,7.37207958984375,6.646439552307129,3.687347173690796,2.4504518508911133
1761132346748079400,7.382079345703125,15.196040153503418,3.7721633911132812,3.8615517616271973
1761132346758079500,7.39207958984375,27.282142639160156,0.635198175907135,5.0965189933776855
1761132346768079400,7.402079345703125,39.24610900878906,-4.468451976776123,4.8190388679504395
1761132346778079500,7.41207958984375,44.35100555419922,-8.732879638671875,1.5367286205291748
1761132346788079400,7.422079345703125,41.48696517944336,-6.612176895141602,0.30090248584747314
1761132346798078500,7.432078369140625,35.91069793701172,-2.84222412109375,3.806544780731201
1761132346808078600,7.44207861328125,29.76313018798828,0.319466233253479,8.01480484008789
1761132346818078700,7.45207861328125,23.158992767333984,3.3254799842834473,10.554805755615234
1761132346828078600,7.46207861328125,15.275277137756348,4.6798906326293945,10.887652397155762
1761132346838078500,7.472078369140625,6.395872116088867,4.713639736175537,9.05173397064209
1761132346848078600,7.48207861328125,0.17282867431640625,4.119235515594482,7.305398941040039
1761132346858078500,7.492078369140625,-2.971797466278076,3.041897773742676,5.488119125366211
1761132346868078600,7.50207861328125,-2.979249954223633,1.6330091953277588,3.377634048461914
1761132346878079200,7.512079345703125,-1.1335945129394531,1.0057158470153809,0.7588906288146973
1761132346888079000,7.5220791015625,1.2527532577514648,1.3481438159942627,-1.5952262878417969
1761132346898080000,7.532080078125,4.180097579956055,2.8324928283691406,-3.4684810638427734
1761132346908080000,7.542080078125,6.3157854080200195,4.56102180480957,-3.866476535797119
1761132346918080000,7.552080078125,7.588719844818115,6.109582424163818,-3.360429286956787
1761132346928080100,7.562080078125,7.222904205322266,7.268853664398193,-2.1870384216308594
1761132346938080300,7.572080322265625,4.968074321746826,7.862212181091309,-0.2848196029663086
1761132346948080000,7.582080078125,2.183785915374756,7.979789733886719,1.4746065139770508
1761132346958080000,7.592080078125,-0.8432154655456543,8.058486938476562,2.9668450355529785
1761132346968080100,7.602080078125,-4.514408111572266,8.060698509216309,4.7587714195251465
1761132346978079500,7.61207958984375,-7.874337673187256,7.239812850952148,7.4791460037231445
1761132346988078600,7.62207861328125,-10.798980712890625,6.6876068115234375,9.052566528320312
1761132346998077700,7.63207763671875,-13.00408935546875,6.5341291427612305,10.089971542358398
1761132347008076800,7.642076904296875,-14.409734725952148,6.189581871032715,10.211536407470703
1761132347018076000,7.652075927734375,-15.097116470336914,5.82105016708374,9.473182678222656
1761132347028075000,7.662074951171875,-15.125274658203125,5.329791069030762,8.987771987915039
1761132347038074000,7.67207421875,-14.753206253051758,4.836441993713379,8.759692192077637
1761132347048073500,7.682073486328125,-13.797799110412598,4.411277770996094,8.682988166809082
1761132347058072300,7.692072265625,-12.750823974609375,3.9396162033081055,8.832932472229004
1761132347068071400,7.702071533203125,-11.538057327270508,3.068755626678467,8.091312408447266
1761132347078070500,7.712070556640625,-10.68603229522705,2.189608097076416,6.5555100440979
1761132347088070000,7.72206982421875,-9.893515586853027,1.244905948638916,4.8452959060668945
1761132347098069800,7.73206982421875,-9.151178359985352,0.416634202003479,3.1234116554260254
1761132347108068900,7.74206884765625,-8.039372444152832,-0.22375905513763428,1.5061452388763428
1761132347118069000,7.752069091796875,-6.902660369873047,-0.7433286905288696,0.07990264892578125
1761132347128068900,7.76206884765625,-6.057472229003906,-1.1759587526321411,-0.8961267471313477
1761132347138069000,7.772069091796875,-5.477745532989502,-1.272671103477478,-0.9819512367248535
1761132347148068900,7.78206884765625,-5.079588413238525,-1.102855920791626,-0.6540467739105225
1761132347158069000,7.792069091796875,-4.800505638122559,-1.0904885530471802,-0.13943791389465332
1761132347168068900,7.80206884765625,-4.69813871383667,-1.1959686279296875,0.49237215518951416
1761132347178069000,7.812069091796875,-4.5817108154296875,-1.5053462982177734,0.6384974718093872
1761132347188068900,7.82206884765625,-4.0564422607421875,-1.863187313079834,-0.3301048278808594
1761132347198068200,7.832068115234375,-3.1529226303100586,-2.242896795272827,-1.596320629119873
1761132347208068000,7.842068115234375,-1.9162931442260742,-2.5447893142700195,-2.7363288402557373
1761132347218068200,7.852068115234375,-0.4441347122192383,-2.995404005050659,-3.232954978942871
1761132347228068000,7.862068115234375,0.9652376174926758,-3.3769729137420654,-3.6742067337036133
1761132347238068000,7.87206787109375,2.645512580871582,-3.813267707824707,-3.3738183975219727
1761132347248068000,7.882068115234375,4.1157684326171875,-4.434137344360352,-3.2977566719055176
1761132347258068000,7.89206787109375,5.146618843078613,-5.227126121520996,-2.6486854553222656
1761132347268068000,7.902068115234375,7.199538230895996,-6.221397399902344,-1.3577011823654175
1761132347278068700,7.91206884765625,9.426280975341797,-6.733552932739258,-0.5494555234909058
1761132347288069600,7.922069580078125,12.48966121673584,-7.305445671081543,-0.42611658573150635
1761132347298070500,7.932070556640625,17.68579864501953,-7.744556427001953,-1.430770993232727
1761132347308071400,7.942071533203125,17.659204483032227,-7.600728511810303,-1.6340686082839966
1761132347318072300,7.952072265625,23.06105613708496,-10.470527648925781,-6.491968154907227
1761132347328073200,7.9620732421875,20.96318817138672,-11.652700424194336,-11.401930809020996
1761132347338073900,7.972073974609375,20.932231903076172,-11.393872261047363,-14.887974739074707
1761132347348074800,7.98207470703125,21.046249389648438,-10.8342924118042,-14.505900382995605
1761132347358075600,7.99207568359375,23.30767822265625,-9.752985000610352,-14.037713050842285
1761132347368076500,8.00207666015625,23.604515075683594,-5.751659393310547,-8.882038116455078
1761132347378077400,8.012077392578124,21.80150032043457,-1.9934790134429932,-5.444192886352539
1761132347388078300,8.022078369140624,18.44400405883789,1.7718284130096436,-1.884366512298584
1761132347398078500,8.032078369140624,14.655738830566406,4.680627822875977,1.4268360137939453
1761132347408079400,8.042079345703126,11.415712356567383,6.572422027587891,3.34700870513916
1761132347418079200,8.052079345703126,8.600494384765625,7.9813618659973145,3.3701071739196777
1761132347428079400,8.062079345703125,6.295370101928711,9.094450950622559,2.3612990379333496
1761132347438079200,8.072079345703125,4.348419666290283,9.614011764526367,0.8641214370727539
1761132347448079400,8.082079345703125,3.051079273223877,10.073502540588379,-0.6632246971130371
1761132347458079200,8.092079345703125,2.8965911865234375,10.241527557373047,-2.181265115737915
1761132347468079000,8.1020791015625,3.6780238151550293,10.720437049865723,-2.6457366943359375
1761132347478079200,8.112079345703124,4.5159125328063965,10.876354217529297,-1.3147172927856445
1761132347488079000,8.1220791015625,4.386922359466553,10.865591049194336,0.7336404323577881
1761132347498080000,8.132080078125,2.8327903747558594,10.345420837402344,3.862649440765381
1761132347508080000,8.142080078125,0.36391401290893555,9.38051986694336,6.745872497558594
1761132347518080000,8.152080078125,-2.78525972366333,8.435870170593262,8.095067977905273
1761132347528080100,8.162080078125,-6.766985893249512,7.375147342681885,8.035624504089355
1761132347538080000,8.172080078125,-9.886789321899414,6.34967041015625,7.297206878662109
1761132347548080000,8.182080078125,-12.176640510559082,5.332951545715332,6.285000801086426
1761132347558080000,8.192080078125,-13.42689323425293,4.338512420654297,5.369671821594238
1761132347568080100,8.202080078125,-13.586858749389648,3.4778175354003906,5.436954498291016
1761132347578080000,8.212080078125,-13.140445709228516,2.786771059036255,6.8524980545043945
1761132347588080000,8.222080078125,-11.794023513793945,2.463559150695801,8.418251991271973
1761132347598079200,8.232079345703125,-10.443760871887207,2.276444911956787,8.753252029418945
1761132347608079400,8.242079345703125,-10.079344749450684,1.611814022064209,7.995358467102051
1761132347618079200,8.252079345703125,-10.87490177154541,0.4446423053741455,6.530566692352295
1761132347628079000,8.2620791015625,-11.824501037597656,-0.75953209400177,5.0588603019714355
1761132347638078500,8.272078369140624,-12.521166801452637,-1.855374813079834,3.522069215774536
1761132347648078600,8.28207861328125,-12.981916427612305,-2.8409998416900635,2.2007744312286377
1761132347658078700,8.29207861328125,-13.103510856628418,-3.3081836700439453,1.788053035736084
1761132347668078600,8.30207861328125,-13.232891082763672,-3.474654197692871,1.8029307126998901
1761132347678078500,8.312078369140625,-13.614721298217773,-3.592871904373169,2.4092092514038086
1761132347688078600,8.32207861328125,-14.165201187133789,-3.748098611831665,3.503779649734497
1761132347698079500,8.33207958984375,-14.476839065551758,-3.798286199569702,4.593994140625
1761132347708079400,8.342079345703125,-14.331131935119629,-3.568871021270752,5.589906692504883
1761132347718079500,8.35207958984375,-14.321442604064941,-3.5676515102386475,5.727870941162109
1761132347728079400,8.362079345703124,-14.337535858154297,-3.6623611450195312,5.664839267730713
1761132347738079500,8.37207958984375,-12.775325775146484,-4.313363075256348,4.403585433959961
1761132347748079400,8.382079345703126,-9.37320327758789,-4.741117477416992,3.3008670806884766
1761132347758079500,8.39207958984375,-5.228416442871094,-4.89428186416626,2.6339616775512695
1761132347768079400,8.402079345703125,-3.0279550552368164,-4.537850379943848,2.9505743980407715
1761132347778078700,8.41207861328125,-1.6714811325073242,-3.604776382446289,3.3961174488067627
1761132347788078800,8.422078857421875,0.5440530776977539,-1.6471856832504272,4.08188533782959
1761132347798078000,8.432077880859374,3.0822696685791016,0.7075532674789429,4.415283203125
1761132347808077800,8.442077880859374,5.406187057495117,2.921297073364258,4.839649200439453
1761132347818078000,8.452077880859376,9.744678497314453,4.424452781677246,5.840559959411621
1761132347828077800,8.462077880859376,17.08730697631836,3.9221627712249756,7.096109390258789
1761132347838078000,8.472077880859375,28.01675796508789,1.6253302097320557,7.932604789733887
1761132347848077800,8.482077880859375,44.572059631347656,-2.091416597366333,7.397726058959961
1761132347858078000,8.492077880859375,44.61685562133789,-1.5992016792297363,7.015046119689941
1761132347868077800,8.502077880859375,51.592079162597656,-3.592893600463867,6.093844890594482
1761132347878078000,8.512077880859374,40.58069610595703,0.6940391063690186,6.039005279541016
1761132347888077800,8.522077880859374,32.86244201660156,3.1876416206359863,7.221297264099121
1761132347898078700,8.53207861328125,27.26459503173828,4.917098045349121,7.513379096984863
1761132347908078800,8.542078857421876,22.544933319091797,5.61509370803833,6.094503402709961
1761132347918078700,8.55207861328125,18.076936721801758,5.490391731262207,3.9122891426086426
1761132347928078800,8.562078857421875,14.08157730102539,4.8801679611206055,1.5478780269622803
1761132347938079500,8.57207958984375,10.471768379211426,4.620520114898682,-1.329834222793579
1761132347948079400,8.582079345703125,7.759512901306152,4.751603603363037,-3.6053521633148193
1761132347958079500,8.59207958984375,6.635516166687012,5.301294326782227,-5.785357475280762
1761132347968079400,8.602079345703125,5.904757499694824,5.611186981201172,-6.800381660461426
1761132347978078700,8.61207861328125,3.809760093688965,5.861838340759277,-6.430667877197266
1761132347988077800,8.622077880859376,0.9130105972290039,6.281388282775879,-5.17372989654541
1761132347998077000,8.632076904296875,-2.620845317840576,6.125938892364502,-3.3298487663269043
1761132348008076000,8.642075927734375,-5.6178388595581055,5.402226448059082,-1.9849739074707031
1761132348018075100,8.6520751953125,-8.684252738952637,4.471837043762207,-0.7105576992034912
1761132348028074200,8.66207421875,-11.96827220916748,3.4204695224761963,0.27194371819496155
1761132348038073600,8.672073486328125,-15.071357727050781,2.3044588565826416,0.6587635278701782
1761132348048072700,8.68207275390625,-17.414865493774414,1.3394025564193726,0.6253631114959717
1761132348058071800,8.69207177734375,-19.174848556518555,0.03612786531448364,0.0987047553062439
1761132348068071000,8.70207080078125,-20.36465835571289,-0.23868364095687866,-0.0888303816318512
1761132348078070500,8.712070556640626,-19.88897705078125,-1.6211516857147217,1.1639041900634766
1761132348088069600,8.722069580078125,-18.397769927978516,-2.8635127544403076,1.3921422958374023
1761132348098070500,8.732070556640625,-16.61470603942871,-3.6488566398620605,0.3515610098838806
1761132348108070400,8.7420703125,-16.616863250732422,-3.6892030239105225,0.4274411201477051
1761132348118070500,8.752070556640625,-12.36382007598877,-5.8565897941589355,-1.6018122434616089
1761132348128070700,8.762070556640625,-9.57784366607666,-6.637360572814941,-2.7679669857025146
1761132348138070500,8.772070556640625,-8.668059349060059,-7.307076930999756,-3.1553001403808594
1761132348148070700,8.782070556640624,-7.578709602355957,-7.6761956214904785,-3.5958521366119385
1761132348158070800,8.79207080078125,-7.04917049407959,-7.561866760253906,-4.030383586883545
1761132348168070700,8.802070556640626,-7.19209098815918,-7.356264114379883,-3.468940258026123
1761132348178070500,8.812070556640625,-7.813906192779541,-6.798068523406982,-2.556973695755005
1761132348188070700,8.822070556640625,-8.754727363586426,-6.184787750244141,-1.3693311214447021
1761132348198069800,8.83206982421875,-9.957876205444336,-5.696268558502197,-0.2769240140914917
1761132348208070000,8.84206982421875,-11.244523048400879,-5.302612781524658,0.4100995659828186
1761132348218069800,8.85206982421875,-12.385154724121094,-4.982705593109131,0.8668138980865479
1761132348228070000,8.86206982421875,-12.865509986877441,-4.890737533569336,1.2073156833648682
1761132348238069800,8.87206982421875,-12.997343063354492,-4.82236385345459,1.5464082956314087
1761132348248070000,8.88206982421875,-12.953354835510254,-4.708258152008057,2.0787193775177
1761132348258069800,8.89206982421875,-12.513130187988281,-4.595676422119141,2.6568613052368164
1761132348268069600,8.902069580078125,-11.61927604675293,-4.448596000671387,3.0411410331726074
1761132348278070500,8.912070556640625,-10.360207557678223,-4.265707492828369,3.0622661113739014
1761132348288071400,8.922071533203125,-8.662657737731934,-4.526429653167725,2.659196615219116
1761132348298072000,8.932072021484375,-6.669907569885254,-5.022715091705322,1.7177393436431885
1761132348308073000,8.942072998046875,-4.097169399261475,-6.117251873016357,1.1875371932983398
1761132348318073900,8.952073974609375,-0.3464393615722656,-6.622185707092285,-0.158497154712677
1761132348328074800,8.96207470703125,3.493729591369629,-6.065002918243408,-1.406873345375061
1761132348338075600,8.97207568359375,7.109320640563965,-4.315425395965576,-0.5135689377784729
1761132348348076500,8.98207666015625,9.814493179321289,-2.0647709369659424,3.3131134510040283
1761132348358077400,8.992077392578125,12.250850677490234,0.3342892527580261,9.073588371276855
1761132348368078300,9.002078369140625,13.547527313232422,3.290133476257324,15.3075532913208
1761132348388080000,9.022080078125,21.78650665283203,8.530372619628906,22.249916076660156
1761132348398079200,9.032079345703124,31.630352020263672,9.055700302124023,22.471532821655273
1761132348408079000,9.0420791015625,41.97184753417969,8.332140922546387,20.336484909057617
1761132348418079200,9.052079345703126,45.18696975708008,7.994482040405273,17.35116958618164
1761132348428079000,9.0620791015625,41.792755126953125,9.315885543823242,14.905889511108398
1761132348438079200,9.072079345703125,35.62350082397461,11.257203102111816,14.171878814697266
1761132348448079000,9.0820791015625,29.230913162231445,12.701644897460938,15.251707077026367
1761132348458079000,9.092078857421875,23.465808868408203,13.17159366607666,16.55654525756836
1761132348468079000,9.1020791015625,18.392892837524414,12.500825881958008,16.079139709472656
1761132348478079000,9.112078857421874,12.721006393432617,11.004535675048828,13.517881393432617
1761132348488079000,9.1220791015625,6.550926208496094,9.313124656677246,9.095674514770508
1761132348498079700,9.132079833984376,1.8734302520751953,7.546208381652832,4.4278244972229
1761132348508079900,9.142079833984376,-0.4672069549560547,6.043883323669434,0.2717384099960327
1761132348518079700,9.152079833984375,-1.3109045028686523,4.941747665405273,-3.042109966278076
1761132348528080000,9.162079833984375,-2.0007286071777344,4.180586338043213,-4.390161991119385
1761132348538080000,9.172080078125,-3.154118537902832,3.4383459091186523,-4.604351997375488
1761132348548079900,9.182079833984375,-3.166849136352539,3.349616527557373,-4.360282897949219
1761132348558080000,9.192080078125,-8.013154029846191,1.6977880001068115,-3.4131295680999756
1761132348568080000,9.202079833984374,-11.171957969665527,0.7059450745582581,-2.5505924224853516
1761132348578080000,9.212080078125,-13.952547073364258,-0.2300274670124054,-1.754468321800232
1761132348588079900,9.222079833984376,-16.657821655273438,-0.9781659245491028,-1.072033166885376
1761132348598079500,9.23207958984375,-18.521608352661133,-1.4597669839859009,-0.5971814393997192
1761132348608079400,9.242079345703125,-19.57811737060547,-2.015530586242676,-0.07087965309619904
1761132348618079500,9.25207958984375,-19.938926696777344,-2.5791738033294678,0.19709362089633942
1761132348628079400,9.262079345703125,-19.637939453125,-2.9732205867767334,0.3768599331378937
1761132348638079200,9.272079345703125,-18.57238006591797,-3.2980384826660156,0.507412850856781
1761132348648079400,9.282079345703124,-16.925655364990234,-3.6674704551696777,0.3198818266391754
1761132348658079200,9.292079345703126,-14.8164701461792,-4.094900131225586,-0.026162832975387573
1761132348668079400,9.302079345703126,-12.146595001220703,-4.7328948974609375,-0.5484899282455444
1761132348678079200,9.312079345703125,-9.490643501281738,-5.4083733558654785,-1.181123971939087
1761132348688079400,9.322079345703125,-7.3388261795043945,-5.89368200302124,-1.9818649291992188
1761132348698080300,9.332080322265625,-6.360467910766602,-6.11726188659668,-2.3387579917907715
1761132348708080000,9.342080078125,-6.188789367675781,-6.012710094451904,-2.4387173652648926
1761132348718080300,9.352080322265625,-6.800148010253906,-5.726940155029297,-2.3023719787597656
1761132348728080100,9.362080078125,-7.941841125488281,-5.357964515686035,-1.8628913164138794
1761132348738080300,9.372080322265624,-9.11072063446045,-4.888409614562988,-1.402206540107727
1761132348748080000,9.382080078125,-10.337494850158691,-4.500284671783447,-1.0044493675231934
1761132348758080300,9.392080322265626,-11.195556640625,-4.205789089202881,-0.5871829986572266
1761132348768080100,9.402080078125,-11.641401290893555,-3.9425201416015625,-0.37713760137557983
1761132348778079500,9.41207958984375,-11.693338394165039,-3.787501335144043,-0.34497594833374023
1761132348788079600,9.42207958984375,-11.484122276306152,-3.7659850120544434,-0.17379435896873474
1761132348798078700,9.43207861328125,-11.114651679992676,-3.6697921752929688,-0.1822250783443451
1761132348808078800,9.442078857421874,-10.709263801574707,-3.5699501037597656,-0.11971673369407654
1761132348818078700,9.45207861328125,-10.282244682312012,-3.4487783908843994,0.009941190481185913
1761132348828078600,9.46207861328125,-9.59969425201416,-3.17289400100708,0.31231823563575745
1761132348838078700,9.47207861328125,-8.325299263000488,-2.7195582389831543,0.7506948709487915
1761132348848078800,9.482078857421875,-6.0673112869262695,-1.9571077823638916,1.0820492506027222
1761132348858078700,9.49207861328125,-3.0555062294006348,-0.8759317398071289,1.110471487045288
1761132348868078600,9.50207861328125,0.620640754699707,0.06713390350341797,0.3201178014278412
1761132348878078700,9.51207861328125,4.938442230224609,0.8312942981719971,0.06278663873672485
1761132348888078600,9.52207861328125,8.66966438293457,2.2626497745513916,-0.3806861340999603
1761132348898079200,9.532079345703124,10.991039276123047,4.368685722351074,-0.9630394577980042
1761132348908079000,9.5420791015625,12.603466987609863,6.251394748687744,-0.008770972490310669
1761132348918079200,9.552079345703126,14.121743202209473,7.267457008361816,3.0576846599578857
1761132348928079400,9.562079345703125,14.541619300842285,8.533193588256836,5.417082786560059
1761132348938079200,9.572079345703125,17.499053955078125,9.543170928955078,6.581385135650635
1761132348948079400,9.582079345703125,25.039892196655273,7.479597091674805,7.594691276550293
1761132348958079200,9.592079345703125,32.15695571899414,2.7565865516662598,8.077272415161133
1761132348968078600,9.60207861328125,33.52165603637695,-1.1563284397125244,6.9320902824401855
1761132348978077700,9.61207763671875,30.348674774169922,-3.10507869720459,4.240113258361816
1761132348988076800,9.622076904296875,25.325057983398438,-3.5009610652923584,3.1728997230529785
1761132348998076000,9.632075927734375,20.115772247314453,-3.045372247695923,3.7440590858459473
1761132349008075000,9.642074951171875,19.795677185058594,-2.257204294204712,4.35981559753418
1761132349018074000,9.65207421875,19.479087829589844,-1.7419326305389404,3.953805446624756
1761132349028073200,9.6620732421875,16.597759246826172,-1.764211893081665,1.8863180875778198
1761132349038072600,9.672072509765625,9.621664047241211,-0.906163215637207,0.6325896978378296
1761132349048071700,9.68207177734375,4.908721923828125,1.5553526878356934,2.0899031162261963
1761132349058070800,9.69207080078125,2.7347469329833984,4.97443962097168,1.0747923851013184
1761132349068070000,9.70206982421875,-0.3017091751098633,5.877603530883789,1.4459114074707031
1761132349078069500,9.712069580078126,-4.831321716308594,4.645745277404785,3.616642951965332
1761132349088068900,9.72206884765625,-8.847453117370605,3.096717357635498,2.142904758453369
1761132349098068700,9.73206884765625,-8.784818649291992,4.935007095336914,0.6130605340003967
1761132349108067800,9.74206787109375,-8.104338645935059,5.558491230010986,-0.3484008312225342
1761132349118067000,9.75206689453125,-8.420123100280762,5.902624607086182,-1.393576741218567
1761132349128067000,9.762067138671876,-8.01439094543457,4.797880172729492,-1.2913075685501099
1761132349138067000,9.77206689453125,-7.998058319091797,3.7327873706817627,-0.8773490190505981
1761132349148067000,9.782067138671875,-8.482223510742188,3.309082269668579,-0.33701860904693604
1761132349158067000,9.79206689453125,-8.967905044555664,2.7639055252075195,0.7304680943489075
1761132349168067000,9.802067138671875,-9.354296684265137,2.0121257305145264,2.026132583618164
1761132349178067200,9.812067138671875,-9.554658889770508,1.1146504878997803,2.914862632751465
1761132349188067000,9.822067138671875,-9.294807434082031,0.42513012886047363,3.2566001415252686
1761132349198066200,9.832066162109374,-9.237706184387207,0.14403104782104492,3.202824592590332
1761132349208066300,9.84206640625,-9.251330375671387,-0.23706746101379395,3.1320838928222656
1761132349218065700,9.852065673828125,-9.513309478759766,-0.8140469193458557,2.5575151443481445
1761132349228065500,9.8620654296875,-9.765183448791504,-1.8776867389678955,1.4332060813903809
1761132349238065400,9.8720654296875,-9.868128776550293,-3.1942808628082275,-0.47865593433380127
1761132349248065500,9.8820654296875,-9.3809175491333,-4.279022216796875,-1.4545514583587646
1761132349258065400,9.8920654296875,-9.70109748840332,-5.97509241104126,-0.5490071773529053
1761132349268066000,9.902066162109374,-9.726838111877441,-6.1558685302734375,-0.9701982736587524
1761132349278067000,9.91206689453125,-9.612874984741211,-6.128849983215332,-1.2931205034255981
1761132349288067800,9.92206787109375,-9.426996231079102,-5.832915306091309,-1.6963722705841064
1761132349298068700,9.93206884765625,-9.219836235046387,-5.251396656036377,-1.6547490358352661
1761132349308069600,9.942069580078124,-9.0010404586792,-4.2199859619140625,-0.10648137331008911
1761132349318070500,9.952070556640624,-8.59717082977295,-3.1824307441711426,2.5875511169433594
1761132349328071400,9.962071533203124,-8.154154777526855,-3.0042266845703125,3.393596649169922
1761132349338072300,9.972072265625,-7.783257484436035,-2.5992488861083984,3.9454166889190674
1761132349348073200,9.9820732421875,-7.041579246520996,-1.355726718902588,5.1194868087768555
1761132349358073000,9.992072998046876,-6.072938442230225,0.06801176071166992,4.889326095581055
1761132349368074000,10.002073974609376,22.855098724365234,7.150263786315918,-12.434088706970215
1761132349378075000,10.012074951171876,4.276397228240967,5.818613052368164,-8.842384338378906
1761132349388075800,10.02207568359375,-0.9937453269958496,3.2346034049987793,-7.242222785949707
1761132349398076000,10.032075927734375,-1.100050926208496,3.3375048637390137,-7.429608345031738
1761132349408076500,10.04207666015625,-4.153331756591797,-6.264965057373047,1.438176155090332
1761132349418077400,10.052077392578125,-5.656516075134277,-7.957033157348633,0.8898726105690002
1761132349428077600,10.06207763671875,-1.6900711059570312,-8.973798751831055,-1.955208420753479
1761132349438077400,10.072077392578125,4.303170204162598,-11.28370475769043,-3.59812068939209
1761132349448077600,10.08207763671875,9.649721145629883,-12.557960510253906,-5.737044334411621
1761132349458077400,10.092077392578124,11.505091667175293,-13.161483764648438,-7.121194839477539
1761132349468077600,10.10207763671875,12.331114768981934,-12.331584930419922,-7.502412796020508
1761132349478077400,10.112077392578126,12.318001747131348,-9.467759132385254,-6.995243072509766
1761132349488077300,10.122077392578126,11.668783187866211,-5.620572566986084,-3.321256160736084
1761132349498078200,10.132078125,13.550374031066895,-1.1657768487930298,1.9812355041503906
1761132349508078300,10.142078369140625,13.468527793884277,2.5488076210021973,5.895254611968994
1761132349518079000,10.152078857421875,12.438328742980957,5.697866916656494,7.623302459716797
1761132349528078800,10.162078857421875,11.460164070129395,7.9960808753967285,7.469645023345947
1761132349538079000,10.172078857421875,8.726497650146484,8.687674522399902,7.278061389923096
1761132349548078800,10.182078857421875,4.89932918548584,7.690079212188721,6.5485053062438965
1761132349558078200,10.192078125,2.2805309295654297,6.453721046447754,4.907063007354736
1761132349568078000,10.202078125,0.3511371612548828,5.312524795532227,3.3505640029907227
1761132349578078200,10.212078125,-0.17792034149169922,4.6765007972717285,1.0652813911437988
1761132349588078000,10.222078125,0.4727602005004883,4.436270713806152,-0.2701601982116699
1761132349598077200,10.2320771484375,2.5930614471435547,4.3312788009643555,-1.409292221069336
1761132349608077300,10.242077392578125,4.235292434692383,4.84407901763916,-2.127826690673828
1761132349618077200,10.2520771484375,4.119122505187988,4.101737976074219,-1.0756950378417969
1761132349628077300,10.262077392578124,2.1640148162841797,2.865680694580078,1.2841706275939941
1761132349638077200,10.2720771484375,-0.4367389678955078,2.0710721015930176,3.120976209640503
1761132349648077300,10.282077392578126,-2.1173362731933594,1.8178281784057617,3.8185524940490723
1761132349658078200,10.292078125,-1.5553531646728516,2.509674549102783,2.8770835399627686
1761132349668078000,10.302078125,0.37336063385009766,3.8088884353637695,1.0274239778518677
1761132349678078200,10.312078125,1.0737686157226562,3.1650490760803223,1.219224452972412
1761132349688078000,10.322078125,1.2202434539794922,1.3318822383880615,2.426123857498169
1761132349698079000,10.332078857421875,0.6269454956054688,0.24655628204345703,2.9589462280273438
1761132349708079000,10.3420791015625,0.16830158233642578,-0.007533907890319824,2.1141510009765625
1761132349718079000,10.352078857421875,0.18168067932128906,-0.03200936317443848,1.049607753753662
1761132349728079000,10.3620791015625,0.92767333984375,0.04476475715637207,0.31565117835998535
1761132349738079000,10.372078857421876,1.6361761093139648,0.09975802898406982,-0.002985358238220215
1761132349748079000,10.3820791015625,1.555999755859375,-0.015381097793579102,0.7011865377426147
1761132349758079000,10.392078857421875,0.6114864349365234,-0.03319442272186279,1.5258910655975342
1761132349768079000,10.4020791015625,-0.10514163970947266,0.24972593784332275,2.1854002475738525
1761132349778079000,10.412078857421875,0.4539012908935547,0.44253361225128174,2.419741630554199
1761132349788079000,10.4220791015625,1.4972143173217773,0.021317720413208008,2.3642516136169434
1761132349798078500,10.432078369140624,2.434370994567871,-0.6197980642318726,1.6783018112182617
1761132349808078300,10.442078369140624,3.0259571075439453,-1.0038487911224365,0.7421419620513916
1761132349818078500,10.452078369140626,3.262446403503418,-0.3487809896469116,0.33745384216308594
1761132349828078300,10.462078369140626,2.2961292266845703,-0.4996680021286011,1.514758825302124
1761132349838078500,10.472078369140625,0.6933975219726562,-0.015581011772155762,1.9343903064727783
1761132349848078300,10.482078369140625,-0.0076274871826171875,0.29919207096099854,1.523538589477539
1761132349858079200,10.492079345703125,0.03359508514404297,0.27763068675994873,1.702406644821167
1761132349868079000,10.5020791015625,-1.466257095336914,1.2957940101623535,-0.7503945827484131
1761132349878079200,10.512079345703125,-2.6299901008605957,0.927802324295044,0.1710655689239502
1761132349888079000,10.5220791015625,-2.522886276245117,0.473260760307312,0.9843168258666992
1761132349898080000,10.532080078125,-2.2809576988220215,0.8813251852989197,1.1263035535812378
1761132349908080000,10.542080078125,-2.172687530517578,0.8993880748748779,1.4364123344421387
1761132349918080300,10.552080322265626,-1.8535466194152832,0.7446016669273376,1.4784852266311646
1761132349928080100,10.562080078125,-2.202634334564209,1.039487600326538,1.3076379299163818
1761132349938080300,10.572080322265625,-2.2446250915527344,1.01554274559021,1.3441606760025024
