time,seconds_elapsed,z,y,x
1761132339474677500,0.108677490234375,0.1342376321554184,0.05367978289723396,-0.16065755486488342
1761132339484715500,0.118715576171875,0.1342376321554184,0.05367978289723396,-0.16065755486488342
1761132339514695200,0.148695068359375,0.1342376321554184,0.05367978289723396,-0.16065755486488342
1761132339524692500,0.1586923828125,0.01572977937757969,-0.3128393590450287,0.11301007121801376
1761132339534690300,0.168690185546875,-0.038026362657547,-0.0849866271018982,0.1875356286764145
1761132339544688400,0.1786884765625,-0.01725694350898266,-0.0391717329621315,0.2070833146572113
1761132339554687000,0.18868701171875,0.03039054572582245,0.0035888333804905415,0.2742784917354584
1761132339564685600,0.198685546875,0.10735956579446793,0.1275944709777832,0.41233405470848083
1761132339574684400,0.208684326171875,0.10125091671943665,0.45746171474456787,0.5668829679489136
1761132339584683300,0.218683349609375,0.07681630551815033,0.6523277163505554,0.6664539575576782
1761132339594680000,0.22868017578125,0.08475755155086517,0.5606979131698608,0.6939429044723511
1761132339604679200,0.23867919921875,0.0682641938328743,0.3554472029209137,0.6982190012931824
1761132339614678300,0.24867822265625,-0.0074830991216003895,0.10315986722707748,0.7305948138237
1761132339624677400,0.258677490234375,-0.06123924255371094,0.13003793358802795,0.7831292152404785
1761132339634676700,0.2686767578125,-0.013591751456260681,0.5295438170433044,0.8753699064254761
1761132339644676000,0.278676025390625,0.09208793938159943,0.6297256946563721,0.9553932547569275
1761132339654675500,0.288675537109375,0.09086620807647705,0.6242279410362244,0.9871582388877869
1761132339664674800,0.2986748046875,-0.0679587572813034,0.15935947000980377,0.940732479095459
1761132339674674200,0.308674072265625,-0.260992169380188,-0.8155814409255981,0.8228355050086975
1761132339684673800,0.318673828125,-0.39965859055519104,-1.955456018447876,0.6493497490882874
1761132339694673200,0.328673095703125,-0.5230533480644226,-2.918790578842163,0.44104471802711487
1761132339704672800,0.3386728515625,-0.7759515643119812,-3.2492685317993164,0.2687807083129883
1761132339714672000,0.348672119140625,-1.0062477588653564,-2.3506858348846436,0.04153883829712868
1761132339724671700,0.358671630859375,-0.7331910133361816,-1.5083026885986328,-0.1264491081237793
1761132339734671400,0.36867138671875,-0.22861631214618683,-0.7911468744277954,-0.3170390725135803
1761132339744671000,0.3786708984375,0.24297164380550385,-0.08804095536470413,-0.588263213634491
1761132339754670600,0.388670654296875,0.6009386777877808,0.9278279542922974,-0.988990843296051
1761132339764670200,0.398670166015625,0.8458956480026245,1.740278720855713,-1.4208725690841675
1761132339774669800,0.408669921875,0.9711230397224426,1.970574975013733,-1.86497163772583
1761132339784669400,0.41866943359375,0.9289733171463013,2.2839488983154297,-2.282803535461426
1761132339794668500,0.42866845703125,0.831234872341156,2.4769821166992188,-2.765997886657715
1761132339804668400,0.43866845703125,0.8006916046142578,2.5234079360961914,-3.1673362255096436
1761132339814668500,0.44866845703125,0.8251262307167053,2.3749678134918213,-3.4929275512695312
1761132339824668400,0.45866845703125,0.8764389157295227,2.0683133602142334,-3.7360517978668213
1761132339834668500,0.46866845703125,0.9033169746398926,1.758604645729065,-3.8368446826934814
1761132339844668400,0.47866845703125,0.7878634333610535,1.5167020559310913,-3.710395574569702
1761132339854668500,0.48866845703125,0.47998735308647156,1.324279546737671,-3.445280075073242
1761132339864668400,0.49866845703125,0.06643159687519073,1.1782827377319336,-3.056769609451294
1761132339874668500,0.50866845703125,-0.35934147238731384,1.007851243019104,-2.5638015270233154
1761132339884668400,0.51866845703125,-0.7619016766548157,0.8123744130134583,-2.0109684467315674
1761132339894669300,0.52866943359375,-1.059393048286438,0.37132972478866577,-1.4795156717300415
1761132339904669400,0.53866943359375,-1.2365440130233765,-0.3623194396495819,-0.9957103729248047
1761132339914669300,0.54866943359375,-1.3226759433746338,-1.015945315361023,-0.5540547966957092
1761132339924669400,0.55866943359375,-1.4527902603149414,-1.5809955596923828,-0.13988813757896423
1761132339934669300,0.56866943359375,-1.5181528329849243,-1.906586766242981,0.30970868468284607
1761132339944669400,0.57866943359375,-1.4362969398498535,-2.0403661727905273,0.9486737251281738
1761132339954669300,0.58866943359375,-1.3691017627716064,-2.080683469772339,1.2705997228622437
1761132339974669300,0.60866943359375,-1.0447323322296143,-1.8925368785858154,1.7941112518310547
1761132339984669400,0.61866943359375,-0.6244570016860962,-1.5406785011291504,1.7654005289077759
1761132339994668500,0.62866845703125,-0.03497203439474106,-1.6665167808532715,1.5076154470443726
1761132340004668400,0.63866845703125,0.5997169613838196,-1.899867296218872,1.2510520219802856
1761132340014668500,0.64866845703125,1.0719157457351685,-1.6714036464691162,0.9156870245933533
1761132340024668400,0.65866845703125,1.3449726104736328,-0.7905359864234924,0.2968805134296417
1761132340034668500,0.66866845703125,1.241125464439392,-1.8931477069854736,-0.22663100063800812
1761132340044668400,0.67866845703125,0.7768678665161133,-2.592588424682617,-0.3494149148464203
1761132340054668500,0.68866845703125,-0.030695978552103043,-2.561434268951416,-0.0959058403968811
1761132340064668400,0.69866845703125,-0.5981897711753845,-1.8974238634109497,0.39217549562454224
1761132340074668500,0.70866845703125,-0.7246388792991638,-0.5755113959312439,0.9395107626914978
1761132340084668400,0.71866845703125,-0.44425174593925476,0.6260605454444885,1.0708467960357666
1761132340094669300,0.72866943359375,-0.014202617108821869,1.4898239374160767,0.8894197940826416
1761132340104669400,0.73866943359375,0.22831088304519653,2.0041725635528564,0.7348709106445312
1761132340114669300,0.74866943359375,0.13668109476566315,1.900936245918274,0.7214318513870239
1761132340124669400,0.75866943359375,-0.17608191072940826,1.2265410423278809,0.9944885969161987
1761132340134669300,0.76866943359375,-0.4473060667514801,0.4269184470176697,1.5094480514526367
1761132340144669400,0.77866943359375,-0.5853615999221802,-0.23342688381671906,1.9657644033432007
1761132340154669300,0.78866943359375,-0.5829181671142578,-0.5810092091560364,2.175291061401367
1761132340164669400,0.79866943359375,-0.49006664752960205,-0.5480225086212158,2.1233675479888916
1761132340174669300,0.80866943359375,-0.34956762194633484,-0.05688682571053505,1.748907208442688
1761132340184669400,0.81866943359375,-0.27809640765190125,0.3542254865169525,1.5259413719177246
1761132340194668500,0.82866845703125,-0.1742493063211441,0.6511059999465942,1.492343783378601
1761132340204668700,0.838668701171875,-0.029474247246980667,0.6969208717346191,1.6725490093231201
1761132340214668500,0.84866845703125,0.13484850525856018,0.582078218460083,1.99752938747406
1761132340224668400,0.85866845703125,0.3162754774093628,0.3945426046848297,2.324953079223633
1761132340234668500,0.86866845703125,0.46899178624153137,0.19234620034694672,2.5833492279052734
1761132340244668400,0.87866845703125,0.49525898694992065,-0.015347989276051521,2.805093288421631
1761132340254668500,0.88866845703125,0.7640396952629089,-0.10209085047245026,2.9804115295410156
1761132340264668400,0.89866845703125,1.098793864250183,0.04268420860171318,3.0500502586364746
1761132340274668500,0.90866845703125,1.3297009468078613,0.2638174295425415,2.961474657058716
1761132340284668400,0.91866845703125,1.4280502796173096,0.45257478952407837,2.76111102104187
1761132340294669300,0.92866943359375,1.451874017715454,0.6810383796691895,2.4947736263275146
1761132340304669400,0.93866943359375,1.345583438873291,0.8355873227119446,2.1783454418182373
1761132340314669300,0.94866943359375,1.1714868545532227,0.9467647671699524,1.8949040174484253
1761132340324669400,0.95866943359375,1.0334312915802002,1.0047969818115234,1.6340645551681519
1761132340334669300,0.96866943359375,0.9204211831092834,0.9773080348968506,1.338405728340149
1761132340344669400,0.97866943359375,0.82207190990448,0.9027824997901917,1.014647126197815
1761132340354669300,0.98866943359375,0.7133378982543945,0.8355873227119446,0.675616979598999
1761132340364669400,0.99866943359375,0.566730260848999,0.7696138620376587,0.3323107063770294
1761132340374669300,1.00866943359375,0.3920227587223053,0.6908122301101685,0.009773843921720982
1761132340384669400,1.01866943359375,0.1586722433567047,0.5698609352111816,-0.3023782968521118
1761132340394668500,1.02866845703125,-0.1290452778339386,0.42752930521965027,-0.6212499737739563
1761132340404668400,1.03866845703125,-0.4161519408226013,0.22594378888607025,-0.9431759119033813
1761132340414668500,1.04866845703125,-0.7185302376747131,0.168522447347641,-1.367727279663086
1761132340424668400,1.05866845703125,-0.8022187948226929,0.19478964805603027,-1.5888605117797852
1761132340434668500,1.06866845703125,-0.8101600408554077,0.2803107798099518,-1.7605136632919312
1761132340444668400,1.07866845703125,-0.7576256394386292,0.39332085847854614,-1.8784105777740479
1761132340454668500,1.08866845703125,-0.6879869699478149,0.48922669887542725,-1.9339994192123413
1761132340464668400,1.09866845703125,-0.6189591884613037,0.5552001595497131,-1.9120081663131714
1761132340474668500,1.10866845703125,-0.5377141237258911,0.6248387694358826,-1.8252654075622559
1761132340484668400,1.11866845703125,-0.46502116322517395,0.6749297380447388,-1.7055357694625854
1761132340494669300,1.12866943359375,-0.42348232865333557,0.6822600960731506,-1.5729780197143555
1761132340504669200,1.138669189453125,-0.3171917796134949,0.724409818649292,-1.4159855842590332
1761132340514669300,1.14866943359375,-0.13698652386665344,0.7543421983718872,-1.2278391122817993
1761132340524669200,1.158669189453125,0.07620543986558914,0.7525096535682678,-1.0519099235534668
1761132340534669300,1.16866943359375,0.29367345571517944,0.6553820371627808,-0.9132435321807861
1761132340544669200,1.178669189453125,0.49525898694992065,0.4568508565425873,-0.8142833709716797
1761132340554669300,1.18866943359375,0.6039929986000061,0.06895141303539276,-0.788627028465271
1761132340564669200,1.198669189453125,0.5038111209869385,-0.5773440003395081,-0.9046914577484131
1761132340574669300,1.20866943359375,0.24663683772087097,-1.3910164833068848,-1.2272282838821411
1761132340584669200,1.218669189453125,0.03405573591589928,-1.9914970397949219,-1.7452419996261597
1761132340594668500,1.22866845703125,0.04382958263158798,-2.106339693069458,-2.406809091567993
1761132340604668400,1.23866845703125,0.1537853181362152,-2.0770182609558105,-3.0280590057373047
1761132340614668500,1.24866845703125,0.15012013912200928,-2.006157875061035,-3.1563408374786377
1761132340624668400,1.25866845703125,0.013286318629980087,-1.747761845588684,-2.488054037094116
1761132340634668500,1.26866845703125,-0.02275473065674305,-1.4093425273895264,-1.4563027620315552
1761132340644668400,1.27866845703125,0.08536841720342636,-0.29329168796539307,-0.15577064454555511
1761132340654668500,1.28866845703125,0.09575312584638596,0.6175084114074707,0.13255776464939117
1761132340664668400,1.29866845703125,-0.04108068719506264,1.4159092903137207,0.07147123664617538
1761132340674668500,1.30866845703125,-0.31291571259498596,1.8960493803024292,-0.07330382615327835
1761132340684668400,1.31866845703125,-0.565203070640564,1.941253423690796,-0.18936823308467865
1761132340694669300,1.32866943359375,-0.7313584089279175,1.7079029083251953,-0.22907446324825287
1761132340704669400,1.33866943359375,-0.8321511745452881,1.304731845855713,-0.22846360504627228
1761132340714669300,1.34866943359375,-0.9133962392807007,0.8233699798583984,-0.2565633952617645
1761132340724669400,1.35866943359375,-0.9830349087715149,0.33284521102905273,-0.2926044464111328
1761132340734668500,1.36866845703125,-1.0306823253631592,-0.11614075303077698,-0.2974913716316223
1761132340744667600,1.378667724609375,-1.0752755403518677,-0.4948772192001343,-0.2376265823841095
1761132340754667000,1.3886669921875,-1.144914150238037,-0.7404450178146362,-0.11178833991289139
1761132340764666600,1.39866650390625,-1.2072224617004395,-0.8345182538032532,0.036041051149368286
1761132340774666000,1.408666015625,-1.2414308786392212,-0.8161923289299011,0.17531833052635193
1761132340784665600,1.41866552734375,-1.2475395202636719,-0.7410559058189392,0.3084869384765625
1761132340794664700,1.428664794921875,-1.2365440130233765,-0.6451500654220581,0.4795292317867279
1761132340804664000,1.4386640625,-1.202946424484253,-0.5431355834007263,0.7220427393913269
1761132340814664000,1.448663818359375,-1.1485793590545654,-0.45211663842201233,1.037249207496643
1761132340824664000,1.4586640625,-1.0642799139022827,-0.3928627073764801,1.397048830986023
1761132340834664000,1.468663818359375,-0.9549350738525391,-0.3366630971431732,1.750128984451294
1761132340844663300,1.478663330078125,-0.8345946669578552,-0.22426390647888184,2.0531179904937744
1761132340854663400,1.488663330078125,-0.6653849482536316,-0.0342848114669323,2.288912057876587
1761132340864663300,1.498663330078125,-0.4534147381782532,0.09521862119436264,2.3414463996887207
1761132340874663400,1.508663330078125,-0.3312416672706604,0.13675746321678162,2.147191286087036
1761132340884663300,1.518663330078125,-0.36483925580978394,0.1178206354379654,1.9113973379135132
1761132340894664200,1.528664306640625,-0.4674646258354187,0.06834054738283157,1.5888605117797852
1761132340904664000,1.5386640625,-0.6293439269065857,0.032299499958753586,1.160033106803894
1761132340918075600,1.55207568359375,-0.8309294581413269,0.02557998150587082,0.6261368989944458
1761132340928075500,1.562075439453125,-1.0294606685638428,0.0671188160777092,0.03420845419168472
1761132340938075400,1.572075439453125,-1.1864529848098755,0.11354457587003708,-0.5375614166259766
1761132340948075500,1.582075439453125,-1.2811371088027954,0.12392928451299667,-1.0201449394226074
1761132340958075600,1.59207568359375,-1.306793451309204,0.10682506114244461,-1.3732250928878784
1761132340968074800,1.60207470703125,-1.2469286918640137,0.08055785298347473,-1.5894713401794434
1761132340978073900,1.612073974609375,-1.1204795837402344,0.038408152759075165,-1.6780468225479126
1761132340988073000,1.622072998046875,-0.9524916410446167,-0.00557414535433054,-1.63467538356781
1761132340998072000,1.632072021484375,-0.7545713186264038,-0.06727153807878494,-1.4892895221710205
1761132341008071200,1.6420712890625,-0.5597052574157715,-0.13813190162181854,-1.2877039909362793
1761132341018070300,1.6520703125,-0.3666718602180481,-0.24014639854431152,-1.0848966836929321
1761132341028069400,1.6620693359375,-0.21212296187877655,-0.3580434024333954,-0.8833111524581909
1761132341038069500,1.672069580078125,-0.07467827945947647,-0.4191299080848694,-0.66584312915802
1761132341048069400,1.6820693359375,0.0933096632361412,-0.44661885499954224,-0.4948008358478546
1761132341058069000,1.692069091796875,0.3052799105644226,-0.4893794059753418,-0.4343251883983612
1761132341068068600,1.702068603515625,0.528245747089386,-0.5241987109184265,-0.45692721009254456
1761132341078068200,1.712068115234375,0.7414376735687256,-0.5235878825187683,-0.5009095072746277
1761132341088067800,1.72206787109375,0.8831584453582764,-0.6372088193893433,-0.637132465839386
1761132341098067700,1.732067626953125,0.9381362795829773,-0.7630470395088196,-0.7226535677909851
1761132341108067600,1.742067626953125,0.9161451458930969,-0.8705593347549438,-0.6939429044723511
1761132341118066700,1.752066650390625,0.8636107444763184,-0.8467355966567993,-0.5852088928222656
1761132341128065800,1.762065673828125,0.7658722996711731,-0.7129560708999634,-0.5027421116828918
1761132341138065000,1.77206494140625,0.6137668490409851,-0.5541311502456665,-0.5742133259773254
1761132341148064800,1.782064697265625,0.4280638098716736,-0.5156466364860535,-0.8136724829673767
1761132341158063900,1.79206396484375,0.2405281960964203,-0.4844925105571747,-1.129489779472351
1761132341168063000,1.80206298828125,0.07131851464509964,-0.5052618980407715,-1.5063936710357666
1761132341178062000,1.81206201171875,-0.04108068719506264,-0.8106945157051086,-1.8448129892349243
1761132341188061200,1.822061279296875,-0.041691552847623825,-1.3940708637237549,-1.938886284828186
1761132341198060300,1.832060302734375,0.004734205547720194,-1.9071975946426392,-1.6413949728012085
1761132341208059400,1.842059326171875,0.060933809727430344,-1.5034157037734985,-0.8704829812049866
1761132341218058500,1.85205859375,0.2344195395708084,-0.1356884390115738,-0.02626720629632473
1761132341228057600,1.8620576171875,0.6516404747962952,1.7445547580718994,0.5400048494338989
1761132341238056700,1.872056640625,1.1507173776626587,3.348686933517456,0.8032878041267395
1761132341248055800,1.882055908203125,1.429271936416626,4.5087199211120605,0.9896016716957092
1761132341258056000,1.892055908203125,1.5105170011520386,5.090263843536377,1.1545352935791016
1761132341268056600,1.902056640625,1.5428929328918457,5.081711769104004,1.29381263256073
1761132341278057500,1.912057373046875,1.516014814376831,4.657771110534668,1.4789047241210938
1761132341288058400,1.922058349609375,1.4268285036087036,3.968104362487793,1.6829338073730469
1761132341298059300,1.932059326171875,1.3089314699172974,3.178866386413574,1.8643606901168823
1761132341308060200,1.94206005859375,1.1275044679641724,2.4391086101531982,1.9309450387954712
1761132341318061000,1.95206103515625,0.8843801617622375,1.9638553857803345,1.7818939685821533
1761132341328061700,1.962061767578125,0.5679519772529602,1.8496235609054565,1.3756685256958008
1761132341338062600,1.9720625,-0.23167064785957336,1.7543286085128784,0.36590829491615295
1761132341348063500,1.9820634765625,-0.8468119502067566,1.6914094686508179,-0.22418753802776337
1761132341358064400,1.992064453125,-1.3391693830490112,1.6199382543563843,-0.6218608021736145
1761132341368064800,2.002064697265625,-1.656819224357605,1.4415656328201294,-0.8680394887924194
1761132341378065000,2.01206494140625,-1.761277198791504,1.1953868865966797,-0.9334021210670471
1761132341388065000,2.02206494140625,-1.651321530342102,1.007851243019104,-0.8142833709716797
1761132341398065200,2.032065185546875,-1.3892602920532227,0.8985064029693604,-0.5821545720100403
1761132341408066000,2.042066162109375,-1.0667234659194946,0.8258134722709656,-0.29016098380088806
1761132341418067000,2.05206689453125,-0.7350236177444458,0.7213554978370667,0.04948008432984352
1761132341428067800,2.06206787109375,-0.40943244099617004,0.5802456140518188,0.4398229718208313
1761132341438068700,2.07206884765625,-0.10461067408323288,0.42752930521965027,0.8491026759147644
1761132341448069400,2.0820693359375,0.18127426505088806,0.27053695917129517,1.2424999475479126
1761132341458070300,2.0920703125,0.4622722864151001,0.08422304689884186,1.588249683380127
1761132341468071200,2.1020712890625,0.737772524356842,-0.11369729042053223,1.8558086156845093
1761132341478072000,2.112072021484375,0.9723447561264038,-0.306730717420578,2.006692409515381
1761132341488073000,2.122072998046875,1.1537717580795288,-0.47105345129966736,2.0030272006988525
1761132341498073900,2.132073974609375,1.2826642990112305,-0.5498550534248352,1.929112434387207
1761132341508074800,2.14207470703125,1.3382530212402344,-0.5700136423110962,1.8136589527130127
1761132341518075600,2.15207568359375,1.3406964540481567,-0.5571854710578918,1.6658295392990112
1761132341528076500,2.16207666015625,1.2893837690353394,-0.5382486581802368,1.4960089921951294
1761132341538077400,2.172077392578125,1.1494957208633423,-0.5468007326126099,1.2803735733032227
1761132341548078000,2.182078125,0.954018771648407,-0.6005569100379944,1.0250319242477417
1761132341558078200,2.192078125,0.7231117486953735,-0.6475934982299805,0.7318165898323059
1761132341568077600,2.20207763671875,0.355981707572937,-0.6604216694831848,0.24190263450145721
1761132341578077700,2.21207763671875,0.11591167747974396,-0.6231589317321777,-0.09712757170200348
1761132341588077800,2.222077880859375,-0.09666942805051804,-0.5370268821716309,-0.4202753007411957
1761132341598077000,2.232076904296875,-0.27748554944992065,-0.4472297132015228,-0.6994407176971436
1761132341608076800,2.242076904296875,-0.41004329919815063,-0.38736492395401,-0.9199630618095398
1761132341618077000,2.252076904296875,-0.4931209683418274,-0.33483052253723145,-1.0708467960357666
1761132341628076800,2.262076904296875,-0.5419901609420776,-0.32566753029823303,-1.1673635244369507
1761132341638077000,2.272076904296875,-0.5615378618240356,-0.32444581389427185,-1.2064588069915771
1761132341648076800,2.282076904296875,-0.5584835410118103,-0.29390254616737366,-1.1905763149261475
1761132341668077600,2.30207763671875,-0.4815145432949066,-0.2212095707654953,-1.0580185651779175
1761132341678078200,2.312078125,-0.351400226354599,-0.1454622894525528,-0.9346238374710083
1761132341688078800,2.322078857421875,-0.15653422474861145,-0.019624045118689537,-0.8038986921310425
1761132341698079700,2.332079833984375,0.06276640295982361,0.06101016700267792,-0.7189884185791016
1761132341708079600,2.34207958984375,0.265573650598526,0.056123245507478714,-0.7507534027099609
1761132341718079700,2.352079833984375,0.41462478041648865,0.011530081741511822,-0.9425650835037231
1761132341728079600,2.36207958984375,0.4360050559043884,-0.009239336475729942,-1.2663236856460571
1761132341738079700,2.372079833984375,0.28756481409072876,0.018249599263072014,-1.6420058012008667
1761132341748079600,2.38207958984375,0.0633772686123848,0.06528622657060623,-1.9346102476119995
1761132341758079500,2.39207958984375,-0.04657847434282303,0.1422552466392517,-1.9932533502578735
1761132341768079400,2.402079345703125,-0.00931569468230009,0.4018729627132416,-1.7311921119689941
1761132341778079500,2.41207958984375,0.16111570596694946,0.7360162734985352,-1.4856243133544922
1761132341788079400,2.422079345703125,0.46593746542930603,1.1343003511428833,-1.4666874408721924
1761132341798078700,2.43207861328125,0.38469240069389343,1.4660001993179321,-1.2858713865280151
1761132341808078600,2.44207861328125,0.265573650598526,-0.35010215640068054,-1.4776830673217773
1761132341818078700,2.45207861328125,0.08048149943351746,-2.8729755878448486,-1.7763961553573608
1761132341828078600,2.46207861328125,-0.10399980843067169,-4.979849815368652,-1.7971655130386353
1761132341838078700,2.47207861328125,-0.058184914290905,-5.437387943267822,-1.557706356048584
1761132341848078600,2.48207861328125,0.022449297830462456,-4.301789283752441,-1.083064079284668
1761132341858078500,2.492078369140625,0.3572034537792206,-2.276771068572998,-0.6701191663742065
1761132341868079000,2.5020791015625,0.7066183686256409,-0.30489811301231384,-0.1918116807937622
1761132341878079200,2.512079345703125,0.8752171993255615,0.7671703696250916,0.24495697021484375
1761132341888079000,2.5220791015625,0.851393461227417,0.7292967438697815,0.5974262356758118
1761132341898080000,2.532080078125,0.6815729141235352,0.2583196461200714,0.950506329536438
1761132341908079900,2.542079833984375,0.5398521423339844,-0.09353873878717422,1.2705997228622437
1761132341918080000,2.552080078125,0.34865134954452515,-0.1308015137910843,1.379333734512329
1761132341928080100,2.562080078125,0.12263119965791702,0.08788824081420898,1.1734721660614014
1761132341938080000,2.572080078125,-0.22739458084106445,0.4244749844074249,0.7067710757255554
1761132341948079900,2.582079833984375,-0.7716755270957947,0.7256315350532532,0.1362229436635971
1761132341958080000,2.592080078125,-1.449125051498413,1.1159744262695312,-0.35613444447517395
1761132341968079400,2.602079345703125,-2.023949384689331,1.760437250137329,-0.6285803318023682
1761132341978078500,2.612078369140625,-2.208430528640747,2.474538803100586,-0.6603453159332275
1761132341988077600,2.62207763671875,-1.9634735584259033,2.8593838214874268,-0.45875978469848633
1761132341998076700,2.63207666015625,-1.4509576559066772,2.759812831878662,0.00427605677396059
1761132342008075800,2.64207568359375,-0.8944594264030457,2.1910972595214844,0.6676757335662842
1761132342018075000,2.652074951171875,-0.44852781295776367,1.2509756088256836,1.4581353664398193
1761132342028074200,2.66207421875,-0.1736384481191635,0.33284521102905273,2.141082763671875
1761132342038073300,2.6720732421875,0.025503624230623245,-0.5138140320777893,2.629774808883667
1761132342048072400,2.682072509765625,0.11102475970983505,-0.6414848566055298,2.5442538261413574
1761132342058071800,2.69207177734375,0.10674870014190674,-0.5803983211517334,2.1679606437683105
1761132342068071000,2.70207080078125,0.05054909735918045,-0.37453675270080566,1.5845844745635986
1761132342078070800,2.71207080078125,0.07681630551815033,-0.08193229883909225,1.0421360731124878
1761132342088071000,2.72207080078125,-0.0032070425804704428,0.15202908217906952,0.5558874011039734
1761132342098071600,2.732071533203125,-0.11988230794668198,0.24488060176372528,0.14233160018920898
1761132342108071700,2.74207177734375,-0.22189679741859436,0.2882520258426666,-0.11728613078594208
1761132342118071600,2.752071533203125,-0.361174076795578,0.18012888729572296,-0.27122417092323303
1761132342128071700,2.76207177734375,-0.4827362596988678,-0.10209085047245026,-0.384845107793808
1761132342138071600,2.772071533203125,-0.5102251768112183,-0.4240168333053589,-0.5057964324951172
1761132342148071700,2.78207177734375,-0.4570799171924591,-0.6750824451446533,-0.6243042945861816
1761132342158072300,2.792072265625,-0.33857205510139465,-0.8216901421546936,-0.7061602473258972
1761132342168071400,2.802071533203125,-0.1840231567621231,-0.8864418268203735,-0.7232644557952881
1761132342178071600,2.812071533203125,-0.014813481830060482,-0.9230937361717224,-0.6805039048194885
1761132342188071700,2.82207177734375,0.14034628868103027,-0.9322566986083984,-0.5955936312675476
1761132342198070800,2.83207080078125,0.275347501039505,-0.9053786396980286,-0.48685958981513977
1761132342208070700,2.842070556640625,0.38835757970809937,-0.8540659546852112,-0.3982841372489929
1761132342218070500,2.852070556640625,0.46471574902534485,-0.7514405846595764,-0.3219259977340698
1761132342228070700,2.862070556640625,0.48487427830696106,-0.6390414237976074,-0.2620611786842346
1761132342238070800,2.87207080078125,0.46043968200683594,-0.5871178507804871,-0.23029619455337524
1761132342248070700,2.882070556640625,0.4231768846511841,-0.5785657167434692,-0.24617868661880493
1761132342258070500,2.892070556640625,0.3718642294406891,-0.5522985458374023,-0.31459560990333557
1761132342268071200,2.9020712890625,0.2612976133823395,-0.4673882722854614,-0.47830748558044434
1761132342278072000,2.912072021484375,0.15012013912200928,-0.4289037585258484,-0.608421802520752
1761132342288073000,2.922072998046875,0.027947084978222847,-0.41546472907066345,-0.7556403279304504
1761132342298073900,2.932073974609375,-0.07467827945947647,-0.3934735655784607,-0.8747590184211731
1761132342308074800,2.94207470703125,-0.15347988903522491,-0.40569087862968445,-0.9456194043159485
1761132342318076000,2.952075927734375,-0.2243402600288391,-0.4631122052669525,-0.9841039180755615
1761132342328076500,2.96207666015625,-0.28848111629486084,-0.5070945024490356,-1.0012081861495972
1761132342338077400,2.972077392578125,-0.3465133011341095,-0.510759711265564,-1.0335839986801147
1761132342348078300,2.982078369140625,-0.37950003147125244,-0.42707115411758423,-1.0610729455947876
1761132342358079200,2.992079345703125,-0.3507893681526184,-0.27435484528541565,-1.0610729455947876
1761132342368079400,3.002079345703125,-0.2561052441596985,-0.14240795373916626,-1.0403034687042236
1761132342378079500,3.01207958984375,-0.1137736514210701,0.018249599263072014,-0.930347740650177
1761132342388079400,3.022079345703125,0.03833179548382759,0.19967657327651978,-0.7428121566772461
1761132342398078500,3.032078369140625,0.08903361111879349,0.31085404753685,-0.5772676467895508
1761132342408078600,3.04207861328125,0.004123340360820293,0.28275424242019653,-0.543059229850769
1761132342418078500,3.052078369140625,-0.09911288321018219,0.08910996466875076,-0.6670648455619812
1761132342428078600,3.06207861328125,-0.09972374886274338,-0.15767958760261536,-0.837496280670166
1761132342438078700,3.07207861328125,0.05054909735918045,-0.29390254616737366,-0.9071348905563354
1761132342448078600,3.08207861328125,0.3462078869342804,-0.33483052253723145,-0.8069530129432678
1761132342458078000,3.092077880859375,0.6620252132415771,-0.549244225025177,-0.646295428276062
1761132342468078600,3.10207861328125,0.8495608568191528,-0.9200394153594971,-0.42149701714515686
1761132342478078700,3.11207861328125,0.9240863919258118,-1.1173489093780518,-0.054367005825042725
1761132342488078600,3.12207861328125,1.0261008739471436,-0.9444740414619446,0.29626965522766113
1761132342498079500,3.13207958984375,1.2563971281051636,0.15202908217906952,0.7550294399261475
1761132342508079400,3.142079345703125,1.1580477952957153,0.9296605587005615,1.0561859607696533
1761132342518079500,3.15207958984375,0.8043568134307861,1.3481032848358154,1.2589932680130005
1761132342528079600,3.16207958984375,0.375529408454895,1.362153172492981,1.23394775390625
1761132342538079500,3.17207958984375,-0.05757404863834381,1.1422415971755981,1.036027431488037
1761132342548079600,3.18207958984375,-0.4283692538738251,0.772057294845581,0.8203920125961304
1761132342558079500,3.19207958984375,-0.6653849482536316,0.25526532530784607,0.6395758986473083
1761132342568079600,3.20207958984375,-0.7606799602508545,-0.36476290225982666,0.5222898125648499
1761132342578079500,3.21207958984375,-0.8290968537330627,-0.8986591100692749,0.4746423065662384
1761132342588078800,3.222078857421875,-0.9824240207672119,-1.1204031705856323,0.44287729263305664
1761132342598078000,3.232077880859375,-1.2432634830474854,-0.9353110194206238,0.39095374941825867
1761132342608078000,3.242078125,-1.507768154144287,-0.3665955066680908,0.47708576917648315
1761132342618078000,3.252077880859375,-1.6922494173049927,0.47395506501197815,0.5619960427284241
1761132342628078000,3.262078125,-1.716684103012085,1.2723559141159058,0.5571091175079346
1761132342638078000,3.272077880859375,-1.3862059116363525,1.818469524383545,0.5534439086914062
1761132342648078000,3.282078125,-0.8938485980033875,1.7647132873535156,0.5357288122177124
1761132342658078000,3.292077880859375,-0.38866302371025085,1.2112693786621094,0.6884451508522034
1761132342668078600,3.30207861328125,0.06154467165470123,0.41775545477867126,0.998153805732727
1761132342678078700,3.31207861328125,0.4066835343837738,-0.2920699417591095,1.3249666690826416
1761132342688078600,3.32207861328125,0.6583600044250488,-0.709901750087738,1.5326608419418335
1761132342698079500,3.33207958984375,0.803135097026825,-0.7538840770721436,1.547932505607605
1761132342708079600,3.34207958984375,0.8385652899742126,-0.48693597316741943,1.3439035415649414
1761132342718079500,3.35207958984375,0.7921395301818848,-0.07276932150125504,0.9816604256629944
1761132342728079600,3.36207958984375,0.6174320578575134,0.481896311044693,0.2877175211906433
1761132342738079500,3.37207958984375,0.47448956966400146,0.6413321495056152,-0.13500121235847473
1761132342748079600,3.38207958984375,0.32910364866256714,0.6022367477416992,-0.4239404797554016
1761132342758079500,3.39207958984375,0.18555031716823578,0.40859249234199524,-0.5907067060470581
1761132342768078800,3.402078857421875,0.03833179548382759,0.15141822397708893,-0.6768386960029602
1761132342778079000,3.412078857421875,-0.08750644326210022,-0.026343563571572304,-0.7006624341011047
1761132342788078800,3.422078857421875,-0.14553864300251007,-0.05994115397334099,-0.7049384713172913
1761132342798078200,3.432078125,-0.13759739696979523,0.0671188160777092,-0.6829473376274109
1761132342808078000,3.442078125,-0.06551529467105865,0.2754238545894623,-0.6438519954681396
1761132342818078000,3.452077880859375,0.057879481464624405,0.4617377817630768,-0.5858197808265686
1761132342828078000,3.462078125,0.20570887625217438,0.5661957263946533,-0.4893030524253845
1761132342838078000,3.472077880859375,0.34804046154022217,0.5545892715454102,-0.3585779070854187
1761132342848078000,3.482078125,0.5068654417991638,0.4562399685382843,-0.2223549485206604
1761132342858078000,3.492077880859375,0.6956228017807007,0.3059671223163605,-0.0757472887635231
1761132342868078000,3.502078125,0.9063712954521179,0.0970512181520462,0.08552113175392151
1761132342878078000,3.512077880859375,1.1598803997039795,-0.12774719297885895,0.26450464129447937
1761132342888078600,3.52207861328125,1.3822352886199951,-0.3220023512840271,0.4239404797554016
1761132342898079500,3.53207958984375,1.5184582471847534,-0.4741078019142151,0.5375614166259766
1761132342908079600,3.54207958984375,1.591151237487793,-0.5700136423110962,0.588263213634491
1761132342918079500,3.55207958984375,1.571603536605835,-0.6469826698303223,0.5571091175079346
1761132342928079600,3.56207958984375,1.4311045408248901,-0.643317461013794,0.46364670991897583
1761132342938079500,3.57207958984375,1.1812607049942017,-0.5437464118003845,0.24617868661880493
1761132342948079600,3.58207958984375,0.8587238192558289,-0.3818671405315399,-0.10812314599752426
1761132342958079700,3.592079833984375,0.31383201479911804,-0.055665094405412674,-0.7556403279304504
1761132342968078800,3.602078857421875,-0.04902193695306778,0.16180293262004852,-1.091616153717041
1761132342978078200,3.612078125,-0.33857205510139465,0.33651039004325867,-1.2736539840698242
1761132342988077300,3.622077392578125,-0.5083925724029541,0.3847687542438507,-1.3261884450912476
1761132342998076400,3.632076416015625,-0.5603161454200745,0.25648704171180725,-1.273043155670166
1761132343008075500,3.642075439453125,-0.5059491395950317,0.03474296256899834,-1.111163854598999
1761132343018074600,3.65207470703125,-0.41431936621665955,-0.14668402075767517,-0.8319984674453735
1761132343028073700,3.66207373046875,-0.34956762194633484,-0.3665955066680908,-0.5516113042831421
1761132343038072800,3.67207275390625,-0.3312416672706604,-0.429514616727829,-0.323147714138031
1761132343048072000,3.682072021484375,-0.42531493306159973,-0.28412869572639465,-0.2272418737411499
1761132343058071000,3.692071044921875,-0.593913733959198,-0.12286027520895004,-0.3854559659957886
1761132343068071000,3.70207080078125,-0.8223773241043091,-0.1863902509212494,-0.8619308471679688
1761132343078070000,3.712070068359375,-1.072221279144287,-0.36964982748031616,-1.3927727937698364
1761132343088070000,3.72206982421875,-1.2078332901000977,-0.5535202622413635,-1.7556266784667969
1761132343098070800,3.73207080078125,-1.1302534341812134,-0.7263951301574707,-1.8686367273330688
1761132343108071000,3.74207080078125,-0.7930558323860168,-0.8552877306938171,-1.6884315013885498
1761132343118070800,3.75207080078125,-0.3306308090686798,-0.7905359864234924,-1.2919800281524658
1761132343128071000,3.76207080078125,0.07498370856046677,-0.6164394021034241,-0.7269296646118164
1761132343138070800,3.77207080078125,0.3254384696483612,-0.5516876578330994,-0.152105450630188
1761132343148071000,3.78207080078125,0.3926336467266083,-0.6573673486709595,0.30970868468284607
1761132343158070800,3.79207080078125,0.3254384696483612,-0.7978663444519043,0.5393940210342407
1761132343168071000,3.80207080078125,0.11591167747974396,-0.8271878957748413,0.5992587804794312
1761132343178070800,3.81207080078125,-0.21334469318389893,-0.7740426063537598,0.5705481171607971
1761132343188071000,3.82207080078125,-0.9402743577957153,-0.39530616998672485,0.2883284091949463
1761132343198070300,3.8320703125,-1.5248724222183228,0.06528622657060623,-0.10873401165008545
1761132343208070100,3.842070068359375,-2.1003074645996094,0.5246568918228149,-0.6126978397369385
1761132343218070000,3.852070068359375,-2.568840980529785,0.8319221138954163,-1.0604621171951294
1761132343228070100,3.862070068359375,-2.808911085128784,0.9925796389579773,-1.2589932680130005
1761132343238070000,3.872070068359375,-2.778367757797241,1.0335075855255127,-1.1911872625350952
1761132343248070100,3.882070068359375,-2.5670084953308105,0.9889144897460938,-0.96883225440979
1761132343258070000,3.892070068359375,-2.331214427947998,0.7494552731513977,-0.7232644557952881
1761132343268070700,3.902070556640625,-2.0306687355041504,0.3157409727573395,-0.3891211748123169
1761132343278071600,3.912071533203125,-1.53525710105896,-0.06788240373134613,0.304210901260376
1761132343288072400,3.922072509765625,-0.8565858006477356,-0.3213914632797241,1.2357803583145142
1761132343298073300,3.9320732421875,-0.1742493063211441,-0.4179081916809082,2.10809588432312
1761132343308074200,3.94207421875,0.34437528252601624,-0.5822309255599976,2.699413537979126
1761132343318075100,3.9520751953125,0.7017314434051514,-0.8009206652641296,2.9553661346435547
1761132343328076000,3.962075927734375,0.9375254511833191,-1.0073931217193604,2.927877187728882
1761132343338077000,3.972076904296875,0.9998337030410767,-1.004949688911438,2.689028739929199
1761132343348077800,3.982077880859375,0.8856018781661987,-0.6689738035202026,2.2956316471099854
1761132343358078500,3.992078369140625,0.6436992287635803,-0.11858421564102173,1.788002610206604
1761132343368079400,4.002079345703125,0.3620903789997101,0.4159228801727295,1.2113457918167114
1761132343378080300,4.012080322265625,0.16172657907009125,0.8551349639892578,0.6682865619659424
1761132343388080400,4.022080322265625,0.09392052888870239,1.094594120979309,0.21563543379306793
1761132343398079500,4.03207958984375,0.1293507218360901,1.1196396350860596,-0.08796459436416626
1761132343408079400,4.042079345703125,0.22831088304519653,0.9608146548271179,-0.1869247704744339
1761132343418079500,4.05207958984375,0.37491855025291443,0.5552001595497131,-0.03420845419168472
1761132343428079400,4.062079345703125,0.3908010423183441,0.35789066553115845,0.15332718193531036
1761132343438079500,4.07207958984375,0.37369680404663086,0.24976752698421478,0.3182607889175415
1761132343448079400,4.082079345703125,0.3553708493709564,0.18684840202331543,0.40256020426750183
1761132343458079200,4.092079345703125,0.337044894695282,0.1636355221271515,0.40256020426750183
1761132343468079400,4.102079345703125,0.33460143208503723,0.16424639523029327,0.34574973583221436
1761132343478079200,4.112079345703125,0.36453384160995483,0.15202908217906952,0.2474004179239273
1761132343488079400,4.122079345703125,0.38957929611206055,0.12576188147068024,0.1270599663257599
1761132343498080000,4.132080078125,0.38408151268959045,0.10071640461683273,0.019547687843441963
1761132343508079900,4.142079833984375,0.3474296033382416,0.11476630717515945,-0.05009094998240471
1761132343518080000,4.152080078125,0.3162754774093628,0.17890715599060059,-0.08124507963657379
1761132343528080000,4.162079833984375,0.3248275816440582,0.2735912799835205,-0.09468411654233932
1761132343538080000,4.172080078125,0.3620903789997101,0.4018729627132416,-0.10934487730264664
1761132343548080000,4.182080078125,0.39874228835105896,0.49900054931640625,-0.1368338167667389
1761132343558080000,4.192080078125,0.44394633173942566,0.5362633466720581,-0.17104226350784302
1761132343568080000,4.202079833984375,0.4873177409172058,0.5154939293861389,-0.2076941877603531
1761132343578080000,4.212080078125,0.5117523670196533,0.45318564772605896,-0.251676470041275
1761132343588079900,4.222079833984375,0.4867068827152252,0.4000403881072998,-0.2883284091949463
1761132343598079200,4.232079345703125,0.41828998923301697,0.37255144119262695,-0.30970868468284607
1761132343608079000,4.2420791015625,0.35964691638946533,0.3499494194984436,-0.3023782968521118
1761132343618079000,4.252078857421875,0.375529408454895,0.33712124824523926,-0.3072652220726013
1761132343628079000,4.2620791015625,0.45982882380485535,0.3053562641143799,-0.35246923565864563
1761132343638079000,4.272078857421875,0.6046038866043091,0.2699260711669922,-0.3634648323059082
1761132343648079000,4.2820791015625,0.851393461227417,-0.012293662875890732,-0.3194825351238251
1761132343658079200,4.292079345703125,0.95462965965271,-0.2822960913181305,-0.21624629199504852
1761132343668079000,4.3020791015625,1.0059423446655273,-0.567570149898529,-0.024434609338641167
1761132343678079200,4.312079345703125,0.9857838153839111,-0.7874816656112671,0.182648703455925
1761132343688079000,4.3220791015625,0.8532260060310364,-1.0312168598175049,0.2669481039047241
1761132343698080000,4.332080078125,0.5795583724975586,-1.634751796722412,0.0024434609804302454
1761132343708080000,4.342080078125,0.12324206531047821,-2.611525297164917,-0.598647952079773
1761132343718080000,4.352080078125,-0.5242751240730286,-3.8130972385406494,-1.4666874408721924
1761132343728080100,4.362080078125,-1.2909109592437744,-4.798422813415527,-2.571131706237793
1761132343738080000,4.372080078125,-1.7973182201385498,-5.067203521728516,-3.581502914428711
1761132343748080000,4.382080078125,-1.6904168128967285,-4.144186019897461,-3.7507126331329346
1761132343758080000,4.392080078125,-0.9439395070075989,-2.8363237380981445,-2.8594601154327393
1761132343768080100,4.402080078125,-0.019089538604021072,-1.6555211544036865,-0.7281513810157776
1761132343778080000,4.412080078125,0.3914119005203247,-0.8070293664932251,1.9370536804199219
1761132343788080000,4.422080078125,0.15256360173225403,-0.477772980928421,3.7336084842681885
1761132343798079200,4.432079345703125,-0.27748554944992065,-0.5168683528900146,4.084856033325195
1761132343808079000,4.4420791015625,-0.6104071140289307,-0.377591073513031,3.441614866256714
1761132343818079200,4.452079345703125,-0.9873109459877014,-0.055665094405412674,2.3603832721710205
1761132343828079000,4.4620791015625,-1.5199854373931885,0.35727980732917786,1.3585642576217651
1761132343838079200,4.472079345703125,-1.9158260822296143,0.8300895094871521,0.6829473376274109
1761132343848079000,4.4820791015625,-1.9402607679367065,1.1306352615356445,0.3219259977340698
1761132343858079200,4.492079345703125,-1.704466700553894,1.1068115234375,0.21074850857257843
1761132343868079000,4.5020791015625,-1.4729487895965576,0.801989734172821,0.23396138846874237
1761132343878079200,4.512079345703125,-1.2267701625823975,0.31635183095932007,0.3219259977340698
1761132343888079000,4.5220791015625,-1.0954340696334839,0.14958561956882477,0.31642818450927734
1761132343898080000,4.532080078125,-0.9720393419265747,0.1624137908220291,0.35063666105270386
1761132343908080000,4.542080078125,-0.8663596510887146,0.2289981096982956,0.5723807215690613
1761132343918080000,4.552080078125,-0.7582364678382874,0.31207579374313354,1.0231993198394775
1761132343928080100,4.562080078125,-0.6953173875808716,0.31818443536758423,1.547932505607605
1761132343938080000,4.572080078125,-0.7050912380218506,0.2534327208995819,1.9217820167541504
1761132343948080000,4.582080078125,-0.7441865801811218,0.04268420860171318,1.8918496370315552
1761132343958080000,4.592080078125,-0.6574437022209167,-0.13691017031669617,1.5558737516403198
1761132343968080100,4.602080078125,-0.47051894664764404,-0.22365303337574005,1.1258246898651123
1761132343978079200,4.612079345703125,-0.30741792917251587,-0.14424055814743042,0.7709119319915771
1761132343988078300,4.622078369140625,-0.22678372263908386,-0.015347989276051521,0.5754350423812866
1761132343998077400,4.632077392578125,-0.24694228172302246,0.07383833825588226,0.4905247986316681
1761132344008076500,4.64207666015625,-0.3300199508666992,0.17157678306102753,0.36224308609962463
1761132344018075600,4.65207568359375,-0.38988474011421204,0.2699260711669922,0.1264491081237793
1761132344028074800,4.66207470703125,-0.34956762194633484,0.3603341281414032,-0.2028072625398636
1761132344038073900,4.672073974609375,-0.20845776796340942,0.3151301145553589,-0.6133087277412415
1761132344048073000,4.682072998046875,-0.036193765699863434,0.1880701333284378,-0.9773843884468079
1761132344058072300,4.692072265625,0.09269879758358002,0.07872525602579117,-1.1771373748779297
1761132344068071400,4.702071533203125,0.11224649101495743,0.08300131559371948,-1.1905763149261475
1761132344078070800,4.71207080078125,0.05360342562198639,0.1825723499059677,-1.094059705734253
1761132344088070700,4.722070556640625,-0.02275473065674305,0.3157409727573395,-0.9938777685165405
1761132344098071600,4.732071533203125,-0.08811730891466141,0.45746171474456787,-0.9297369122505188
1761132344108071400,4.742071533203125,-0.128434419631958,0.5942955017089844,-0.8655960559844971
1761132344118071600,4.752071533203125,-0.17730364203453064,0.7164685726165771,-0.7458664774894714
1761132344128071400,4.762071533203125,-0.16752979159355164,0.6547712087631226,-0.6572909951210022
1761132344138071600,4.772071533203125,-0.17302757501602173,0.5130504369735718,-0.6340781450271606
1761132344148071700,4.78207177734375,-0.1889100819826126,0.3792709708213806,-0.6444628238677979
1761132344158071600,4.792071533203125,-0.1797471046447754,0.3004693388938904,-0.646295428276062
1761132344168071000,4.80207080078125,-0.13698652386665344,0.2393828183412552,-0.6493497490882874
1761132344178071000,4.812071044921875,-0.06612616032361984,0.18562667071819305,-0.6927211880683899
1761132344188071200,4.8220712890625,0.003512475173920393,0.09766208380460739,-0.7751879692077637
1761132344198070300,4.8320703125,0.05726861581206322,-0.029397889971733093,-0.8472700715065002
1761132344208070100,4.842070068359375,0.09575312584638596,-0.13446670770645142,-0.8857545852661133
1761132344218070000,4.852070068359375,0.13545936346054077,-0.2407572716474533,-0.9162978529930115
1761132344228070100,4.862070068359375,0.20570887625217438,-0.35926511883735657,-0.9523389339447021
1761132344238070000,4.872070068359375,0.3376557528972626,-0.5022075772285461,-0.9456194043159485
1761132344248070000,4.88206982421875,0.5251913666725159,-0.6555347442626953,-0.8881980776786804
1761132344258070000,4.892070068359375,0.7298312783241272,-0.8210792541503906,-0.8118399381637573
1761132344268070100,4.902070068359375,0.9057604670524597,-1.0025062561035156,-0.7232644557952881
1761132344278071000,4.912071044921875,1.0236574411392212,-1.168050765991211,-0.5845980644226074
1761132344288072000,4.922072021484375,1.0768027305603027,-1.3323734998703003,-0.32986724376678467
1761132344298072800,4.93207275390625,1.1030699014663696,-1.1478921175003052,0.08735372871160507
1761132344308073500,4.942073486328125,1.1574369668960571,-0.7471645474433899,0.39645153284072876
1761132344318074400,4.952074462890625,1.249066710472107,-0.4374558627605438,0.3640756905078888
1761132344328075300,4.9620751953125,1.3284791707992554,-0.3323870599269867,-0.025045474991202354
1761132344338076200,4.972076171875,1.2936599254608154,-0.7703774571418762,-0.750142514705658
1761132344348077000,4.9820771484375,0.9888381361961365,-2.5962536334991455,-1.6615535020828247
1761132344358078000,4.992077880859375,0.6113234162330627,-3.962148427963257,-1.6462818384170532
1761132344368078800,5.002078857421875,0.1647808998823166,-4.8179707527160645,-1.178359031677246
1761132344378079500,5.01207958984375,-0.06551529467105865,-4.849124908447266,-0.46181413531303406
1761132344388079600,5.02207958984375,0.10797043144702911,-4.09714937210083,0.22602014243602753
1761132344398078700,5.03207861328125,0.4634940028190613,-3.155806303024292,1.0005972385406494
1761132344408078600,5.04207861328125,0.5716171264648438,-2.2743277549743652,2.2003366947174072
1761132344418078700,5.05207861328125,0.3156646192073822,-1.861993670463562,3.5582900047302246
1761132344428078600,5.06207861328125,-0.13026700913906097,-1.755703091621399,4.687169075012207
1761132344438078700,5.07207861328125,-0.5566509366035461,-1.7416532039642334,5.446474552154541
1761132344448078600,5.08207861328125,-0.9017898440361023,-1.4924201965332031,5.654168605804443
1761132344458078700,5.09207861328125,-1.211498498916626,-0.9646325707435608,5.324301242828369
1761132344468079400,5.102079345703125,-1.4069753885269165,-0.32444581389427185,4.709771156311035
1761132344478079200,5.112079345703125,-1.5322027206420898,0.45379650592803955,4.115399360656738
1761132344488078600,5.12207861328125,-1.5370897054672241,1.0041861534118652,3.5998289585113525
1761132344498080300,5.132080322265625,-1.4020884037017822,1.3126730918884277,3.310889720916748
1761132344508080400,5.142080322265625,-1.182176947593689,1.511815071105957,3.293785333633423
1761132344518080300,5.152080322265625,-0.8840747475624084,1.5631277561187744,3.4831535816192627
1761132344528080400,5.162080322265625,-0.5963571667671204,1.521588921546936,3.8179078102111816
1761132344538080300,5.172080322265625,-0.3654501438140869,1.4464524984359741,4.17526388168335
1761132344548080400,5.182080322265625,-0.2646573781967163,1.31206214427948,4.398229598999023
1761132344558080300,5.192080322265625,-0.30925053358078003,1.1178070306777954,4.386012554168701
1761132344568080400,5.202080322265625,-0.47418415546417236,0.9864709973335266,4.009108543395996
1761132344578080300,5.212080322265625,-0.8107708692550659,0.9003390073776245,2.7849347591400146
1761132344588080000,5.222080078125,-0.9231700897216797,0.9455430507659912,1.8191566467285156
1761132344598079200,5.232079345703125,-0.9402743577957153,1.0359511375427246,0.9126327037811279
1761132344608079400,5.242079345703125,-0.9146180152893066,1.0719921588897705,0.10384709388017654
1761132344618079200,5.252079345703125,-0.8523097038269043,1.0671051740646362,-0.5626068711280823
1761132344628079400,5.262079345703125,-0.7869471311569214,1.0225120782852173,-1.062294602394104
1761132344638079200,5.272079345703125,-0.736245334148407,0.8752935528755188,-1.4196507930755615
1761132344648079400,5.282079345703125,-0.7008151412010193,0.6737080216407776,-1.6676621437072754
1761132344658079200,5.292079345703125,-0.6482807397842407,0.5319872498512268,-1.8020524978637695
1761132344668079400,5.302079345703125,-0.5737552046775818,0.43852490186691284,-1.8887953758239746
1761132344678078500,5.312078369140625,-0.4735732674598694,0.39759692549705505,-1.9798142910003662
1761132344688078600,5.32207861328125,-0.33307427167892456,0.39271000027656555,-2.116037130355835
1761132344698079500,5.33207958984375,-0.16264286637306213,0.4153120219707489,-2.3127357959747314
1761132344708079600,5.34207958984375,-0.0019853119738399982,0.42936190962791443,-2.5387558937072754
1761132344718079500,5.35207958984375,0.12568552792072296,0.36338844895362854,-2.729956865310669
1761132344728079600,5.36207958984375,0.22892175614833832,0.2906954884529114,-2.7898216247558594
1761132344738079500,5.37207958984375,0.3364340364933014,0.24976752698421478,-2.7262916564941406
1761132344748079600,5.38207958984375,0.42562034726142883,0.1837940812110901,-2.5662448406219482
1761132344758080000,5.392080078125,0.48548516631126404,0.1269836127758026,-2.3206770420074463
1761132344768080000,5.402079833984375,0.5001459121704102,0.03474296256899834,-2.040289878845215
1761132344778080000,5.412080078125,0.4763221740722656,-0.0697149932384491,-1.7647897005081177
1761132344788080600,5.42208056640625,0.4573853611946106,-0.1802816092967987,-1.5357152223587036
1761132344798079000,5.432078857421875,0.447000652551651,-0.28412869572639465,-1.3799445629119873
1761132344808079000,5.4420791015625,0.46960264444351196,-0.46555566787719727,-1.2956452369689941
1761132344818079000,5.452078857421875,0.5190827250480652,-0.5858961343765259,-1.3536773920059204
1761132344828079000,5.4620791015625,0.5923865437507629,-0.6549239158630371,-1.503339409828186
1761132344838079000,5.472078857421875,0.6730207800865173,-0.6689738035202026,-1.7134770154953003
1761132344848079000,5.4820791015625,0.7237225770950317,-0.5828418135643005,-1.955379605293274
1761132344858079000,5.492078857421875,0.7316638231277466,-0.40141481161117554,-2.205223560333252
1761132344868079000,5.5020791015625,0.7225008606910706,-0.19799669086933136,-2.4074199199676514
1761132344878079000,5.512078857421875,0.7353290319442749,-0.17783814668655396,-2.484999895095825
1761132344888079000,5.5220791015625,0.7793113589286804,-0.23464861512184143,-2.3542747497558594
1761132344898080000,5.532080078125,0.8538368940353394,-0.2761874496936798,-2.02929425239563
1761132344908079900,5.542079833984375,0.9051495790481567,-0.24442245066165924,-1.6169602870941162
1761132344918080000,5.552080078125,0.8904888033866882,-0.15706872940063477,-1.2638801336288452
1761132344928080000,5.562079833984375,0.9075930118560791,0.010919216088950634,-1.0757336616516113
1761132344938080000,5.572080078125,1.0572550296783447,0.137979194521904,-1.1166616678237915
1761132344948079900,5.582079833984375,1.2399036884307861,0.22472205758094788,-1.3524556159973145
1761132344958080000,5.592080078125,1.232573390007019,0.13431400060653687,-1.7562376260757446
1761132344968080000,5.602079833984375,0.9124799370765686,-0.5956699848175049,-2.3518311977386475
1761132344978079700,5.612079833984375,0.5306891798973083,-1.6182583570480347,-2.892446994781494
1761132344988078800,5.622078857421875,0.34376442432403564,-2.603584051132202,-2.85274076461792
1761132344998078200,5.632078125,0.417679101228714,-3.323183298110962,-2.024407386779785
1761132345008077300,5.642077392578125,0.6436992287635803,-2.669557571411133,-0.607810914516449
1761132345018076400,5.652076416015625,0.7194465398788452,-1.2108112573623657,0.665232241153717
1761132345028075500,5.662075439453125,0.5905539989471436,0.8612436652183533,1.6169602870941162
1761132345038074600,5.67207470703125,0.4818199574947357,2.1385629177093506,1.557706356048584
1761132345048073700,5.68207373046875,-0.02825251780450344,3.0536389350891113,0.7342600226402283
1761132345058072300,5.692072265625,-0.4124867618083954,3.1623730659484863,0.24862214922904968
1761132345068071700,5.70207177734375,-0.622013509273529,3.0799062252044678,0.04153883829712868
1761132345078070500,5.712070556640625,-0.5597052574157715,2.7659213542938232,0.14294247329235077
1761132345088069600,5.722069580078125,-0.2591595947742462,2.382909059524536,0.39584067463874817
1761132345098069800,5.73206982421875,0.14828753471374512,2.0823633670806885,0.8283332586288452
1761132345108069000,5.742069091796875,0.46593746542930603,1.7305048704147339,1.3127493858337402
1761132345118068500,5.752068359375,0.5484042763710022,1.5502996444702148,1.7812830209732056
1761132345128068400,5.762068359375,0.38957929611206055,1.6394859552383423,2.185675859451294
1761132345138068500,5.772068359375,0.19837848842144012,1.8496235609054565,2.5027148723602295
1761132345148068400,5.782068359375,0.10002918541431427,1.962633728981018,2.707354784011841
1761132345158068500,5.792068359375,0.1036943718791008,1.9449186325073242,2.8014280796051025
1761132345168068600,5.802068603515625,0.1495092660188675,1.7744871377944946,2.791654109954834
1761132345178068500,5.812068359375,0.18555031716823578,1.4995977878570557,2.685974597930908
1761132345188068600,5.822068603515625,0.1739438772201538,1.1312460899353027,2.447736978530884
1761132345198067700,5.832067626953125,0.09453139454126358,0.7989353537559509,2.093435287475586
1761132345208067600,5.842067626953125,-0.04352414980530739,0.7060838937759399,1.6798794269561768
1761132345218067700,5.852067626953125,-0.20723603665828705,0.7378488779067993,1.2333369255065918
1761132345228067600,5.862067626953125,-0.4124867618083954,0.7958810329437256,0.8026769161224365
1761132345238067500,5.8720673828125,-0.6666067242622375,0.8997281193733215,0.45631635189056396
1761132345248067600,5.882067626953125,-0.9054549932479858,0.9938014149665833,0.1814269721508026
1761132345258067500,5.8920673828125,-1.0716103315353394,1.0597748756408691,-0.07208210229873657
1761132345268067600,5.902067626953125,-1.1687378883361816,1.0652726888656616,-0.45692721009254456
1761132345278068500,5.912068359375,-1.1699596643447876,0.9424887299537659,-0.6792821288108826
1761132345288069400,5.9220693359375,-1.144303321838379,0.7128033638000488,-0.8643743395805359
1761132345298070000,5.932070068359375,-1.1217013597488403,0.43302708864212036,-1.0097602605819702
1761132345308071000,5.94207080078125,-1.1045970916748047,0.18440493941307068,-1.1074986457824707
1761132345318071800,5.95207177734375,-1.0807733535766602,-0.010461067780852318,-1.1753047704696655
1761132345328072700,5.96207275390625,-1.0355693101882935,-0.1497383415699005,-1.2003501653671265
1761132345338073600,5.972073486328125,-0.9616546034812927,-0.22182044386863708,-1.1734721660614014
1761132345348074200,5.98207421875,-0.8529205918312073,-0.23770293593406677,-1.1282681226730347
1761132345358075100,5.9920751953125,-0.7154759168624878,-0.28412869572639465,-1.0836749076843262
1761132345368076000,6.002075927734375,-0.5664247870445251,-0.30550897121429443,-1.0525208711624146
1761132345378077000,6.012076904296875,-0.422871470451355,-0.4136321246623993,-1.062294602394104
1761132345388077800,6.022077880859375,-0.27870726585388184,-0.5516876578330994,-1.062294602394104
1761132345398078000,6.032077880859375,-0.13026700913906097,-0.7441102266311646,-1.0519099235534668
1761132345408078600,6.04207861328125,-0.00809396430850029,-0.9554696083068848,-1.0494664907455444
1761132345418079200,6.052079345703125,0.0682641938328743,-1.1032990217208862,-1.0415252447128296
1761132345428079400,6.062079345703125,0.10674870014190674,-1.185154914855957,-1.0109820365905762
1761132345438079200,6.072079345703125,0.1336267739534378,-1.1295661926269531,-0.9162978529930115
1761132345448079000,6.0820791015625,0.15806138515472412,-1.1124619245529175,-0.8161159753799438
1761132345458079200,6.092079345703125,0.1898263692855835,-1.2639565467834473,-0.7672467231750488
1761132345468079000,6.1020791015625,0.2857322096824646,-1.537013292312622,-0.7257078886032104
1761132345478079200,6.112079345703125,0.41890084743499756,-1.9524016380310059,-0.6188064813613892
1761132345488079000,6.1220791015625,0.5477933883666992,-2.387948513031006,-0.39706242084503174
1761132345498080000,6.132080078125,0.6094908118247986,-2.6353490352630615,0.15515977144241333
1761132345508079900,6.142079833984375,0.5129740834236145,-2.6164121627807617,0.4905247986316681
1761132345518080000,6.152080078125,0.3810271918773651,-2.6555075645446777,0.6389650702476501
1761132345528080100,6.162080078125,0.19654589891433716,-2.7825675010681152,0.5827654600143433
1761132345538080000,6.172080078125,-0.1241583600640297,-2.9487228393554688,0.2919935882091522
1761132345548080000,6.182080078125,-0.6482807397842407,-3.34578537940979,-0.41599923372268677
1761132345558080300,6.192080322265625,-1.2597568035125732,-4.2156572341918945,-1.5430456399917603
1761132345568080100,6.202080078125,-1.7295122146606445,-4.783151149749756,-2.576629638671875
1761132345578079500,6.21207958984375,-1.9585866928100586,-4.420907974243164,-2.9773571491241455
1761132345588079400,6.222079345703125,-1.8364136219024658,-3.083724021911621,-2.2565362453460693
1761132345598078700,6.23207861328125,-1.2915217876434326,-1.278617262840271,-0.684779942035675
1761132345608078600,6.24207861328125,-0.46990808844566345,0.4556291103363037,1.2162326574325562
1761132345618078700,6.25207861328125,0.20143280923366547,1.3603205680847168,2.7519478797912598
1761132345628078600,6.26207861328125,0.30711251497268677,1.5191454887390137,3.4355061054229736
1761132345638078700,6.27207861328125,-0.029474247246980667,1.4299591779708862,3.36708927154541
1761132345648078600,6.28207861328125,-0.43447789549827576,1.3829225301742554,2.7256808280944824
1761132345658078700,6.29207861328125,-0.7680103182792664,1.4470634460449219,1.7721201181411743
1761132345668078000,6.302078125,-0.9524916410446167,1.596725344657898,0.7629706859588623
1761132345678078000,6.312077880859375,-1.0349584817886353,1.7769306898117065,-0.16554448008537292
1761132345688078000,6.322078125,-1.0942124128341675,1.8386280536651611,-0.8863654732704163
1761132345698079000,6.332078857421875,-1.1284208297729492,1.7036267518997192,-1.303586483001709
1761132345708078800,6.342078857421875,-1.0642799139022827,1.4776066541671753,-1.3927727937698364
1761132345718079000,6.352078857421875,-0.8828529715538025,1.1752283573150635,-1.1771373748779297
1761132345728078800,6.362078857421875,-0.44364088773727417,0.9608146548271179,-0.3194825351238251
1761132345738079000,6.372078857421875,-0.09178250283002853,0.8734609484672546,0.40256020426750183
1761132345748078800,6.382078857421875,0.2197587788105011,0.7390705943107605,1.1215485334396362
1761132345758079000,6.392078857421875,0.46899178624153137,0.5448154211044312,1.7861700057983398
1761132345768078800,6.402078857421875,0.6467535495758057,0.32734742760658264,2.328007459640503
1761132345778078200,6.412078125,0.718224823474884,0.14653129875659943,2.688417911529541
1761132345788078300,6.422078369140625,0.6864598393440247,0.061621032655239105,2.8435776233673096
1761132345798077400,6.432077392578125,0.6052147150039673,0.055512379854917526,2.8264734745025635
1761132345808077300,6.442077392578125,0.5074763298034668,0.09338602423667908,2.6389379501342773
1761132345818077400,6.452077392578125,0.3223841190338135,0.14530956745147705,2.3206770420074463
1761132345828077300,6.462077392578125,-0.010537425056099892,0.2534327208995819,1.9272798299789429
1761132345838077400,6.472077392578125,-0.40515637397766113,0.4263075888156891,1.503339409828186
1761132345848077300,6.482077392578125,-0.7509061098098755,0.5399284958839417,1.0629055500030518
1761132345858077200,6.4920771484375,-1.0172433853149414,0.5716935396194458,0.6279694437980652
1761132345868077300,6.502077392578125,-1.2518155574798584,0.5674174427986145,0.22479841113090515
1761132345878078000,6.512077880859375,-1.4717271327972412,0.5167156457901001,-0.13805554807186127
1761132345888078000,6.522078125,-1.5939000844955444,0.4971679449081421,-0.42271876335144043
1761132345898078700,6.53207861328125,-1.5322027206420898,0.5857434272766113,-0.6041457056999207
1761132345908078800,6.542078857421875,-1.3910928964614868,0.5222133994102478,-0.8093964457511902
1761132345918078700,6.55207861328125,-1.1846203804016113,0.4873940944671631,-0.8833111524581909
1761132345928078800,6.562078857421875,-0.9231700897216797,0.4873940944671631,-0.8503243923187256
1761132345938079000,6.572078857421875,-0.6739370822906494,0.47823113203048706,-0.7715228199958801
1761132345948078800,6.582078857421875,-0.5083925724029541,0.5216025710105896,-0.7141014933586121
1761132345958078700,6.59207861328125,-0.4466952085494995,0.6309474110603333,-0.7067710757255554
1761132345968078800,6.602078857421875,-0.4271475374698639,0.7812203168869019,-0.7971791625022888
1761132345978078000,6.612077880859375,-0.35262197256088257,0.7983245253562927,-0.901637077331543
1761132345988077000,6.6220771484375,-0.21639901399612427,0.7928267121315002,-1.0005972385406494
1761132345998076200,6.632076171875,-0.04596760869026184,0.7842746376991272,-1.0598511695861816
1761132346008075300,6.6420751953125,0.12079860270023346,0.7580074071884155,-1.0775662660598755
1761132346018074400,6.652074462890625,0.25824329257011414,0.6816492676734924,-1.0757336616516113
1761132346028073500,6.662073486328125,0.3510948121547699,0.534430742263794,-1.073290228843689
1761132346038072600,6.672072509765625,0.38896843791007996,0.27053695917129517,-1.0586295127868652
1761132346048072000,6.682072021484375,0.3523165285587311,-0.16256651282310486,-0.9810495972633362
1761132346058070800,6.69207080078125,0.2765692472457886,-0.8320748209953308,-0.817337691783905
1761132346068071000,6.70207080078125,0.23380866646766663,-1.737987995147705,-0.5809328556060791
1761132346078071600,6.712071533203125,0.266184538602829,-2.863201856613159,-0.30604347586631775
1761132346088071700,6.72207177734375,0.38896843791007996,-4.094706058502197,-0.02687807008624077
1761132346098072600,6.732072509765625,0.6241515874862671,-5.239467620849609,0.32498031854629517
1761132346108072400,6.742072509765625,0.9796751141548157,-5.977392673492432,0.7318165898323059
1761132346118072600,6.752072509765625,1.4072808027267456,-6.020764350891113,0.9095783233642578
1761132346128072400,6.762072509765625,1.8037323951721191,-5.591325759887695,0.5357288122177124
1761132346138071800,6.77207177734375,2.0804543495178223,-4.863785266876221,-0.27550023794174194
1761132346148071700,6.78207177734375,2.2227859497070312,-4.267580986022949,-1.3249666690826416
1761132346158071800,6.79207177734375,2.2875375747680664,-4.147851467132568,-2.593122959136963
1761132346168072000,6.802072021484375,2.2795963287353516,-4.33050012588501,-3.838066339492798
1761132346178071300,6.8120712890625,2.0780107975006104,-3.77522349357605,-4.659069061279297
1761132346188071200,6.8220712890625,1.733482837677002,-2.349464178085327,-4.9565606117248535
1761132346198070300,6.8320703125,1.297935962677002,0.4861723780632019,-4.098294734954834
1761132346208070400,6.8420703125,1.3797918558120728,1.3474923372268677,-2.9907963275909424
1761132346218070300,6.8520703125,1.5202908515930176,1.6315447092056274,-1.1655309200286865
1761132346228070100,6.862070068359375,1.4720325469970703,1.0518336296081543,0.6976081132888794
1761132346238070300,6.8720703125,1.1733194589614868,0.02863430790603161,2.1197023391723633
1761132346248070100,6.882070068359375,0.8306240439414978,-0.7135669589042664,3.0860912799835205
1761132346258070300,6.8920703125,0.42928555607795715,-0.9395871162414551,3.598607063293457
1761132346268071000,6.90207080078125,0.046273041516542435,-0.7331146597862244,3.5607335567474365
1761132346278071800,6.91207177734375,-0.2744311988353729,-0.3568216562271118,3.0024027824401855
1761132346288072700,6.92207275390625,-0.6091853380203247,-0.0019089538836851716,2.168571710586548
1761132346298073600,6.932073486328125,-0.9726501703262329,0.28275424242019653,1.3115277290344238
1761132346308074200,6.94207421875,-1.2530373334884644,0.5179373621940613,0.608421802520752
1761132346318075100,6.9520751953125,-1.3965907096862793,0.7421249151229858,0.21013765037059784
1761132346328076000,6.962075927734375,-1.4130840301513672,0.9162214994430542,0.1722639948129654
1761132346338077000,6.972076904296875,-1.3287845849990845,0.9583712220191956,0.4801400899887085
1761132346348077800,6.982077880859375,-1.163851022720337,0.8514698147773743,1.0702359676361084
1761132346358078700,6.99207861328125,-0.9451612234115601,0.5985715985298157,1.8014415502548218
1761132346368078600,7.00207861328125,-0.7185302376747131,0.21433734893798828,2.5027148723602295
1761132346378078700,7.01207861328125,-0.5236642360687256,-0.23953554034233093,3.062267541885376
1761132346388078600,7.02207861328125,-0.41370847821235657,-0.6372088193893433,3.4513885974884033
1761132346398077700,7.03207763671875,-0.370947927236557,-0.8461247086524963,3.6248743534088135
1761132346408077800,7.042077880859375,-0.33857205510139465,-1.0348820686340332,3.651752471923828
1761132346418077700,7.05207763671875,-0.33857205510139465,-1.0012844800949097,3.495370864868164
1761132346428077800,7.062077880859375,-0.4558582007884979,-0.510759711265564,2.9236011505126953
1761132346438078500,7.072078369140625,-0.5529857873916626,0.06956227868795395,2.367102861404419
1761132346448078300,7.082078369140625,-0.6525567770004272,0.7262424230575562,1.6389514207839966
1761132346458078500,7.092078369140625,-0.7570147514343262,1.4006376266479492,0.7275404930114746
1761132346468078300,7.102078369140625,-0.8712465763092041,2.0237202644348145,-0.33169981837272644
1761132346478079000,7.112078857421875,-1.0404561758041382,2.377411127090454,-1.4092661142349243
1761132346488079000,7.1220791015625,-1.2597568035125732,2.4030675888061523,-2.269364356994629
1761132346498080000,7.132080078125,-1.53525710105896,2.170938730239868,-2.7824912071228027
1761132346508079900,7.142079833984375,-1.7777706384658813,1.7079029083251953,-2.919935941696167
1761132346518080000,7.152080078125,-1.8724546432495117,1.1923326253890991,-2.7061331272125244
1761132346528080000,7.162079833984375,-1.7771596908569336,0.8337547183036804,-2.2632558345794678
1761132346538080000,7.172080078125,-1.5138767957687378,0.7384597063064575,-1.750128984451294
1761132346548079900,7.182079833984375,-1.1388055086135864,0.9003390073776245,-1.3445143699645996
1761132346558080000,7.192080078125,-0.7289149761199951,1.267469048500061,-1.2040153741836548
1761132346568080100,7.202080078125,-0.370947927236557,1.7763197422027588,-1.3927727937698364
1761132346578079500,7.21207958984375,-0.08933904021978378,2.3163247108459473,-1.8191566467285156
1761132346588079400,7.222079345703125,0.12018773704767227,2.704224109649658,-2.311514139175415
1761132346598078500,7.232078369140625,0.23747386038303375,2.9119181632995605,-2.66642689704895
1761132346608078600,7.24207861328125,0.2539672255516052,2.963230848312378,-2.7647759914398193
1761132346618078500,7.252078369140625,0.19898934662342072,2.7836365699768066,-2.6010642051696777
1761132346628078300,7.262078369140625,0.15806138515472412,2.3920719623565674,-2.22171688079834
1761132346638078500,7.272078369140625,0.18188512325286865,1.8881081342697144,-1.72935950756073
1761132346648078600,7.28207861328125,0.2344195395708084,1.3847551345825195,-1.2211196422576904
1761132346658078500,7.292078369140625,0.34315356612205505,0.7592291235923767,-0.5180137157440186
1761132346668078600,7.30207861328125,0.4818199574947357,0.3811035454273224,-0.13011430203914642
1761132346678078500,7.312078369140625,0.6772968173027039,0.1636355221271515,0.2174680233001709
1761132346688078600,7.32207861328125,0.8452847599983215,0.18562667071819305,0.4966334402561188
1761132346698079200,7.332079345703125,0.9283624291419983,0.45257478952407837,0.645684540271759
1761132346708079400,7.342079345703125,0.9265298843383789,0.762894332408905,0.5742133259773254
1761132346718079200,7.352079345703125,0.8275696635246277,1.028620719909668,0.2926044464111328
1761132346728079400,7.362079345703125,0.5984952449798584,0.7683921456336975,-0.31154128909111023
1761132346738079500,7.37207958984375,0.17150041460990906,-0.4032474160194397,-1.2803735733032227
1761132346748079400,7.382079345703125,-0.4980078935623169,-2.215684652328491,-2.425745964050293
1761132346758079500,7.39207958984375,-1.1748465299606323,-3.474066972732544,-3.2644639015197754
1761132346768079400,7.402079345703125,-1.5346461534500122,-3.488116979598999,-3.5075881481170654
1761132346778079500,7.41207958984375,-1.17240309715271,-1.5443437099456787,-3.0586023330688477
1761132346788079400,7.422079345703125,-0.08933904021978378,1.3181707859039307,-2.3713788986206055
1761132346798078500,7.432078369140625,0.9723447561264038,3.3077590465545654,-1.9083430767059326
1761132346808078600,7.44207861328125,1.2582297325134277,4.036520957946777,-1.5986343622207642
1761132346818078700,7.45207861328125,0.8691084980964661,3.8361573219299316,-1.4001030921936035
1761132346828078600,7.46207861328125,0.10430523753166199,3.443371057510376,-1.3952162265777588
1761132346838078500,7.472078369140625,-0.745408296585083,3.4256558418273926,-1.7837265729904175
1761132346848078600,7.48207861328125,-1.4344643354415894,3.987652063369751,-2.63832688331604
1761132346858078500,7.492078369140625,-1.9854648113250732,5.030398845672607,-3.8044686317443848
1761132346868078600,7.50207861328125,-2.4350616931915283,6.280229091644287,-4.9229631423950195
1761132346878079200,7.512079345703125,-2.763707160949707,7.34252405166626,-5.654779434204102
1761132346888079000,7.5220791015625,-2.8205175399780273,7.851985454559326,-5.668218612670898
1761132346898080000,7.532080078125,-2.5022568702697754,7.078629970550537,-4.960836887359619
1761132346908080000,7.542080078125,-1.9078848361968994,5.4103569984436035,-3.762929916381836
1761132346918080000,7.552080078125,-1.1455250978469849,3.1263320446014404,-2.2516493797302246
1761132346928080100,7.562080078125,-0.299476683139801,0.7445683479309082,-0.6108652353286743
1761132346938080300,7.572080322265625,0.5111414790153503,-1.1631637811660767,0.9272934198379517
1761132346948080000,7.582080078125,1.1696542501449585,-2.474691390991211,2.188119411468506
1761132346958080000,7.592080078125,1.684613585472107,-3.3463962078094482,3.210096836090088
1761132346968080100,7.602080078125,2.0389153957366943,-3.6732091903686523,3.9180896282196045
1761132346978079500,7.61207958984375,2.205070734024048,-3.3757176399230957,4.2644500732421875
1761132346988078600,7.62207861328125,2.1207714080810547,-2.7495808601379395,4.27605676651001
1761132346998077700,7.63207763671875,1.8813122510910034,-2.03303599357605,4.030488967895508
1761132347008076800,7.642076904296875,1.536784291267395,-1.3549754619598389,3.612046241760254
1761132347018076000,7.652075927734375,1.1696542501449585,-0.8039750456809998,3.098308563232422
1761132347028075000,7.662074951171875,0.8440630435943604,-0.4289037585258484,2.577240467071533
1761132347038074000,7.67207421875,0.5141957998275757,-0.31955888867378235,2.090991735458374
1761132347048073500,7.682073486328125,0.1440114825963974,-0.4282929003238678,1.6841554641723633
1761132347058072300,7.692072265625,-0.2958115041255951,-0.662254273891449,1.4007140398025513
1761132347068071400,7.702071533203125,-0.8297077417373657,-0.9579130411148071,1.226617455482483
1761132347078070500,7.712070556640625,-1.3703234195709229,-1.307938814163208,1.1191051006317139
1761132347088070000,7.72206982421875,-1.7979291677474976,-1.621923565864563,1.0250319242477417
1761132347098069800,7.73206982421875,-2.0636556148529053,-1.8112918138504028,0.9334021210670471
1761132347108068900,7.74206884765625,-2.163837432861328,-1.8662697076797485,0.8503243923187256
1761132347118069000,7.752069091796875,-2.016008138656616,-1.7495944499969482,0.8197811841964722
1761132347128068900,7.76206884765625,-1.7637206315994263,-1.5583935976028442,0.8979719281196594
1761132347138069000,7.772069091796875,-1.4576772451400757,-1.3048845529556274,1.0256427526474
1761132347148068900,7.78206884765625,-1.182176947593689,-1.0965794324874878,1.176526427268982
1761132347158069000,7.792069091796875,-0.9958630800247192,-0.9786824584007263,1.3445143699645996
1761132347168068900,7.80206884765625,-0.9030115604400635,-0.9188176989555359,1.5125023126602173
1761132347178069000,7.812069091796875,-0.9140071272850037,-0.8907178640365601,1.6316211223602295
1761132347188068900,7.82206884765625,-0.9531024694442749,-0.9041569232940674,1.6786576509475708
1761132347198068200,7.832068115234375,-0.9237809777259827,-0.9249263405799866,1.6945401430130005
1761132347208068000,7.842068115234375,-0.7973318696022034,-0.9237046241760254,1.7079792022705078
1761132347218068200,7.852068115234375,-0.5890268087387085,-0.8705593347549438,1.7354681491851807
1761132347228068000,7.862068115234375,-0.3666718602180481,-0.7685448527336121,1.7580702304840088
1761132347238068000,7.87206787109375,-0.16630806028842926,-0.6463717818260193,1.7452419996261597
1761132347248068000,7.882068115234375,-0.035582900047302246,-0.5333617329597473,1.6688838005065918
1761132347258068000,7.89206787109375,0.02733621932566166,-0.36537376046180725,1.5015068054199219
1761132347268068000,7.902068115234375,-0.03436116874217987,-0.48082730174064636,1.1154398918151855
1761132347278068700,7.91206884765625,-0.3306308090686798,-1.0348820686340332,0.5393940210342407
1761132347288069600,7.922069580078125,-0.7625125646591187,-1.7404314279556274,-0.2822197377681732
1761132347298070500,7.932070556640625,-1.1705704927444458,-2.114280939102173,-1.3426817655563354
1761132347308071400,7.942071533203125,-1.47844660282135,-1.669571042060852,-2.4184155464172363
1761132347318072300,7.952072265625,-1.6103935241699219,-0.29329168796539307,-3.3738088607788086
1761132347328073200,7.9620732421875,-1.4143058061599731,1.7946457862854004,-4.444044589996338
1761132347338073900,7.972073974609375,-0.8193230032920837,4.05423641204834,-5.693264007568359
1761132347348074800,7.98207470703125,0.29367345571517944,5.937533855438232,-7.079928398132324
1761132347358075600,7.99207568359375,0.7622070908546448,5.903936386108398,-7.117801666259766
1761132347368076500,8.00207666015625,1.0340421199798584,4.804989814758301,-6.569855690002441
1761132347378077400,8.012077392578124,1.1507173776626587,3.0035481452941895,-5.666386127471924
1761132347388078300,8.022078369140624,1.1391109228134155,1.152626395225525,-4.672508239746094
1761132347398078500,8.032078369140624,1.0126618146896362,-0.1760055422782898,-3.8954877853393555
1761132347408079400,8.042079345703126,0.7951938509941101,-0.6390414237976074,-3.405573844909668
1761132347418079200,8.052079345703126,0.5789475440979004,-0.23892466723918915,-3.109304189682007
1761132347428079400,8.062079345703125,0.45921793580055237,0.6559929251670837,-2.90649676322937
1761132347438079200,8.072079345703125,0.456163614988327,1.5008195638656616,-2.7238481044769287
1761132347448079400,8.082079345703125,0.6070473194122314,1.910710096359253,-2.500882387161255
1761132347458079200,8.092079345703125,0.9375254511833191,1.8630626201629639,-2.186286687850952
1761132347468079000,8.1020791015625,1.4940236806869507,1.31206214427948,-1.703092336654663
1761132347478079200,8.112079345703124,2.1781928539276123,0.2992476224899292,-0.9779952764511108
1761132347488079000,8.1220791015625,2.8183796405792236,-0.9450848698616028,-0.001832595793530345
1761132347498080000,8.132080078125,3.318678140640259,-2.097787618637085,1.1001683473587036
1761132347508080000,8.142080078125,3.525761365890503,-2.9279534816741943,2.1343631744384766
1761132347518080000,8.152080078125,3.4408512115478516,-3.268205404281616,2.9602530002593994
1761132347528080100,8.162080078125,3.2282700538635254,-3.142367124557495,3.4849863052368164
1761132347538080000,8.172080078125,2.9998064041137695,-2.773404598236084,3.657250165939331
1761132347548080000,8.182080078125,2.8153252601623535,-2.3036491870880127,3.5222489833831787
1761132347558080000,8.192080078125,2.721251964569092,-1.8723783493041992,3.1728341579437256
1761132347568080100,8.202080078125,2.696817398071289,-1.6011542081832886,2.7030787467956543
1761132347578080000,8.212080078125,2.5642595291137695,-1.5070809125900269,2.062891960144043
1761132347588080000,8.222080078125,2.2117903232574463,-1.6017650365829468,1.8081611394882202
1761132347598079200,8.232079345703125,1.6412421464920044,-1.8363373279571533,1.7660114765167236
1761132347608079400,8.242079345703125,1.0047205686569214,-2.0605249404907227,1.8863518238067627
1761132347618079200,8.252079345703125,0.48426342010498047,-2.1057288646698,2.0085248947143555
1761132347628079000,8.2620791015625,0.1537853181362152,-2.002492666244507,1.9999728202819824
1761132347638078500,8.272078369140624,0.03344487398862839,-1.7587573528289795,1.8936822414398193
1761132347648078600,8.28207861328125,0.11285735666751862,-1.4594334363937378,1.7397441864013672
1761132347658078700,8.29207861328125,0.3113885521888733,-1.1717158555984497,1.5821410417556763
1761132347668078600,8.30207861328125,0.536797821521759,-0.9243154525756836,1.4611896276474
1761132347678078500,8.312078369140625,0.7353290319442749,-0.7233408093452454,1.367727279663086
1761132347688078600,8.32207861328125,0.8709411025047302,-0.5602397918701172,1.2608258724212646
1761132347698079500,8.33207958984375,0.889267086982727,-0.48143815994262695,1.1374311447143555
1761132347708079400,8.342079345703125,0.7615962624549866,-0.5260313153266907,1.0036516189575195
1761132347718079500,8.35207958984375,0.5392413139343262,-0.6653085947036743,0.8619308471679688
1761132347728079400,8.362079345703124,0.2967278063297272,-0.7972555160522461,0.6798930168151855
1761132347738079500,8.37207958984375,0.12629638612270355,-0.8901070356369019,0.413555771112442
1761132347748079400,8.382079345703126,0.0731511116027832,-1.0128909349441528,0.15821409225463867
1761132347758079500,8.39207958984375,0.16172657907009125,-1.0892491340637207,0.11911872029304504
1761132347768079400,8.402079345703125,0.3828597962856293,-1.0868055820465088,0.27977627515792847
1761132347778078700,8.41207861328125,0.6076582074165344,-1.0697014331817627,0.46731191873550415
1761132347788078800,8.422078857421875,0.7060074806213379,-1.338482141494751,0.484416127204895
1761132347798078000,8.432077880859374,0.6327036619186401,-1.8778761625289917,0.33047810196876526
1761132347808077800,8.442077880859374,0.3810271918773651,-2.5492169857025146,-0.04703662544488907
1761132347818078000,8.452077880859376,-0.2848159074783325,-3.5119407176971436,-1.4489723443984985
1761132347828077800,8.462077880859376,-0.7900014519691467,-4.007352352142334,-2.8771753311157227
1761132347838078000,8.472077880859375,-1.2432634830474854,-4.076991081237793,-4.262006759643555
1761132347848077800,8.482077880859375,-1.5297592878341675,-3.7959930896759033,-5.061629295349121
1761132347858078000,8.492077880859375,-1.3092368841171265,-2.4649176597595215,-4.559498310089111
1761132347868077800,8.502077880859375,-0.8541423082351685,-0.10270171612501144,-3.363424062728882
1761132347878078000,8.512077880859374,-0.5065600275993347,1.9149861335754395,-2.6083946228027344
1761132347888077800,8.522077880859374,-0.5181664228439331,2.918637752532959,-2.328618288040161
1761132347898078700,8.53207861328125,-0.9017898440361023,3.1489338874816895,-2.180178165435791
1761132347908078800,8.542078857421876,-1.515709400177002,2.9534571170806885,-1.985922932624817
1761132347918078700,8.55207861328125,-2.0862574577331543,2.524629592895508,-1.7397441864013672
1761132347928078800,8.562078857421875,-2.4381158351898193,2.111684799194336,-1.500285029411316
1761132347938079500,8.57207958984375,-2.548682451248169,1.8508453369140625,-1.244943380355835
1761132347948079400,8.582079345703125,-2.4057400226593018,1.740889549255371,-0.8979719281196594
1761132347958079500,8.59207958984375,-2.0361666679382324,1.598557949066162,-0.44287729263305664
1761132347968079400,8.602079345703125,-1.4815009832382202,1.264414668083191,0.2119702398777008
1761132347978078700,8.61207861328125,-0.8126034736633301,0.7506770491600037,1.1215485334396362
1761132347988077800,8.622077880859376,-0.19135354459285736,0.012140946462750435,2.113593816757202
1761132347998077000,8.632076904296875,0.2515237629413605,-0.8778896927833557,3.057380437850952
1761132348008076000,8.642075927734375,0.46960264444351196,-1.7648659944534302,3.877161741256714
1761132348018075100,8.6520751953125,0.49098294973373413,-2.5290584564208984,4.529565811157227
1761132348028074200,8.66207421875,0.3407101035118103,-3.018972396850586,4.947397708892822
1761132348038073600,8.672073486328125,0.06215553730726242,-3.1161000728607178,5.051244735717773
1761132348048072700,8.68207275390625,-0.43875396251678467,-2.6377925872802734,4.555222034454346
1761132348058071800,8.69207177734375,-0.7502952218055725,-2.01715350151062,3.8765509128570557
1761132348068071000,8.70207080078125,-0.9799805879592896,-1.1759920120239258,3.012176513671875
1761132348078070500,8.712070556640626,-1.1998920440673828,-0.39958223700523376,2.026240110397339
1761132348088069600,8.722069580078125,-1.5205962657928467,0.1776854246854782,1.0781772136688232
1761132348098070500,8.732070556640625,-1.8070920705795288,0.6712645292282104,0.30543261766433716
1761132348108070400,8.7420703125,-1.9604192972183228,0.9962448477745056,-0.29016098380088806
1761132348118070500,8.752070556640625,-1.9866864681243896,1.1367439031600952,-0.7092145681381226
1761132348128070700,8.762070556640625,-1.8803958892822266,1.1874456405639648,-0.9101892113685608
1761132348138070500,8.772070556640625,-1.5951218605041504,1.3059535026550293,-0.8460483551025391
1761132348148070700,8.782070556640624,-1.2206615209579468,1.3175599575042725,-0.7006624341011047
1761132348158070800,8.79207080078125,-0.765566885471344,1.287016749382019,-0.4495968222618103
1761132348168070700,8.802070556640626,-0.24144448339939117,1.238147497177124,-0.11911872029304504
1761132348178070500,8.812070556640625,0.24846944212913513,1.1312460899353027,0.23090706765651703
1761132348188070700,8.822070556640625,0.6430884003639221,0.9290496706962585,0.5296201705932617
1761132348198069800,8.83206982421875,0.9033169746398926,0.6657667756080627,0.7452555894851685
1761132348208070000,8.84206982421875,1.060920238494873,0.4311945140361786,0.8521569967269897
1761132348218069800,8.85206982421875,1.1623238325119019,0.23693935573101044,0.8203920125961304
1761132348228070000,8.86206982421875,1.2258538007736206,0.11354457587003708,0.6646214127540588
1761132348238069800,8.87206982421875,1.2820534706115723,0.06895141303539276,0.43799036741256714
1761132348248070000,8.88206982421875,1.335809588432312,0.13003793358802795,0.18020524084568024
1761132348258069800,8.89206982421875,1.3523029088974,0.23205243051052094,-0.10201449692249298
1761132348268069600,8.902069580078125,1.3070988655090332,0.33284521102905273,-0.3701843321323395
1761132348278070500,8.912070556640625,1.1879801750183105,0.5362633466720581,-0.5797111392021179
1761132348288071400,8.922071533203125,1.1183415651321411,0.553978443145752,-0.5705481171607971
1761132348298072000,8.932072021484375,1.1421653032302856,0.42264237999916077,-0.41172316670417786
1761132348308073000,8.942072998046875,1.322981357574463,-0.029397889971733093,-0.1368338167667389
1761132348318073900,8.952073974609375,1.6895005702972412,-0.8449029922485352,0.2675589919090271
1761132348328074800,8.96207470703125,2.3186917304992676,-1.956677794456482,0.7709119319915771
1761132348338075600,8.97207568359375,3.123201370239258,-3.262096881866455,1.140485405921936
1761132348348076500,8.98207666015625,3.771940231323242,-4.675027847290039,1.1753047704696655
1761132348358077400,8.992077392578125,4.106083393096924,-5.886373996734619,0.8155050873756409
1761132348368078300,9.002078369140625,4.144567966461182,-6.147213459014893,0.06230825558304787
1761132348378079200,9.012079345703125,3.757890224456787,-4.959691047668457,-1.1453723907470703
1761132348388080000,9.022080078125,3.0896036624908447,-2.765463352203369,-2.557692766189575
1761132348398079200,9.032079345703124,2.2930355072021484,-0.3665955066680908,-3.72688889503479
1761132348408079000,9.0420791015625,1.4622586965560913,1.2039390802383423,-4.142277240753174
1761132348418079200,9.052079345703126,0.8397870063781738,1.9724074602127075,-3.419623613357544
1761132348428079000,9.0620791015625,0.5331326723098755,1.9149861335754395,-2.238821029663086
1761132348438079200,9.072079345703125,0.37430769205093384,1.334664225578308,-1.2113457918167114
1761132348448079000,9.0820791015625,0.19593502581119537,0.6260605454444885,-0.5711590051651001
1761132348458079000,9.092078857421875,-0.1895209401845932,0.1880701333284378,-0.304210901260376
1761132348468079000,9.1020791015625,-0.8205447196960449,0.28275424242019653,-0.21930062770843506
1761132348478079000,9.112078857421874,-1.6000088453292847,0.9003390073776245,-0.21135938167572021
1761132348488079000,9.1220791015625,-2.316553831100464,1.8642843961715698,-0.2681698501110077
1761132348498079700,9.132079833984376,-2.755155086517334,2.8526642322540283,-0.4453207552433014
1761132348508079900,9.142079833984376,-2.8351783752441406,3.865478992462158,-0.6670648455619812
1761132348518079700,9.152079833984375,-2.549293279647827,3.976656436920166,-0.4550946056842804
1761132348528080000,9.162079833984375,-2.107027053833008,3.5343899726867676,0.0959058403968811
1761132348538080000,9.172080078125,-1.6103935241699219,2.7048349380493164,0.8991936445236206
1761132348548079900,9.182079833984375,-1.146135926246643,1.760437250137329,1.806328535079956
1761132348558080000,9.192080078125,-0.7564038634300232,0.8807913064956665,2.624277114868164
1761132348568080000,9.202079833984374,-0.4528038501739502,0.16119205951690674,3.2418618202209473
1761132348578080000,9.212080078125,-0.24877487123012543,-0.3232240676879883,3.6114354133605957
1761132348588079900,9.222079833984376,-0.15531249344348907,-0.5315291285514832,3.696345567703247
1761132348598079500,9.23207958984375,-0.15225815773010254,-0.500985860824585,3.5027012825012207
1761132348608079400,9.242079345703125,-0.2298380434513092,-0.29023733735084534,3.101362943649292
1761132348618079500,9.25207958984375,-0.37950003147125244,0.05795583873987198,2.5754079818725586
1761132348628079400,9.262079345703125,-0.5755877494812012,0.40370556712150574,1.9730947017669678
1761132348638079200,9.272079345703125,-0.8052731156349182,0.6358343362808228,1.3359622955322266
1761132348648079400,9.282079345703124,-1.0587822198867798,0.7311293482780457,0.7648032903671265
1761132348658079200,9.292079345703126,-1.2994630336761475,0.6462190747261047,0.2883284091949463
1761132348668079400,9.302079345703126,-1.5004377365112305,0.41225767135620117,-0.07208210229873657
1761132348678079200,9.312079345703125,-1.612226128578186,0.16913332045078278,-0.24190263450145721
1761132348688079400,9.322079345703125,-1.599397897720337,-0.037339139729738235,-0.19547687470912933
1761132348698080300,9.332080322265625,-1.460120677947998,-0.17783814668655396,0.02015855349600315
1761132348708080000,9.342080078125,-1.2347114086151123,-0.22487476468086243,0.33658674359321594
1761132348718080300,9.352080322265625,-0.9524916410446167,-0.21815524995326996,0.6976081132888794
1761132348728080100,9.362080078125,-0.6678284406661987,-0.1802816092967987,1.0286970138549805
1761132348738080300,9.372080322265624,-0.3019201457500458,-0.15218180418014526,1.3329079151153564
1761132348748080000,9.382080078125,-0.10949759185314178,-0.18944458663463593,1.377501130104065
1761132348758080300,9.392080322265626,0.04382958263158798,-0.24747678637504578,1.3237450122833252
1761132348768080100,9.402080078125,0.154396191239357,-0.27985262870788574,1.2015719413757324
1761132348778079500,9.41207958984375,0.24419337511062622,-0.2810743749141693,1.043968677520752
1761132348788079600,9.42207958984375,0.3266601860523224,-0.25908321142196655,0.8875871896743774
1761132348798078700,9.43207861328125,0.39813143014907837,-0.19738583266735077,0.7476990818977356
1761132348808078800,9.442078857421874,0.4769330322742462,-0.12224940955638885,0.6230825781822205
1761132348818078700,9.45207861328125,0.5600107312202454,-0.04283692687749863,0.4795292317867279
1761132348828078600,9.46207861328125,0.6363688707351685,0.026190847158432007,0.2981022298336029
1761132348838078700,9.47207861328125,0.6864598393440247,0.07444920390844345,0.09162978827953339
1761132348848078800,9.482078857421875,0.7060074806213379,0.06650795042514801,-0.11423180252313614
1761132348858078700,9.49207861328125,0.7060074806213379,0.11659890413284302,-0.2480112910270691
1761132348868078600,9.50207861328125,0.709061861038208,0.23266330361366272,-0.35613444447517395
1761132348878078700,9.51207861328125,0.7420485615730286,0.44768786430358887,-0.4001167416572571
1761132348888078600,9.52207861328125,0.8086328506469727,0.6645449995994568,-0.32070425152778625
1761132348898079200,9.532079345703124,0.9204211831092834,0.6608798503875732,-0.24556782841682434
1761132348908079000,9.5420791015625,1.0584768056869507,0.34689509868621826,-0.3335324227809906
1761132348918079200,9.552079345703126,1.0542006492614746,-0.2254856377840042,-0.6151412725448608
1761132348928079400,9.562079345703125,0.7286095023155212,-0.9695194959640503,-1.0769554376602173
1761132348938079200,9.572079345703125,0.12202033400535583,-2.0965659618377686,-1.95965576171875
1761132348948079400,9.582079345703125,-0.555429220199585,-3.3659439086914062,-3.1331279277801514
1761132348958079200,9.592079345703125,-1.0881037712097168,-3.9108357429504395,-3.983452320098877
1761132348968078600,9.60207861328125,-1.3226759433746338,-3.315242052078247,-4.2308526039123535
1761132348978077700,9.61207763671875,-1.0264062881469727,-1.089859962463379,-4.1581597328186035
1761132348988076800,9.622076904296875,-0.4784601926803589,0.48311805725097656,-4.061032295227051
1761132348998076000,9.632075927734375,-0.06734789162874222,1.521588921546936,-4.032932281494141
1761132349008075000,9.642074951171875,-0.00931569468230009,1.9003254175186157,-3.999945640563965
1761132349018074000,9.65207421875,-0.15531249344348907,2.0573177337646484,-3.4825427532196045
1761132349028073200,9.6620732421875,-0.1999056488275528,2.3370940685272217,-2.545475482940674
1761132349038072600,9.672072509765625,-0.0429132841527462,2.285170555114746,-1.528384804725647
1761132349048071700,9.68207177734375,0.17638733983039856,1.7011833190917969,-0.7916813492774963
1761132349058070800,9.69207080078125,0.10002918541431427,1.6138296127319336,-0.3536909818649292
1761132349068070000,9.70206982421875,0.0682641938328743,1.684689998626709,0.30604347586631775
1761132349078069500,9.712069580078126,0.016951510682702065,1.514258623123169,0.9364564418792725
1761132349088068900,9.72206884765625,-0.22128593921661377,1.4336243867874146,1.2296717166900635
1761132349098068700,9.73206884765625,-0.30802878737449646,1.6474272012710571,1.2748757600784302
1761132349108067800,9.74206787109375,-0.20112738013267517,1.4122440814971924,1.214400053024292
1761132349118067000,9.75206689453125,-0.11927144229412079,1.391474723815918,1.4007140398025513
1761132349128067000,9.762067138671876,0.07925976812839508,1.6345990896224976,1.7092009782791138
1761132349138067000,9.77206689453125,0.29733866453170776,1.484937071800232,2.0311269760131836
1761132349148067000,9.782067138671875,0.517250120639801,1.1947760581970215,2.4080307483673096
1761132349158067000,9.79206689453125,0.7670940160751343,0.8209265470504761,2.7171285152435303
1761132349168067000,9.802067138671875,0.9387471675872803,0.40431642532348633,2.9303205013275146
1761132349178067200,9.812067138671875,0.9582948684692383,0.0017562375869601965,3.0830368995666504
1761132349188067000,9.822067138671875,0.8764389157295227,-0.4276820421218872,3.1667253971099854
1761132349198066200,9.832066162109374,0.7451028823852539,-0.8925504684448242,3.2223141193389893
1761132349208066300,9.84206640625,0.5215262174606323,-0.9169850945472717,3.472769021987915
1761132349218065700,9.852065673828125,0.3266601860523224,-0.7807621359825134,3.607159376144409
1761132349228065500,9.8620654296875,0.1941024363040924,-0.6268240809440613,3.5943310260772705
1761132349238065400,9.8720654296875,0.20326541364192963,-0.5730679631233215,3.500257968902588
1761132349248065500,9.8820654296875,0.31444287300109863,-0.7471645474433899,3.3988542556762695
1761132349258065400,9.8920654296875,0.3119994103908539,-0.9310349822044373,3.3347134590148926
1761132349268066000,9.902066162109374,0.1996002197265625,-0.9731847047805786,3.2620203495025635
1761132349278067000,9.91206689453125,0.1287398487329483,-1.0764209032058716,3.1422908306121826
1761132349288067800,9.92206787109375,0.10064005106687546,-1.2389110326766968,2.9889636039733887
1761132349298068700,9.93206884765625,0.14034628868103027,-1.469818115234375,2.808758497238159
1761132349308069600,9.942069580078124,0.20693060755729675,-1.6555211544036865,2.6053402423858643
1761132349318070500,9.952070556640624,0.20387627184391022,-1.4649312496185303,2.3878722190856934
1761132349328071400,9.962071533203124,0.07192938029766083,-0.7386124134063721,2.2070560455322266
1761132349338072300,9.972072265625,-0.12049316614866257,0.3963751792907715,2.093435287475586
1761132349348073200,9.9820732421875,-0.3367394804954529,1.9345338344573975,2.0146336555480957
1761132349358073000,9.992072998046876,-0.5816964507102966,4.062177658081055,1.9144517183303833
1761132349368074000,10.002073974609376,-0.6782131195068359,6.366971969604492,1.3720033168792725
1761132349378075000,10.012074951171876,0.65958172082901,1.0353401899337769,-0.02321287989616394
1761132349388075800,10.02207568359375,1.6125315427780151,-1.2578479051589966,-1.5913039445877075
1761132349398076000,10.032075927734375,1.6809484958648682,1.6529250144958496,-2.2321016788482666
1761132349408076500,10.04207666015625,0.9552405476570129,3.5087335109710693,-3.4495561122894287
1761132349418077400,10.052077392578125,0.06643159687519073,3.2332334518432617,-5.3615641593933105
1761132349428077600,10.06207763671875,-1.0471757650375366,3.8379900455474854,-8.033489227294922
1761132349438077400,10.072077392578125,-1.4906638860702515,4.451298713684082,-9.094561576843262
1761132349448077600,10.08207763671875,-1.7557793855667114,4.426864147186279,-9.491623878479004
1761132349458077400,10.092077392578124,-1.6855299472808838,3.91862416267395,-9.225286483764648
1761132349468077600,10.10207763671875,-1.1760683059692383,2.966285228729248,-8.58082389831543
1761132349478077400,10.112077392578126,-0.3153591752052307,1.3878095149993896,-7.695069313049316
1761132349488077300,10.122077392578126,0.640644907951355,0.03779728710651398,-6.6620965003967285
1761132349498078200,10.132078125,1.327257513999939,-1.1075750589370728,-5.472741603851318
1761132349508078300,10.142078369140625,1.4524848461151123,-1.6634624004364014,-4.114788055419922
1761132349518079000,10.152078857421875,1.1385000944137573,-1.4606552124023438,-2.803260564804077
1761132349528078800,10.162078857421875,0.5942191481590271,-1.1301770210266113,-1.7495180368423462
1761132349538079000,10.172078857421875,-0.0032070425804704428,-1.0568732023239136,-0.9926560521125793
1761132349548078800,10.182078857421875,-0.5664247870445251,-0.9554696083068848,-0.5534439086914062
1761132349558078200,10.192078125,-0.9952521920204163,-0.6023895144462585,-0.3933972120285034
1761132349568078000,10.202078125,-1.2469286918640137,-0.3073415756225586,-0.4703662395477295
1761132349578078200,10.212078125,-1.30496084690094,-0.2615266740322113,-0.6780604124069214
1761132349588078000,10.222078125,-1.1614075899124146,-0.41546472907066345,-0.8283332586288452
1761132349598077200,10.2320771484375,-0.926835298538208,-0.7349472641944885,-0.8112290501594543
1761132349608077300,10.242077392578125,-0.6116288304328918,-1.148503065109253,-0.5180137157440186
1761132349618077200,10.2520771484375,-0.12110403180122375,-1.5070809125900269,0.01771509274840355
1761132349628077300,10.262077392578124,0.3052799105644226,-1.6280322074890137,0.618195652961731
1761132349638077200,10.2720771484375,0.4329507350921631,-1.3824644088745117,1.0506882667541504
1761132349648077300,10.282077392578126,0.30833423137664795,-0.8864418268203735,1.1917980909347534
1761132349658078200,10.292078125,0.05543602257966995,-0.5180900692939758,1.0280861854553223
1761132349668078000,10.302078125,-0.1547016203403473,-0.6543130278587341,0.6976081132888794
1761132349678078200,10.312078125,-0.06734789162874222,-0.7990881204605103,0.7391469478607178
1761132349688078000,10.322078125,-0.05757404863834381,-0.8345182538032532,0.8729264140129089
1761132349698079000,10.332078857421875,-0.19135354459285736,-0.7532731890678406,0.9828822016716003
1761132349708079000,10.3420791015625,-0.33735033869743347,-0.5254204869270325,0.99876469373703
1761132349718079000,10.352078857421875,-0.3556762933731079,-0.2560288906097412,0.9334021210670471
1761132349728079000,10.3620791015625,-0.27809640765190125,-0.1100321039557457,0.8216137290000916
1761132349738079000,10.372078857421876,-0.1492038369178772,-0.040393464267253876,0.7342600226402283
1761132349748079000,10.3820791015625,-0.021532999351620674,0.013973542489111423,0.7031059265136719
1761132349758079000,10.392078857421875,0.009010262787342072,0.09399688988924026,0.6310238242149353
1761132349768079000,10.4020791015625,-0.05390885844826698,0.18562667071819305,0.4300491213798523
1761132349778079000,10.412078857421875,-0.21334469318389893,0.2393828183412552,0.09712757170200348
1761132349788079000,10.4220791015625,-0.4277583956718445,0.19723311066627502,-0.23335053026676178
1761132349798078500,10.432078369140624,-0.6159048676490784,0.20700696110725403,-0.44654250144958496
1761132349808078300,10.442078369140624,-0.651945948600769,0.3499494194984436,-0.4856378734111786
1761132349818078500,10.452078369140626,-0.4870123267173767,0.6248387694358826,-0.35124751925468445
1761132349828078300,10.462078369140626,-0.19379699230194092,1.0243446826934814,-0.11423180252313614
1761132349838078500,10.472078369140625,-0.04657847434282303,1.514258623123169,0.10018189996480942
1761132349848078300,10.482078369140625,-0.016035212203860283,1.9052122831344604,0.23335053026676178
1761132349858079200,10.492079345703125,-0.023976460099220276,2.1520018577575684,0.5106833577156067
1761132349868079000,10.5020791015625,-0.04352414980530739,1.2723559141159058,0.6114761233329773
1761132349878079200,10.512079345703125,0.04505131021142006,0.17646369338035583,0.5002986192703247
1761132349888079000,10.5220791015625,0.15256360173225403,-0.3635411858558655,0.3695734739303589
1761132349898080000,10.532080078125,0.27351492643356323,-0.8015315532684326,0.10812314599752426
1761132349908080000,10.542080078125,0.294895201921463,-0.843681275844574,-0.0910189226269722
1761132349918080300,10.552080322265626,0.266184538602829,-0.7856490612030029,-0.28038713335990906
1761132349928080100,10.562080078125,0.2356412708759308,-0.6634759902954102,-0.4184426963329315
1761132349938080300,10.572080322265625,0.275347501039505,-0.4747186601161957,-0.5668829679489136
