time,seconds_elapsed,z,y,x
1761133392547660000,0.083659912109375,-0.5103408011883497,0.6138907536424696,0.16864873983040451
1761133392567507200,0.103507080078125,-1.012543304106593,0.6525201978966594,0.33064854316562414
1761133392587354000,0.12335400390625,-1.2092390116393565,0.7987370334275067,0.4250915715131908
1761133392607201000,0.143200927734375,-1.3090022851616143,0.8284367367729544,0.4501608020463958
1761133392627048200,0.163048095703125,-1.4302420619547367,0.929942177787423,0.35738537811748683
1761133392646896000,0.182896240234375,-1.3261544954925775,0.972076561422646,0.1501492430763319
1761133392666743000,0.202742919921875,-1.1120932271391153,0.8299974102184176,-0.07547163976542651
1761133392686590200,0.222590087890625,-0.9382406350553035,0.6912310368239879,-0.11837667897958308
1761133392706437000,0.24243701171875,-0.9530448209553957,0.5687886062428354,-0.03280095729641616
1761133392726284300,0.2622841796875,-0.7172264788240194,0.7055389636397361,0.11555526488330214
1761133392746131200,0.282131103515625,0.26989012308120724,0.9961436657086015,0.40263336372859776
1761133392765978000,0.30197802734375,1.1450830580711364,1.23803752836138,0.4304702688768506
1761133392785826300,0.321826416015625,1.5426841997861862,1.0887073831155896,0.6574795738697051
1761133392805673200,0.341673095703125,1.728472728857398,1.1375722440496085,0.4985289289720356
1761133392825520000,0.36152001953125,1.3934732970058916,0.7586965533316135,0.4676629583261907
1761133392845367300,0.3813671875,1.2452186720371246,0.3185749512732029,-0.0423597898889333
1761133392865214200,0.401214111328125,1.0193448008149861,0.04483575154840946,-0.5267543950464576
1761133392885061400,0.421061279296875,0.6304699863910674,-0.14657675488442182,-0.6986395595148205
1761133392904909000,0.440908935546875,0.3958522522211075,-0.26131723278611896,-0.586602203091979
1761133392924756000,0.460755859375,0.21769407189786433,-0.5550310067862272,-0.4087425673238933
1761133392944603100,0.48060302734375,0.12438158195018767,-0.7744339284285903,-0.5110504838276654
1761133392964450000,0.500449951171875,-0.27005495825409886,-0.792090288889408,-0.7323254829522222
1761133392984297000,0.520296875,-0.8826794913530349,-0.6847969121232629,-0.81130556923002
1761133393004144000,0.54014404296875,-1.310554775300622,-0.359052799873054,-0.7677020628903061
1761133393023992000,0.559991943359375,-1.3593266972541809,-0.07923194214701652,-0.6672517569519579
1761133393043839200,0.579839111328125,-0.913438786754012,-0.3046279667243361,-0.4825675358608365
1761133393063686100,0.59968603515625,-0.20513678814172742,-0.8182128644004464,-0.4238992929887026
1761133393083533000,0.619532958984375,0.2739829453527927,-1.0983426419451832,-0.3473416115522384
1761133393103379000,0.63937890625,0.500858687093854,-1.2497531005963682,-0.39577743341922755
1761133393123225900,0.659225830078125,0.3688707217931747,-1.325868372027576,-0.568250553843379
1761133393143074000,0.679073974609375,-0.13221125266253947,-1.0954928054720163,-0.657829921677336
1761133393162921000,0.6989208984375,-0.519075896307826,-0.6941948550656437,-0.47141485820561646
1761133393182768000,0.71876806640625,-0.7510206118762492,-0.23946371289640664,-0.19270861065797507
1761133393202615000,0.738614990234375,-0.8784124815583229,0.07037117482125758,0.0057858899250626565
1761133393222462000,0.7584619140625,-0.960754080158472,0.19893208828270434,-0.028543738243356345
1761133393242309000,0.77830908203125,-0.995478772059083,0.2533104519411921,-0.08873319933339953
1761133393262157000,0.798156982421875,-0.9357248528420925,0.48655631323605775,-0.2428510172471404
1761133393282004200,0.818004150390625,-0.8619844938486814,0.7184832008868456,-0.29127887500338256
1761133393301851100,0.83785107421875,-0.7163268996357918,0.8685551044106483,-0.21626747316084802
1761133393321698000,0.857697998046875,-0.414523634943366,0.8799895216166973,0.05468209584541619
1761133393341545200,0.877545166015625,-0.02264262444078922,0.7680825135752558,0.30926008350439366
1761133393361392000,0.89739208984375,0.538656795090437,0.4431082166537642,0.29462898914888497
1761133393381240000,0.917239990234375,1.1873323002576828,0.41774142794609065,-0.3028868952106684
1761133393401087000,0.9370869140625,1.0330366415590047,0.2134063115760684,-0.1458192875806242
1761133393420934000,0.956933837890625,0.8658405847549437,0.2443728199869394,0.07711049301363528
1761133393440781000,0.976781005859375,0.8175538159698248,0.24506430938243864,0.49675775458104904
1761133393460628000,0.9966279296875,0.8616846341192722,0.02720014161467552,0.5578009098909795
1761133393480475000,1.016474853515625,1.2449720037996768,-0.0970358943849802,0.4433465554542839
1761133393500323000,1.036322998046875,0.9813789350360631,-0.2956491259768605,0.44776744063645596
1761133393520170000,1.056169921875,0.46820670981407164,-0.3268907980673015,0.6708112029992044
1761133393540017200,1.07601708984375,0.4392775524497032,-0.20225641039982437,0.9407336209148168
1761133393559864000,1.095864013671875,0.7202776830881834,-0.271378900334239,1.1192612190723419
1761133393579711000,1.1157109375,0.8340724045723676,-0.37874665751084685,1.148725360096246
1761133393599558100,1.13555810546875,0.02277297282218933,-0.448767995981127,0.9561825344592332
1761133393619406000,1.155406005859375,-1.0780506722837686,-0.45166649390161034,0.6303608269281685
1761133393639253200,1.175253173828125,-1.6961702956676483,-0.4094251427605748,0.29989363167881966
1761133393659100200,1.19510009765625,-1.6748790858358145,-0.3813759831011295,0.07600969216488301
1761133393678947000,1.214947021484375,-1.0644108539879322,-0.5148528717853129,-0.19715864886939524
1761133393698794200,1.234794189453125,-0.2340817275971174,-0.9525206509508192,-0.45827228537481274
1761133393718641200,1.25464111328125,0.5209720853179693,-1.1892856262825429,-0.820842189990729
1761133393738488800,1.27448876953125,0.8624977040678262,-1.1665930252201855,-1.149029311478883
1761133393758336000,1.2943359375,0.8155231869250535,-0.8286781443133949,-1.0223905982516706
1761133393778183000,1.314182861328125,0.6257938112735748,-0.3307765534594655,-0.6776803581163287
1761133393798030000,1.334030029296875,0.31685002717673777,0.10761574058830738,-0.33079186062645166
1761133393817877000,1.353876953125,-0.1925473556816578,0.5379559533447027,0.08575235689170659
1761133393837724000,1.373723876953125,-0.5845037695080042,0.8029442758589983,0.23138510892428457
1761133393857571000,1.393571044921875,-0.856992676910758,0.9270334507338702,0.0992941216405481
1761133393877419000,1.4134189453125,-1.0089905800610781,1.0027278664045036,0.009532090716063975
1761133393897266000,1.433265869140625,-1.0683896944910287,1.0132124355398118,0.11664017404317856
1761133393917113000,1.453113037109375,-0.8712550110191106,0.8932730738207697,0.1277429846746847
1761133393936960000,1.4729599609375,-0.4280015406757593,0.6619022126175462,-0.09887406959757208
1761133393956807200,1.49280712890625,0.15469079549610615,0.4116241141095757,-0.40623029224202034
1761133393976654000,1.512654052734375,0.563681346231699,0.21048034112676978,-0.7397231189228594
1761133393996502000,1.532501953125,0.8290566222369671,0.006620002661645412,-0.8846529833830893
1761133394016349200,1.55234912109375,0.8375351122468709,0.24191651287600396,-1.196059065940231
1761133394036196000,1.572196044921875,0.4212660949409008,0.4118646448671818,-0.8857264578334987
1761133394056043300,1.592043212890625,0.5795926165908575,0.46900808932483196,-0.45521881608832626
1761133394075890200,1.61189013671875,1.3018968370705841,0.48759953867867584,-0.3828988087542355
1761133394095737000,1.631737060546875,1.7561708831220864,-0.007787585136294364,-0.5482743356002494
1761133394115585000,1.6515849609375,1.8420447475016115,-0.3470288923412561,-0.9453439642544835
1761133394135432000,1.671431884765625,1.3894909493714571,-0.5565156923860312,-0.9715167355827986
1761133394155278800,1.69127880859375,0.8512357208192348,-0.6192853061623871,-0.6942365022502839
1761133394175126000,1.7111259765625,0.39986850212514397,-0.5622095201134681,-0.5398234642496332
1761133394194973000,1.730972900390625,-0.13084054883122442,-0.5828266300760209,-0.6966045465558767
1761133394214820000,1.750820068359375,-0.8718284269928932,-0.5507639969915151,-0.8953864127129316
1761133394234667000,1.7706669921875,-1.5915730261176824,-0.5076318344905972,-1.026804323040694
1761133394254515000,1.790514892578125,-2.01413208347857,-0.38414398650974035,-1.2229993145097047
1761133394274362000,1.810362060546875,-1.7345137625873088,-0.5764744845703244,-1.421635123259574
1761133394294209000,1.830208984375,-1.0196142654061318,-1.0805179391801356,-1.699387796409428
1761133394314056000,1.850055908203125,-0.4836497781395912,-1.263474459695816,-2.0553768247976896
1761133394333903000,1.869903076171875,0.15619243223071097,-1.4301784951992331,-1.9504282575920222
1761133394353750000,1.88975,0.7597071916788816,-1.4118626479163765,-1.6244994364246725
1761133394373597200,1.90959716796875,1.2204723533153534,-1.261268181823194,-1.2324044909104703
1761133394393445000,1.929445068359375,1.280406889796257,-1.0728753154724835,-1.0907996061544865
1761133394413292000,1.9492919921875,0.8560159408330917,-0.8627965408839284,-1.02586032018885
1761133394433139200,1.96913916015625,0.30583295859992504,-0.5662957665137947,-0.7964055217400193
1761133394452986000,1.988986083984375,0.00984042601287365,-0.23918489595502612,-0.5636281547397375
1761133394472833000,2.0088330078125,0.17073709041178226,-0.12755568194165826,-0.444448671477288
1761133394492680200,2.02868017578125,0.34718846681714055,-0.16488120399042963,-0.5948411121923476
1761133394512528000,2.04852783203125,0.2745516851514578,-0.14966902181133626,-0.7758907761733979
1761133394532375000,2.068375,0.13029168277680872,-0.02926598810330033,-0.6718075205601751
1761133394552222000,2.088221923828125,-0.07915303169190883,0.1514222952194512,-0.38996940472759306
1761133394572068900,2.10806884765625,0.033979426491260525,0.23096797949075698,-0.11784005135223269
1761133394591916000,2.127916015625,0.49332419993579385,0.1876335724160075,0.020085341173410414
1761133394611763000,2.147762939453125,0.9127221629172563,0.413761856790632,-0.3234611889448017
1761133394631609900,2.16760986328125,0.6895593042194843,0.20198679967820643,-0.24152144914381204
1761133394651458000,2.1874580078125,0.7912509154558182,0.00003068739920854568,-0.11749832524247467
1761133394671305000,2.207304931640625,1.047482515540719,-0.27107275699451566,-0.04557568319551646
1761133394691152100,2.227152099609375,1.1187515159845351,-0.644870559926331,-0.21901677186898885
1761133394710999000,2.2469990234375,0.7160767242670059,-0.7968364605031907,-0.4333034464761615
1761133394730846000,2.266845947265625,-0.0030716625303030013,-0.8782574371270835,-0.3817512461543083
1761133394750693000,2.286693115234375,-0.4354541947692632,-0.7698030537575483,-0.41379787795208395
1761133394770541000,2.306541015625,-0.5772825860828161,-0.794953277105093,-0.4429397282190621
1761133394790388200,2.32638818359375,-0.5232277552902698,-0.9911246685028076,-0.47001799701973795
1761133394810235100,2.346235107421875,-0.1886468411117792,-1.3204367023676633,-0.49640068477168675
1761133394830082000,2.36608203125,0.08136895417571068,-1.415213419649005,-0.6231481190703809
1761133394849929200,2.38592919921875,0.20276655187904832,-1.3284171797275544,-0.7651818236976862
1761133394869776100,2.405776123046875,0.14769289943277836,-1.0752131107702851,-0.6806831931941211
1761133394889623000,2.425623046875,-0.16015315255522727,-0.7653887444466352,-0.42468920125737786
1761133394909471000,2.445470947265625,-0.25408815831542014,-0.4767933363735676,-0.28621991111338135
1761133394929318000,2.46531787109375,-0.2130126360833645,-0.5507496762052178,-0.5025196060433984
1761133394949165000,2.4851650390625,-0.25952830354273315,-0.8816571625679731,-0.7084538281731307
1761133394969012000,2.505011962890625,-0.2713163564920425,-1.0096046203061937,-0.8874974860940128
1761133394988859000,2.52485888671875,-0.22473346901535987,-1.0669221061564982,-1.0338106946714223
1761133395008706000,2.5447060546875,-0.012584171763062476,-0.9844888837501407,-1.010716454005614
1761133395028554000,2.564553955078125,0.3153887224525213,-0.8391909166298807,-0.9299280031315982
1761133395048401200,2.584401123046875,0.46699148880541325,-0.6957102280646562,-0.925132074091956
1761133395068248000,2.604248046875,0.3297954334676266,-0.44902971565723415,-0.8750921780291944
1761133395088095000,2.624094970703125,0.025354221487045286,-0.3142898212999105,-0.8958328413061797
1761133395107942100,2.643942138671875,-0.2457815177410841,-0.30043723703622816,-0.914358897273615
1761133395127789300,2.663789306640625,-0.38835751255154605,-0.3110702747315168,-0.9549963203493506
1761133395147636200,2.68363623046875,-0.3718921154409647,-0.2790960505828261,-0.8930080662090331
1761133395167484200,2.703484130859375,-0.2927507741868496,-0.2583003691829741,-0.822238174393773
1761133395187331000,2.7233310546875,0.0873719939827919,-0.3771742936275899,-0.692952453789115
1761133395207178200,2.74317822265625,0.824701934158802,-0.7185574351668358,-0.6155254421722144
1761133395227025200,2.763025146484375,1.6640718606173992,-0.9409554469719529,-0.6985100148510187
1761133395246872000,2.7828720703125,2.4138871883571147,-1.0777411679431796,-0.7569741865184157
1761133395266719000,2.802718994140625,2.495330961334705,-1.2907289618462323,-0.7437939485583454
1761133395286566100,2.822566162109375,1.9831945089012384,-1.29403443313241,-0.6677622637573629
1761133395306414000,2.8424140625,1.187881750833988,-1.1510466426506638,-0.5473948858845978
1761133395326261000,2.862260986328125,0.4956856683701277,-0.6595794687584042,-0.6864850113406777
1761133395346108200,2.882108154296875,-0.15273907690644264,-0.42964375492483375,-0.34908275613114237
1761133395365955000,2.901955078125,0.0013631050467491149,-0.47538156987950203,0.3862251766979694
1761133395385802200,2.92180224609375,1.0978419989466666,-0.6124646663621067,0.6722384593233466
1761133395405649200,2.941649169921875,1.6645780565738677,-1.0938286716520786,0.0876204888511449
1761133395425497000,2.9614970703125,0.7910586077541113,-1.4806373473264276,-1.100123534012586
1761133395445344300,2.98134423828125,-0.6988163773864507,-1.4458391517981886,-1.5982643404498695
1761133395465191200,3.001191162109375,-1.5015595777153967,-1.0275190471813083,-1.6239352266706526
1761133395485038000,3.0210380859375,-1.5302473275393247,-0.6418123413994908,-1.4890039013944565
1761133395504885200,3.04088525390625,-1.339303899922967,-0.6551721737101673,-1.54756802630499
1761133395524732200,3.060732177734375,-1.3011200074791907,-1.027155766826868,-1.771720042170584
1761133395544579300,3.080579345703125,-1.3406471312254666,-1.4261638527303933,-2.173122329734266
1761133395564427300,3.10042724609375,-1.013601288726926,-1.6715610473290086,-2.0028923120617868
1761133395584274200,3.120274169921875,-0.520599744874239,-1.6790055181160568,-1.5898469329774378
1761133395604121000,3.14012109375,0.052316462692618367,-1.5734002405673264,-1.2401719100415707
1761133395623968000,3.159968017578125,0.2767220149278641,-1.4906474308177828,-1.0898192168150096
1761133395643815200,3.179815185546875,0.09294131854772567,-1.5093518390268086,-1.310226566259563
1761133395663662000,3.199662109375,-0.08959259264171122,-1.6669035769119858,-1.878366645465791
1761133395683509000,3.219509033203125,-0.018776596662402154,-1.6996362182125448,-2.286540326860547
1761133395703357200,3.239357177734375,0.1802940233081579,-1.548124637274444,-2.4106632578745484
1761133395723204000,3.2592041015625,0.5056120191007852,-1.287785455740243,-2.330904661504924
1761133395743051000,3.279051025390625,0.8742068465620279,-1.1247864122346043,-2.275356231153756
1761133395762898200,3.298898193359375,1.3107827388375997,-1.067103600203246,-2.2863737381219864
1761133395782745000,3.3187451171875,1.7020710441440343,-1.098672458421439,-2.2791733052238823
1761133395802592000,3.338592041015625,1.9671306783288716,-1.1134092781737446,-2.2364903477951885
1761133395822439200,3.358439208984375,2.1628800449222325,-1.148702563742548,-2.138979237113893
1761133395842287000,3.378287109375,2.073904122874141,-1.2743673173710703,-2.1133711869962513
1761133395862134300,3.39813427734375,1.6521891151219605,-1.2950441946968436,-2.088596080571413
1761133395881981200,3.417981201171875,1.0086877977222204,-1.254860798998922,-2.008971339714527
1761133395901828000,3.437828125,0.46006081275939936,-1.0969494340211152,-1.7624860576182604
1761133395921675300,3.45767529296875,0.05774784009158611,-0.773815212008357,-1.3706193679019807
1761133395941522200,3.477522216796875,-0.09262392316162586,-0.4276210169255733,-0.9123480689078569
1761133395961369000,3.497369140625,-0.19068740702867507,-0.17331877746805546,-0.5922782029017806
1761133395981217000,3.517217041015625,-0.2408271102041006,-0.023049597806483507,-0.4659739457933232
1761133396001064000,3.53706396484375,-0.24409400304555892,-0.02535729022696614,-0.5684153159510343
1761133396020911000,3.5569111328125,-0.15615794543921946,-0.0465136216327548,-0.7280389647394419
1761133396040758000,3.576758056640625,-0.1131266129642725,0.06722498575001955,-0.8206672718152404
1761133396060605000,3.59660498046875,-0.08360533492565154,0.05099953487515449,-0.5795347123911604
1761133396080452000,3.6164521484375,0.016669395250082014,-0.011784253557026385,-0.3661647507701069
1761133396100300500,3.636300537109375,0.12865151435434818,-0.1954376702956855,-0.307880502246879
1761133396120147700,3.656147705078125,0.29367607233822346,-0.4750944235011935,-0.280848282811325
1761133396139994600,3.67599462890625,0.45999885343909264,-0.7851550827987491,-0.23297915491638704
1761133396159841500,3.695841552734375,0.7262018124401569,-1.1237564846649766,0.22429997296892104
1761133396179688700,3.715688720703125,1.0931798523545264,-1.2569528028421104,0.7986265587903558
1761133396199535600,3.73553564453125,1.5281909795314073,-1.271339932373911,1.2584981325879692
1761133396219382800,3.7553828125,1.565247329249978,-1.328316641962528,1.6655688211768864
1761133396239230700,3.775230712890625,1.4032318899542093,-1.4080870749004184,1.8805830063410103
1761133396259077600,3.79507763671875,1.1115946299672126,-1.459274825824052,2.133136794696003
1761133396278924800,3.8149248046875,0.7116957327038049,-1.2760190301008523,2.555400230111182
1761133396298771700,3.834771728515625,0.2667430572271347,-0.8482385848298668,3.03961465639621
1761133396318618600,3.85461865234375,-0.3751800510704517,-0.43603214078769087,3.192248519362509
1761133396338465800,3.8744658203125,-1.0981289991945027,-0.028365386001765726,3.1924206610590216
1761133396358312700,3.894312744140625,-1.6602169387549162,0.3752696290500462,3.0124180219128727
1761133396378160600,3.91416064453125,-1.8853209946483374,0.7312403911292552,2.742008258871734
1761133396398007600,3.934007568359375,-1.8216104467600582,0.8942727523826062,2.388227115791291
1761133396417854500,3.9538544921875,-1.4583447053670882,0.8095438202545047,1.9698970743022859
1761133396437701600,3.97370166015625,-1.0289145931929349,0.6308860198460519,1.5553452361777425
1761133396457548500,3.993548583984375,-0.7235375616669655,0.4871669924803078,1.2070728465814142
1761133396477395700,4.013395751953125,-0.6250000305473804,0.433459952212125,1.0160236935682594
1761133396497242600,4.03324267578125,-0.5138321504354476,0.49962607655897734,0.9128332220762968
1761133396517090600,4.053090576171875,-0.2379991933017969,0.6074455230258405,0.8883996956307441
1761133396536937700,4.072937744140625,-0.07091419565677642,0.868139801608026,0.9011841392062604
1761133396556784600,4.09278466796875,-0.15647534082531928,1.111789860278368,0.8132727776497602
1761133396576631600,4.112631591796875,-0.44151510224342344,1.2583634002923965,0.6190447754047811
1761133396596478700,4.132478759765625,-0.5216062915682792,1.3090183595135807,0.4440993100503459
1761133396616325600,4.15232568359375,-0.26540391757786275,1.3210031040787695,0.3534406956123188
1761133396636172800,4.1721728515625,0.08003156809210776,1.244383974778652,0.3217324654560536
1761133396656020700,4.192020751953125,0.45130584389567374,1.157960440627113,0.2147632426103577
1761133396675867600,4.21186767578125,0.8402730127781629,1.0017159128829836,0.12686240244787186
1761133396695714800,4.23171484375,1.109354157564044,0.758119337965548,-0.094162055981718
1761133396715561700,4.251561767578125,1.1271627859771252,0.6003652093760669,-0.28216577688436956
1761133396735408600,4.27140869140625,0.8863561340391636,0.48879459368214007,-0.3956662281297147
1761133396755255800,4.291255859375,0.5155056366056203,0.5807045233555138,-0.698277886595577
1761133396775102700,4.311102783203125,-0.1034451769053936,0.8478003395430743,-0.8689085209582
1761133396794950700,4.33095068359375,-0.43040451016426085,1.0497776407405734,-0.6967160441063344
1761133396814797600,4.350797607421875,-0.4597410792857408,1.1654510155782103,-0.3236652966821566
1761133396834644500,4.37064453125,-0.2180705039948225,0.8970112374357878,0.17747049032002687
1761133396854491600,4.39049169921875,0.0972539210498333,0.4539376537039876,0.004179587239585817
1761133396874339600,4.410339599609375,0.4215875819802284,-0.1875964552760124,-0.37705508769471197
1761133396894186800,4.430186767578125,0.6797650554358958,-0.6986869057878852,-0.4912890408463776
1761133396914033700,4.45003369140625,1.1487024176120757,-0.9770863524086773,-0.7566245693631469
1761133396933880600,4.469880615234375,1.653410181349516,-1.225841333002597,-0.9305064606066793
1761133396953728800,4.489728759765625,1.370620829206705,-1.3302801971204579,-1.0942878866616637
1761133396973575700,4.50957568359375,0.10050970797538757,-1.110194261649996,-1.169453821478784
1761133396993422800,4.5294228515625,-1.1348884117931126,-0.670133157607168,-1.008720238687098
1761133397013269800,4.549269775390625,-1.8385037138938902,-0.007934884652495384,-0.7849342065896838
1761133397033116700,4.56911669921875,-1.764562279370427,0.5042313783973456,-0.4175517871255055
1761133397052963800,4.5889638671875,-1.069243096449971,0.5151598919078707,0.023711459248699246
1761133397072810800,4.608810791015625,-0.08616670984625815,0.23587241040617227,0.14719185457546263
1761133397092658700,4.62865869140625,0.5000327576637268,-0.01843289779126644,0.024522775631584226
1761133397112505600,4.648505615234375,0.6378063206285238,-0.3281222395583987,-0.17390534518435596
1761133397132352500,4.6683525390625,0.31162615504860874,-0.4892375151440501,-0.3497623724257573
1761133397152199700,4.68819970703125,-0.35273441050648685,-0.4127358747437596,-0.42499359103143214
1761133397172046600,4.708046630859375,-0.7542272989630698,-0.13973843329697846,-0.38909243922997266
1761133397191893500,4.7278935546875,-0.8612912508875131,0.16156389613598585,-0.17251741622360423
1761133397211740700,4.74774072265625,-0.8077507993578911,0.41125104301348325,0.2335449538392946
1761133397231588600,4.767588623046875,-0.6439537373423576,0.5786724330060183,0.360997759928368
1761133397251435800,4.787435791015625,-0.5181511826783418,0.6425975004278123,0.3157031221639365
1761133397271282700,4.80728271484375,-0.531821396112442,0.6966100995138287,0.0922674561404623
1761133397291129600,4.827129638671875,-0.5802367597132921,0.6952990169152617,-0.05481419779248535
1761133397310976800,4.846976806640625,-0.626824907886982,0.3524558858260512,0.19610643640272318
1761133397330823700,4.86682373046875,-0.12087678869962691,-0.025735768150538206,0.5481115097213536
1761133397350670600,4.886670654296875,1.247909226295352,-0.04035699869915843,0.35566629923991855
1761133397370518800,4.906518798828125,2.35921334888339,0.1297150519326329,0.18483546613007784
1761133397390365700,4.92636572265625,2.395101823866367,-0.023069033159315584,0.6665560297727584
1761133397410212900,4.946212890625,2.3232500550985336,0.021146832925081252,0.8230913571570068
1761133397430059800,4.966059814453125,1.6228952160984276,-0.25179551733359695,0.6919087168898433
1761133397449906700,4.98590673828125,0.6225391933917999,-0.33724311912506816,0.18667714847400782
1761133397469753900,5.00575390625,-0.203255796700716,-0.28847002812772987,-0.016948942843824623
1761133397489600800,5.025600830078125,-0.5637713626027107,-0.1932110802873969,0.14555647192597387
1761133397509448700,5.04544873046875,-0.19920681357085704,-0.21327450188994407,0.378002634210512
1761133397529295600,5.065295654296875,0.2393546995639801,-0.39755832548663017,0.3519291585382074
1761133397549142500,5.085142578125,0.04646656762063503,-0.505750550788641,0.04662321948707104
1761133397568989700,5.10498974609375,-0.6815472626775503,-0.5315405333444476,0.0015251637406647205
1761133397588836600,5.124836669921875,-0.9600222587525844,-0.35118557362928987,0.3824818254511803
1761133397608683500,5.14468359375,-0.5800993970692158,-0.19484028892442584,0.9663894556969403
1761133397628530700,5.16453076171875,-0.18214929578602312,-0.2691954188153148,1.2273501301303504
1761133397648377600,5.184377685546875,-0.09677928927540778,-0.5339040476053953,1.2378688937962055
1761133397668225800,5.204225830078125,-0.4671171610116958,-0.7196293021820486,1.0975935040783136
1761133397688072700,5.22407275390625,-0.875939369443059,-0.6724114778026938,0.8856533195320516
1761133397707919600,5.243919677734375,-1.01982235519886,-0.411566684833914,0.7528685047652572
1761133397727766800,5.263766845703125,-1.0654279220759868,-0.01849777972102165,0.6902646029446273
1761133397747613700,5.28361376953125,-1.1478501846969127,0.28604090128466486,0.7646349304046481
1761133397767460600,5.303460693359375,-1.0061310989767311,0.5522283704556524,0.7672010545656085
1761133397787307800,5.323307861328125,-0.8529881174445152,0.7244517539024352,0.7675462147414683
1761133397807155700,5.34315576171875,-0.9907570042341947,0.8491988081641495,0.7332408442314714
1761133397827003000,5.3630029296875,-1.2502619269013404,0.9256314749814569,0.6927860111810267
1761133397846849800,5.382849853515625,-1.4315437922030687,0.959805839522928,0.6672953768979758
1761133397866696700,5.40269677734375,-1.1649556332767008,0.8119742622718215,0.4070758762206882
1761133397886544000,5.4225439453125,-0.0650198769211769,0.167679894798249,0.08438884998615831
1761133397906390800,5.442390869140625,1.3582348103642463,-0.3150118519641459,-0.20817670382689685
1761133397926237700,5.46223779296875,2.5490163742929695,-0.29887437163367864,-0.39447548397518695
1761133397946085600,5.482085693359375,2.6733845122396946,0.012498539306223392,-0.44146318939309565
1761133397965932500,5.5019326171875,1.3521207113981246,0.4485866480648517,-0.22826094902176408
1761133397985779700,5.52177978515625,0.6905711116105318,0.885582373187691,0.20389398500639944
1761133398005626600,5.541626708984375,0.994896588256955,1.2193581084631382,0.4547371700512245
1761133398025473500,5.5614736328125,1.5027157620131968,0.78092928179726,0.4601433764763176
1761133398045320700,5.58132080078125,1.3912287329494952,0.1385080147191882,-0.17059026581961662
1761133398065167600,5.601167724609375,0.845056739923358,-0.33267917221039534,-0.4328119000995531
1761133398085014500,5.6210146484375,0.5702537103593349,-0.547180731677264,-0.5203842754926532
1761133398104862700,5.64086279296875,0.22774492579102515,-0.5929467498131096,-0.38116065985001624
1761133398124709600,5.660709716796875,-0.3971452146410942,-0.6075938454553484,-0.5449522785054519
1761133398144556800,5.680556884765625,-1.181992108273506,-0.5369453149974346,-1.0528040028244257
1761133398164403700,5.70040380859375,-2.156540320506692,-0.4125811225734651,-1.516579013801366
1761133398184250600,5.720250732421875,-2.758886036175489,-0.09293094328418373,-1.6209604486435651
1761133398204097800,5.740097900390625,-2.3538018452286718,0.3634618484869599,-1.3327237908802925
1761133398223944700,5.75994482421875,-1.0265098701387643,0.45108504075184463,-0.768039258955419
1761133398243793000,5.77979296875,-0.13337620478868484,0.042387920004874464,-0.3717247595174238
1761133398263639800,5.799639892578125,0.5680430485725403,-0.37004093461632726,-0.49049138766266404
1761133398283486700,5.81948681640625,1.3688818765848874,-0.4898012865066528,-0.5781175756022334
1761133398303333600,5.839333740234375,1.8895827437460422,-0.5886608891874552,-0.4071204460147768
1761133398323180800,5.859180908203125,1.6990379600584506,-0.46017581744119523,-0.29154096000567076
1761133398343027700,5.87902783203125,0.466398783609271,-0.2021587952442467,-0.31040406590774655
1761133398362874600,5.89887451171875,-0.6208218680799007,0.08604147603139281,-0.15882650706134735
1761133398382722600,5.91872265625,-1.281393562746048,0.4284047146491706,-0.07026340359784662
1761133398402569700,5.93856982421875,-1.4492927993834017,0.6331923970922827,-0.019111381574720143
1761133398422416600,5.958416748046875,-1.1920955691367388,0.5726638402409852,-0.16076613335441797
1761133398442263600,5.978263671875,-1.0567512791454792,0.46842912039309736,-0.43748420275952665
1761133398462110700,5.99811083984375,-0.8759832085847854,0.47822044656723733,-0.6250925311364233
1761133398481957600,6.01795751953125,-0.409974885597825,0.5344225185215473,-0.5627472071867435
1761133398501804500,6.037804443359375,0.4061117804288864,0.5936959607452154,-0.42684089939855036
1761133398521651700,6.057651611328125,1.6750538578808307,0.5462327833026647,-0.16026538075804708
1761133398541499600,6.077499755859375,2.0740479152590034,0.34794922205656764,-0.4486787833277136
1761133398561346800,6.097346923828125,1.931165046456456,0.2823984531290829,-0.15529489886909723
1761133398581193700,6.11719384765625,1.717885283869505,0.034167642539739605,0.3355341963153332
1761133398601040600,6.13704052734375,2.00178522760272,-0.12922507645860315,0.5012141494680196
1761133398620887800,6.1568876953125,1.9975188023298978,-0.4326178022995591,0.38856121843010183
1761133398640734700,6.176734619140625,1.2349451153039932,-0.5892533021226525,0.015829583425074813
1761133398660581600,6.19658154296875,0.1810486410677433,-0.611859978467226,0.09347169909738004
1761133398680429800,6.216429931640625,-0.09030103317201137,-0.4858585402302444,0.362538961488381
1761133398700276700,6.23627685546875,0.24247663097679614,-0.46224429427832364,0.5771773721426725
1761133398720123600,6.25612353515625,0.7021224331945181,-0.7299326695315539,0.7552259546115994
1761133398739970600,6.275970458984375,0.6180488962352275,-1.0714363687105477,0.6733885792065412
1761133398759817700,6.295817626953125,-0.007949497699737549,-1.1492450000561774,0.48745033946633337
1761133398779664600,6.31566455078125,-0.8042389918446541,-1.1317791937313972,0.5101502470523118
1761133398799511600,6.335511474609375,-1.4213590827971696,-0.8326642913401127,0.5357452915579081
1761133398819358500,6.3553583984375,-1.6527748060554266,-0.5663605023130774,0.6067429277144372
1761133398839206700,6.37520654296875,-1.5592559798806904,-0.5268424386560917,0.5698221870742738
1761133398859053600,6.395053466796875,-1.239742286452651,-0.5661234786868095,0.4028779861394316
1761133398878900700,6.414900634765625,-0.9539221883118152,-0.6063754095762968,0.17380853374637661
1761133398898747600,6.43474755859375,-0.6485702912271022,-0.5469663582742214,-0.010407046919688582
1761133398918594600,6.454594482421875,-0.2653355285167694,-0.40686040683910246,-0.1317470692168921
1761133398938441700,6.474441650390625,-0.0879202755153179,-0.09806304547563195,-0.22174232437536118
1761133398958288600,6.49428857421875,-0.028252281016111373,0.2587421216011047,-0.30276538772284983
1761133398978136800,6.51413671875,-0.004589081355929375,0.6660327365510166,-0.4820329905927181
1761133398997983700,6.533983642578125,-0.0866308202266693,0.820196147172153,-0.46775655489377677
1761133399017830700,6.55383056640625,-0.2993126169204712,0.9149901078492403,-0.3608119185000658
1761133399037677800,6.573677734375,-0.4546767816334963,0.8697928295120596,-0.10785795184634625
1761133399057524700,6.593524658203125,-0.6260422330766916,0.7524933147773146,0.11736271616406738
1761133399077371600,6.61337158203125,-0.6438233889609575,0.5864367833971977,0.07918890672288835
1761133399097218000,6.633218017578125,-0.28644670560657975,0.3392243560701608,-0.02651734698228538
1761133399117065000,6.65306494140625,0.34158114832937714,0.10691402205973863,-0.0540779924724251
1761133399136913200,6.6729130859375,0.6609937194705009,-0.07440379133820534,-0.3730040952708572
1761133399156760000,6.692760009765625,0.44767128678560253,0.034135201574862,-0.7613233216386288
1761133399176607200,6.712607177734375,-0.10636135661303997,0.27278876713216305,-0.6115200789883732
1761133399196454100,6.7324541015625,-0.07377075413167476,0.5074249137416482,-0.3856752877302468
1761133399216301000,6.752301025390625,0.8460930972337722,0.40421851402819153,0.004445435101538896
1761133399236148200,6.772148193359375,1.6578788511961697,0.06446195077747106,-0.30778131618872284
1761133399255995100,6.7919951171875,1.4993050767868756,-0.24576602791100738,-0.8388746902875601
1761133399275842000,6.811842041015625,0.6709937199592589,-0.2370075519159436,-0.9593816958267242
1761133399295690000,6.83168994140625,0.4630611636191606,-0.2732689518645406,-0.7255139763064682
1761133399315537000,6.851536865234375,1.033276880055666,-0.46682782267630096,-0.6062223379064351
1761133399335384000,6.871384033203125,1.1271575252801178,-0.7855097414553165,-0.8545944566626101
1761133399355231000,6.89123095703125,0.052750177934765816,-0.938596024364233,-1.3209725628100335
1761133399375078000,6.911077880859375,-1.1547867059618233,-0.752253953063488,-1.4707248789906502
1761133399394925000,6.930925048828125,-1.8220108442544936,-0.26904227408021686,-1.443842717283964
1761133399414772000,6.95077197265625,-1.6686550967544316,0.10227584086507559,-1.1894761073533444
1761133399434620200,6.9706201171875,-1.1887485967963933,-0.02131692879498005,-1.0848337565526365
1761133399454467000,6.990467041015625,-0.9282435571759938,-0.4484060308009386,-1.109474130681902
1761133399474314000,7.01031396484375,-0.8669359787762164,-0.5516048317298293,-1.3561109500780701
1761133399494161200,7.0301611328125,-0.6073626670479774,-0.6448161993905902,-1.35938880270496
1761133399514008000,7.050008056640625,-0.15537117897570132,-0.6080436350494622,-1.209183043668419
1761133399533855000,7.06985498046875,0.3197323046147823,-0.4803121581494808,-1.1494391343887895
1761133399553702100,7.0897021484375,0.5588035110622644,-0.49894876181930303,-1.204484510588646
1761133399573549000,7.109549072265625,0.4439887988805771,-0.45683220610171554,-1.288178400580585
1761133399593397200,7.129397216796875,0.3953840501874685,-0.36156156782358884,-1.3862190880939365
1761133399613244200,7.149244140625,0.3319569954156875,-0.3461471410706639,-1.327236299379915
1761133399633091000,7.169091064453125,0.786963447394967,-0.3102928606182337,-1.2908517114430664
1761133399652938200,7.188938232421875,0.6926882498949766,-0.1604275855824351,-1.074977036992088
1761133399672785200,7.20878515625,0.6141027889579534,0.11214666201621293,-0.9329663479141891
1761133399692632000,7.228632080078125,0.7303320441126823,0.12559855652451515,-1.025366764518246
1761133399712479200,7.248479248046875,0.7589566655725241,0.00651946489661932,-1.0121988745830952
1761133399732327000,7.268326904296875,0.9262824862360953,0.08489595925807952,-1.1106523806810378
1761133399752174000,7.288174072265625,0.8196902434766292,-0.08966244300752878,-0.7492237915873527
1761133399772021000,7.30802099609375,0.9616834699630736,-0.31531741078197956,-0.37782778910025955
