time,seconds_elapsed,z,y,x
1761133392547660000,0.083659912109375,0.5872867107391357,0.3053801655769348,0.7468599677085876
1761133392567507200,0.103507080078125,0.5102464556694031,0.10702227056026459,0.7628868818283081
1761133392587354000,0.12335400390625,0.4057800769805908,0.05368076637387276,0.6909677386283875
1761133392607201000,0.143200927734375,0.3282562494277954,0.13272875547409058,0.5645692348480225
1761133392627048200,0.163048095703125,0.2671179175376892,0.17175233364105225,0.385541170835495
1761133392646896000,0.182896240234375,0.24671131372451782,0.19493956863880157,0.2139810472726822
1761133392666743000,0.202742919921875,0.30822867155075073,0.15224917232990265,0.11825684458017349
1761133392686590200,0.222590087890625,0.41352882981300354,0.0032628129702061415,0.09666942805051804
1761133392706437000,0.24243701171875,0.5244083404541016,-0.19199198484420776,0.030280042439699173
1761133392726284300,0.2622841796875,0.5571991801261902,-0.3530570864677429,-0.13387681543827057
1761133392746131200,0.282131103515625,0.4939781427383423,-0.3569040894508362,-0.18475709855556488
1761133392765978000,0.30197802734375,0.4211811423301697,-0.14596155285835266,-0.040634989738464355
1761133392785826300,0.321826416015625,0.33199140429496765,0.032289233058691025,0.15494276583194733
1761133392805673200,0.341673095703125,0.2066115140914917,0.14274565875530243,0.30968862771987915
1761133392825520000,0.36152001953125,0.04002416878938675,0.0649862214922905,0.32296350598335266
1761133392845367300,0.3813671875,0.022511368617415428,0.03101411834359169,0.33183905482292175
1761133392865214200,0.401214111328125,0.12018115818500519,0.108907051384449,0.3480331301689148
1761133392885061400,0.421061279296875,0.23812267184257507,0.16707047820091248,0.28461146354675293
1761133392904909000,0.440908935546875,0.31998002529144287,0.22713397443294525,0.1884380728006363
1761133392924756000,0.460755859375,0.3823092579841614,0.2567814588546753,0.15663456916809082
1761133392944603100,0.48060302734375,0.48447465896606445,0.33632639050483704,0.274096816778183
1761133392964450000,0.500449951171875,0.6231287717819214,0.4049575626850128,0.433257520198822
1761133392984297000,0.520296875,0.7372560501098633,0.3454333543777466,0.4910890460014343
1761133393004144000,0.54014404296875,0.7371841669082642,0.10403992980718613,0.3889097571372986
1761133393023992000,0.559991943359375,0.5748295783996582,-0.25378382205963135,0.17185214161872864
1761133393043839200,0.579839111328125,0.37663695216178894,-0.568134605884552,-0.028911976143717766
1761133393063686100,0.59968603515625,0.28200972080230713,-0.570673406124115,-0.17605146765708923
1761133393083533000,0.619532958984375,0.24339614808559418,-0.36681821942329407,-0.2705675959587097
1761133393103379000,0.63937890625,0.2565128207206726,-0.07180211693048477,-0.28772199153900146
1761133393123225900,0.659225830078125,0.35444557666778564,0.24149641394615173,-0.2144888937473297
1761133393143074000,0.679073974609375,0.46652689576148987,0.3934847414493561,-0.1472582370042801
1761133393162921000,0.6989208984375,0.539459228515625,0.44286444783210754,-0.11028128862380981
1761133393182768000,0.71876806640625,0.5325638055801392,0.4611026346683502,-0.06683862209320068
1761133393202615000,0.738614990234375,0.46511489152908325,0.4564000368118286,-0.032557014375925064
1761133393222462000,0.7584619140625,0.4162842035293579,0.3952951729297638,0.018057934939861298
1761133393242309000,0.77830908203125,0.3957785665988922,0.232712522149086,0.1087329313158989
1761133393262157000,0.798156982421875,0.3858291208744049,0.05228685215115547,0.17804600298404694
1761133393282004200,0.818004150390625,0.370637446641922,-0.04222649335861206,0.16792802512645721
1761133393301851100,0.83785107421875,0.33056774735450745,-0.06238196790218353,0.052846211940050125
1761133393321698000,0.857697998046875,0.2401166558265686,-0.05242830887436867,-0.0885331928730011
1761133393341545200,0.877545166015625,0.10961903631687164,-0.07505574822425842,-0.2224455326795578
1761133393361392000,0.89739208984375,0.03310251608490944,-0.15491582453250885,-0.244897723197937
1761133393381240000,0.917239990234375,0.10924392938613892,-0.1434200257062912,-0.10072451084852219
1761133393401087000,0.9370869140625,0.18062293529510498,-0.1585925668478012,-0.055640313774347305
1761133393420934000,0.956933837890625,0.23103465139865875,-0.09434997290372849,-0.1652497798204422
1761133393440781000,0.976781005859375,0.1941933035850525,0.10991072654724121,-0.32621681690216064
1761133393460628000,0.9966279296875,0.1584448665380478,0.3043259084224701,-0.42616838216781616
1761133393480475000,1.016474853515625,0.18833616375923157,0.4539872705936432,-0.3190084397792816
1761133393500323000,1.036322998046875,0.2262977957725525,0.43899887800216675,-0.21551567316055298
1761133393520170000,1.056169921875,0.17998430132865906,0.2505144476890564,-0.23691321909427643
1761133393540017200,1.07601708984375,0.016669971868395805,-0.014670316129922867,-0.2432306855916977
1761133393559864000,1.095864013671875,-0.17039641737937927,-0.10567563027143478,-0.10982997715473175
1761133393579711000,1.1157109375,-0.3185175359249115,0.07491021603345871,0.15370571613311768
1761133393599558100,1.13555810546875,-0.4286377727985382,0.3386572003364563,0.3098297715187073
1761133393619406000,1.155406005859375,-0.5127593874931335,0.4840391278266907,0.24111101031303406
1761133393639253200,1.175253173828125,-0.5985838770866394,0.397052526473999,0.03629656136035919
1761133393659100200,1.19510009765625,-0.7188515067100525,0.10848889499902725,-0.1777724027633667
1761133393678947000,1.214947021484375,-0.8052842617034912,-0.16800998151302338,-0.33683261275291443
1761133393698794200,1.234794189453125,-0.7500720024108887,-0.25720059871673584,-0.42286449670791626
1761133393718641200,1.25464111328125,-0.5525060892105103,-0.15174584090709686,-0.4037148356437683
1761133393738488800,1.27448876953125,-0.24787947535514832,-0.00589707400649786,-0.3257606327533722
1761133393758336000,1.2943359375,0.019873246550559998,0.07713893800973892,-0.2196531593799591
1761133393778183000,1.314182861328125,0.16826456785202026,0.054041408002376556,-0.0722716674208641
1761133393798030000,1.334030029296875,0.22482353448867798,-0.03454020991921425,0.07799673825502396
1761133393817877000,1.353876953125,0.1831173300743103,-0.07717200368642807,0.1546129584312439
1761133393837724000,1.373723876953125,0.12402254343032837,-0.08411958068609238,0.17948417365550995
1761133393857571000,1.393571044921875,0.10638027638196945,-0.03442802652716637,0.1681099683046341
1761133393877419000,1.4134189453125,0.09622301161289215,0.04657335206866264,0.10165779292583466
1761133393897266000,1.433265869140625,0.06422634422779083,0.15597599744796753,-0.04334678500890732
1761133393917113000,1.453113037109375,0.03710454702377319,0.26284682750701904,-0.19613422453403473
1761133393936960000,1.4729599609375,0.06631827354431152,0.3007814288139343,-0.24550966918468475
1761133393956807200,1.49280712890625,0.16822199523448944,0.2561406195163727,-0.13270385563373566
1761133393976654000,1.512654052734375,0.3383181393146515,0.13619007170200348,0.0727357566356659
1761133393996502000,1.532501953125,0.5447770357131958,0.03155740723013878,0.3091751039028168
1761133394016349200,1.55234912109375,0.7598599195480347,0.022237932309508324,0.4460259974002838
1761133394036196000,1.572196044921875,0.8454767465591431,-0.0647190511226654,0.3489953875541687
1761133394056043300,1.592043212890625,0.8135910630226135,-0.11540965735912323,0.16140054166316986
1761133394075890200,1.61189013671875,0.7154595851898193,-0.04818269610404968,0.08508474379777908
1761133394095737000,1.631737060546875,0.6787437200546265,-0.01367633044719696,0.1258278787136078
1761133394115585000,1.6515849609375,0.7395066618919373,0.06326768547296524,0.2084254026412964
1761133394135432000,1.671431884765625,0.8177668452262878,0.16865237057209015,0.16357870399951935
1761133394155278800,1.69127880859375,0.8530978560447693,0.31283941864967346,0.04896722733974457
1761133394175126000,1.7111259765625,0.8534893989562988,0.4349072575569153,0.007164288312196732
1761133394194973000,1.730972900390625,0.8789596557617188,0.5462742447853088,0.08458192646503448
1761133394214820000,1.750820068359375,0.9127795696258545,0.5577672719955444,0.1678142547607422
1761133394234667000,1.7706669921875,0.9163232445716858,0.39640530943870544,0.17328131198883057
1761133394254515000,1.790514892578125,0.8319015502929688,0.03585203364491463,0.10680406540632248
1761133394274362000,1.810362060546875,0.7173808217048645,-0.37408462166786194,0.03393837809562683
1761133394294209000,1.830208984375,0.7036727666854858,-0.5967669486999512,0.0018359455280005932
1761133394314056000,1.850055908203125,0.7769562602043152,-0.613834798336029,-0.1431058943271637
1761133394333903000,1.869903076171875,0.8947147727012634,-0.39587515592575073,-0.2906970679759979
1761133394353750000,1.88975,1.0045806169509888,-0.07816322147846222,-0.3615323603153229
1761133394373597200,1.90959716796875,1.0598976612091064,0.21247097849845886,-0.2886239290237427
1761133394393445000,1.929445068359375,1.103253722190857,0.3782897889614105,-0.10517477244138718
1761133394413292000,1.9492919921875,1.1441763639450073,0.42767542600631714,0.029342669993638992
1761133394433139200,1.96913916015625,1.1348899602890015,0.45442792773246765,0.02946207858622074
1761133394452986000,1.988986083984375,1.059584140777588,0.4367395043373108,-0.04829573631286621
1761133394472833000,2.0088330078125,0.9628474116325378,0.3821800947189331,-0.03677472099661827
1761133394492680200,2.02868017578125,0.9249096512794495,0.2673272490501404,0.0969337597489357
1761133394512528000,2.04852783203125,0.9348618388175964,0.13636529445648193,0.2377774566411972
1761133394532375000,2.068375,0.963170051574707,0.09633934497833252,0.2924570143222809
1761133394552222000,2.088221923828125,0.9522114992141724,0.08956553041934967,0.21372389793395996
1761133394572068900,2.10806884765625,0.8907307982444763,0.08830247074365616,0.07958832383155823
1761133394591916000,2.127916015625,0.8380381464958191,0.1303446739912033,0.02838119864463806
1761133394611763000,2.147762939453125,0.8402897119522095,0.19980262219905853,0.09596153348684311
1761133394631609900,2.16760986328125,0.8321662545204163,0.08844094723463058,0.09419959038496017
1761133394651458000,2.1874580078125,0.8358895182609558,0.031420059502124786,0.08145534992218018
1761133394671305000,2.207304931640625,0.8520123362541199,0.057199686765670776,0.1258675754070282
1761133394691152100,2.227152099609375,0.9357696771621704,0.11955645680427551,0.2700956463813782
1761133394710999000,2.2469990234375,1.0346488952636719,0.11586916446685791,0.4179593324661255
1761133394730846000,2.266845947265625,1.0782862901687622,0.024451546370983124,0.46024319529533386
1761133394750693000,2.286693115234375,1.046868085861206,-0.12888851761817932,0.4553656578063965
1761133394770541000,2.306541015625,0.9464218616485596,-0.35655468702316284,0.45288580656051636
1761133394790388200,2.32638818359375,0.8250540494918823,-0.5609844326972961,0.4045577645301819
1761133394810235100,2.346235107421875,0.7729900479316711,-0.48118311166763306,0.3043743968009949
1761133394830082000,2.36608203125,0.7761346697807312,-0.16322308778762817,0.1649622768163681
1761133394849929200,2.38592919921875,0.8241413235664368,0.2466132938861847,0.04669941961765289
1761133394869776100,2.405776123046875,0.8462411165237427,0.535635232925415,0.003860273864120245
1761133394889623000,2.425623046875,0.7942448854446411,0.6513819694519043,-0.05352671816945076
1761133394909471000,2.445470947265625,0.6764923930168152,0.6142722964286804,-0.07268255949020386
1761133394929318000,2.46531787109375,0.6027722358703613,0.4790768325328827,-0.017025893554091454
1761133394949165000,2.4851650390625,0.6346086263656616,0.345668226480484,0.024974782019853592
1761133394969012000,2.505011962890625,0.7264018654823303,0.29633447527885437,-0.02373768948018551
1761133394988859000,2.52485888671875,0.8957257270812988,0.3962709307670593,-0.17115849256515503
1761133395008706000,2.5447060546875,1.0840365886688232,0.5462518334388733,-0.31252214312553406
1761133395028554000,2.564553955078125,1.2523995637893677,0.5912694931030273,-0.30132976174354553
1761133395048401200,2.584401123046875,1.4042901992797852,0.509648323059082,-0.13828949630260468
1761133395068248000,2.604248046875,1.511193037033081,0.3773845434188843,0.05299936234951019
1761133395088095000,2.624094970703125,1.6011145114898682,0.24313384294509888,0.1844160556793213
1761133395107942100,2.643942138671875,1.6770659685134888,0.15085875988006592,0.23884272575378418
1761133395127789300,2.663789306640625,1.7478063106536865,0.1544497013092041,0.2066507637500763
1761133395147636200,2.68363623046875,1.8007714748382568,0.2581234276294708,0.10796626657247543
1761133395167484200,2.703484130859375,1.8334136009216309,0.35204485058784485,-0.030896170064806938
1761133395187331000,2.7233310546875,1.841450572013855,0.3653580844402313,-0.14157222211360931
1761133395207178200,2.74317822265625,1.8747156858444214,0.32477864623069763,-0.1519404798746109
1761133395227025200,2.763025146484375,1.9401018619537354,0.3059433698654175,-0.02867593616247177
1761133395246872000,2.7828720703125,2.0347044467926025,0.4008297324180603,0.22625111043453217
1761133395266719000,2.802718994140625,2.165543556213379,0.5858179926872253,0.5063531994819641
1761133395286566100,2.822566162109375,2.299543619155884,0.7815510034561157,0.6934816241264343
1761133395306414000,2.8424140625,2.4082894325256348,0.9122053384780884,0.7908145189285278
1761133395326261000,2.862260986328125,2.5223841667175293,0.9818468689918518,0.7819043397903442
1761133395346108200,2.882108154296875,2.5401928424835205,0.8053422570228577,0.5717840790748596
1761133395365955000,2.901955078125,2.3756325244903564,0.49909713864326477,0.324813574552536
1761133395385802200,2.92180224609375,2.114656448364258,0.4246956706047058,0.3076951801776886
1761133395405649200,2.941649169921875,2.025977611541748,0.6677506566047668,0.5903475880622864
1761133395425497000,2.9614970703125,2.1720807552337646,0.9221486449241638,0.8335267305374146
1761133395445344300,2.98134423828125,2.3282124996185303,1.00178062915802,0.7692702412605286
1761133395465191200,3.001191162109375,2.347541570663452,0.9441254734992981,0.5383574366569519
1761133395485038000,3.0210380859375,2.191166877746582,0.7570858001708984,0.37904292345046997
1761133395504885200,3.04088525390625,1.9755561351776123,0.5415207147598267,0.32815301418304443
1761133395524732200,3.060732177734375,1.8183661699295044,0.3914546072483063,0.2844479978084564
1761133395544579300,3.080579345703125,1.7983328104019165,0.257032573223114,0.1643141806125641
1761133395564427300,3.10042724609375,1.836434245109558,0.22183789312839508,0.02198050543665886
1761133395584274200,3.120274169921875,1.8249675035476685,0.2955518960952759,-0.09428383409976959
1761133395604121000,3.14012109375,1.754279613494873,0.4618164002895355,-0.11714552342891693
1761133395623968000,3.159968017578125,1.6482057571411133,0.7011858820915222,-0.11228269338607788
1761133395643815200,3.179815185546875,1.5689257383346558,0.8825950622558594,-0.1830751746892929
1761133395663662000,3.199662109375,1.5855028629302979,0.9278042912483215,-0.2566215395927429
1761133395683509000,3.219509033203125,1.6657770872116089,0.8191936612129211,-0.2636811435222626
1761133395703357200,3.239357177734375,1.7227014303207397,0.6162248253822327,-0.22582685947418213
1761133395723204000,3.2592041015625,1.7199759483337402,0.420680969953537,-0.19068259000778198
1761133395743051000,3.279051025390625,1.6742650270462036,0.30387362837791443,-0.18339020013809204
1761133395762898200,3.298898193359375,1.627875804901123,0.2520338296890259,-0.1958373337984085
1761133395782745000,3.3187451171875,1.5889943838119507,0.25510603189468384,-0.18455228209495544
1761133395802592000,3.338592041015625,1.5548243522644043,0.31205645203590393,-0.1720334142446518
1761133395822439200,3.358439208984375,1.5104598999023438,0.39770108461380005,-0.12294214963912964
1761133395842287000,3.378287109375,1.5118966102600098,0.5151328444480896,-0.04362139478325844
1761133395862134300,3.39813427734375,1.5439388751983643,0.6058641076087952,0.020443525165319443
1761133395881981200,3.417981201171875,1.610973596572876,0.649070680141449,0.040455423295497894
1761133395901828000,3.437828125,1.6781716346740723,0.6535717844963074,0.03254401683807373
1761133395921675300,3.45767529296875,1.6912842988967896,0.5869833827018738,0.02098880521953106
1761133395941522200,3.477522216796875,1.6332621574401855,0.49166354537010193,0.05207483097910881
1761133395961369000,3.497369140625,1.5170724391937256,0.3735522925853729,0.08143745362758636
1761133395981217000,3.517217041015625,1.368137240409851,0.25827303528785706,0.07250573486089706
1761133396001064000,3.53706396484375,1.2526110410690308,0.19983135163784027,0.06087617948651314
1761133396020911000,3.5569111328125,1.1972236633300781,0.20125512778759003,0.06135579198598862
1761133396040758000,3.576758056640625,1.1559053659439087,0.2546904683113098,0.01453007198870182
1761133396060605000,3.59660498046875,1.0520265102386475,0.3054050803184509,-0.0884859710931778
1761133396080452000,3.6164521484375,0.9046933650970459,0.3765385150909424,-0.20270152390003204
1761133396100300500,3.636300537109375,0.7846063375473022,0.44233328104019165,-0.29188600182533264
1761133396120147700,3.656147705078125,0.7462864518165588,0.4816189110279083,-0.3577311635017395
1761133396139994600,3.67599462890625,0.7974225282669067,0.5195817351341248,-0.4310193955898285
1761133396159841500,3.695841552734375,0.8746260404586792,0.5811676383018494,-0.5250598192214966
1761133396179688700,3.715688720703125,0.905169665813446,0.5954967737197876,-0.5656154155731201
1761133396199535600,3.73553564453125,0.8959835171699524,0.5553002953529358,-0.47543948888778687
1761133396219382800,3.7553828125,0.8889000415802002,0.4883076846599579,-0.3395805358886719
1761133396239230700,3.775230712890625,0.9193133115768433,0.3673170208930969,-0.1944500207901001
1761133396259077600,3.79507763671875,0.9930862188339233,0.26415830850601196,-0.06011318787932396
1761133396278924800,3.8149248046875,1.0404990911483765,0.21558555960655212,0.05372229963541031
1761133396298771700,3.834771728515625,0.995957612991333,0.22235107421875,0.15702463686466217
1761133396318618600,3.85461865234375,0.893001914024353,0.222337007522583,0.2203621119260788
1761133396338465800,3.8744658203125,0.739349901676178,0.15696386992931366,0.20683971047401428
1761133396358312700,3.894312744140625,0.5490037202835083,0.02812090516090393,0.12708419561386108
1761133396378160600,3.91416064453125,0.31909188628196716,-0.17746470868587494,0.033236414194107056
1761133396398007600,3.934007568359375,0.08897491544485092,-0.4026542603969574,-0.05256062000989914
1761133396417854500,3.9538544921875,-0.0646490827202797,-0.539919376373291,-0.09161575138568878
1761133396437701600,3.97370166015625,-0.13256129622459412,-0.5829355120658875,-0.09863397479057312
1761133396457548500,3.993548583984375,-0.12035075575113297,-0.5194604396820068,-0.11086118966341019
1761133396477395700,4.013395751953125,-0.07162250578403473,-0.3563935160636902,-0.20082440972328186
1761133396497242600,4.03324267578125,-0.0035918746143579483,-0.18440917134284973,-0.31105250120162964
1761133396517090600,4.053090576171875,0.053168896585702896,-0.08133227378129959,-0.3156171143054962
1761133396536937700,4.072937744140625,0.060369059443473816,-0.12215462327003479,-0.2108621597290039
1761133396556784600,4.09278466796875,0.042549461126327515,-0.21768008172512054,-0.08680597692728043
1761133396576631600,4.112631591796875,0.024633001536130905,-0.3162508010864258,-0.052997197955846786
1761133396596478700,4.132478759765625,0.012158244848251343,-0.3629530966281891,-0.08937408775091171
1761133396616325600,4.15232568359375,0.0012753847986459732,-0.3656384348869324,-0.11144159734249115
1761133396636172800,4.1721728515625,-0.008840658701956272,-0.32067883014678955,-0.11816713213920593
1761133396656020700,4.192020751953125,-0.011933530680835247,-0.21865499019622803,-0.10667374730110168
1761133396675867600,4.21186767578125,-0.0032085231505334377,-0.09691765159368515,-0.020822301506996155
1761133396695714800,4.23171484375,0.04665851965546608,-0.017372919246554375,0.16954626142978668
1761133396715561700,4.251561767578125,0.10822803527116776,0.05869477242231369,0.3937898576259613
1761133396735408600,4.27140869140625,0.1847386211156845,0.1795077919960022,0.5573552846908569
1761133396755255800,4.291255859375,0.3064654767513275,0.35289716720581055,0.6580132842063904
1761133396775102700,4.311102783203125,0.4022471606731415,0.37659314274787903,0.6340011954307556
1761133396794950700,4.33095068359375,0.44050607085227966,0.2456345558166504,0.5592016577720642
1761133396814797600,4.350797607421875,0.33556434512138367,0.014302016235888004,0.45460784435272217
1761133396834644500,4.37064453125,0.08727086335420609,-0.22170419991016388,0.34121590852737427
1761133396854491600,4.39049169921875,-0.08927295356988907,-0.34031516313552856,0.1966802030801773
1761133396874339600,4.410339599609375,-0.10048234462738037,-0.2768658399581909,0.013946862891316414
1761133396894186800,4.430186767578125,-0.03818410262465477,-0.07997626811265945,-0.2174973338842392
1761133396914033700,4.45003369140625,0.1083248108625412,0.1430395394563675,-0.34596681594848633
1761133396933880600,4.469880615234375,0.30437058210372925,0.31278273463249207,-0.16396327316761017
1761133396953728800,4.489728759765625,0.5647017359733582,0.46853405237197876,0.19747920334339142
1761133396973575700,4.50957568359375,0.8087443113327026,0.5040168762207031,0.4383520483970642
1761133396993422800,4.5294228515625,0.9558011293411255,0.37472617626190186,0.4654003083705902
1761133397013269800,4.549269775390625,0.9432733654975891,0.10474049299955368,0.30945318937301636
1761133397033116700,4.56911669921875,0.7547081112861633,-0.17088936269283295,0.07081077247858047
1761133397052963800,4.5889638671875,0.48641157150268555,-0.3597866892814636,-0.11305601894855499
1761133397072810800,4.608810791015625,0.25714683532714844,-0.3369330167770386,-0.17499014735221863
1761133397092658700,4.62865869140625,0.10519116371870041,-0.1051558330655098,-0.19680213928222656
1761133397112505600,4.648505615234375,0.0656636655330658,0.20271271467208862,-0.17399097979068756
1761133397132352500,4.6683525390625,0.1059732735157013,0.4291468560695648,-0.1244698166847229
1761133397152199700,4.68819970703125,0.16655825078487396,0.4878084361553192,-0.1208149790763855
1761133397172046600,4.708046630859375,0.21142104268074036,0.41850000619888306,-0.13103926181793213
1761133397191893500,4.7278935546875,0.22957900166511536,0.33296287059783936,-0.1594356745481491
1761133397211740700,4.74774072265625,0.19196493923664093,0.30534827709198,-0.18855197727680206
1761133397231588600,4.767588623046875,0.12874534726142883,0.22748462855815887,-0.1587488204240799
1761133397251435800,4.787435791015625,0.058572061359882355,0.06130314618349075,-0.044617559760808945
1761133397271282700,4.80728271484375,0.00883163046091795,-0.20498721301555634,0.0902453288435936
1761133397291129600,4.827129638671875,-0.05685525760054588,-0.5317931771278381,0.19493314623832703
1761133397310976800,4.846976806640625,-0.14909033477306366,-0.819593608379364,0.1777121126651764
1761133397330823700,4.86682373046875,-0.2667321562767029,-0.9858459830284119,-0.0121076051145792
1761133397350670600,4.886670654296875,-0.31483718752861023,-0.8699917197227478,-0.09775979071855545
1761133397370518800,4.906518798828125,-0.3165941834449768,-0.5775687098503113,-0.06109370291233063
1761133397390365700,4.92636572265625,-0.38857755064964294,-0.3146209418773651,-0.09522151947021484
1761133397410212900,4.946212890625,-0.5105639696121216,-0.006041326094418764,-0.14526717364788055
1761133397430059800,4.966059814453125,-0.5748543739318848,0.28170913457870483,-0.17103709280490875
1761133397449906700,4.98590673828125,-0.5236117243766785,0.35310378670692444,-0.2010175585746765
1761133397469753900,5.00575390625,-0.42642027139663696,0.19848257303237915,-0.2516665458679199
1761133397489600800,5.025600830078125,-0.37620872259140015,-0.07637397944927216,-0.29957932233810425
1761133397509448700,5.04544873046875,-0.38380166888237,-0.3169698715209961,-0.19279593229293823
1761133397529295600,5.065295654296875,-0.378590852022171,-0.4587571322917938,0.10305687040090561
1761133397549142500,5.085142578125,-0.3061472177505493,-0.49473029375076294,0.37758341431617737
1761133397568989700,5.10498974609375,-0.22525006532669067,-0.5030300617218018,0.413054883480072
1761133397588836600,5.124836669921875,-0.22228527069091797,-0.4852324426174164,0.27547019720077515
1761133397608683500,5.14468359375,-0.3355714678764343,-0.37907373905181885,0.15710341930389404
1761133397628530700,5.16453076171875,-0.4818824231624603,-0.2785532474517822,0.09502789378166199
1761133397648377600,5.184377685546875,-0.5748517513275146,-0.10902725160121918,0.053260061889886856
1761133397668225800,5.204225830078125,-0.5883435606956482,0.09857617318630219,-0.0490078441798687
1761133397688072700,5.22407275390625,-0.5410939455032349,0.3121282160282135,-0.20858421921730042
1761133397707919600,5.243919677734375,-0.477970689535141,0.4482462406158447,-0.30731168389320374
1761133397727766800,5.263766845703125,-0.43823572993278503,0.4825389087200165,-0.31019115447998047
1761133397747613700,5.28361376953125,-0.41809239983558655,0.40908122062683105,-0.2804776430130005
1761133397767460600,5.303460693359375,-0.42767491936683655,0.2234925627708435,-0.16709285974502563
1761133397787307800,5.323307861328125,-0.44550037384033203,0.042092323303222656,0.004445843398571014
1761133397807155700,5.34315576171875,-0.45579293370246887,-0.07478638738393784,0.09734544903039932
1761133397827003000,5.3630029296875,-0.4790775179862976,-0.08838445693254471,0.053318046033382416
1761133397846849800,5.382849853515625,-0.5288475751876831,0.014434697106480598,-0.15488378703594208
1761133397866696700,5.40269677734375,-0.5594459772109985,0.0644240528345108,-0.4421866536140442
1761133397886544000,5.4225439453125,-0.4523322582244873,0.04844456538558006,-0.5489558577537537
1761133397906390800,5.442390869140625,-0.22886042296886444,0.03568640351295471,-0.3882027566432953
1761133397926237700,5.46223779296875,0.02555740624666214,0.10452568531036377,0.012075303122401237
1761133397946085600,5.482085693359375,0.2560466229915619,0.2758753299713135,0.44199302792549133
1761133397965932500,5.5019326171875,0.36197930574417114,0.2563474476337433,0.502802848815918
1761133397985779700,5.52177978515625,0.28565171360969543,0.1639581024646759,0.3154383599758148
1761133398005626600,5.541626708984375,0.023272661492228508,-0.027170604094862938,0.19074244797229767
1761133398025473500,5.5614736328125,-0.23035311698913574,-0.19695211946964264,0.25914466381073
1761133398045320700,5.58132080078125,-0.3128759264945984,-0.24937960505485535,0.29869186878204346
1761133398065167600,5.601167724609375,-0.29593366384506226,-0.2213725447654724,0.175247460603714
1761133398085014500,5.6210146484375,-0.21119101345539093,-0.0015842887805774808,0.012972109951078892
1761133398104862700,5.64086279296875,-0.1332763135433197,0.29196664690971375,-0.0629722997546196
1761133398124709600,5.660709716796875,-0.02790720947086811,0.46908068656921387,0.002518403809517622
1761133398144556800,5.680556884765625,0.14572013914585114,0.504432737827301,0.13486450910568237
1761133398164403700,5.70040380859375,0.3683190941810608,0.39562517404556274,0.15775783360004425
1761133398184250600,5.720250732421875,0.5182847380638123,0.07191859185695648,-0.003155470360070467
1761133398204097800,5.740097900390625,0.5141215920448303,-0.30590716004371643,-0.22566543519496918
1761133398223944700,5.75994482421875,0.3992776572704315,-0.4809630215167999,-0.261025607585907
1761133398243793000,5.77979296875,0.2215457707643509,-0.7162763476371765,-0.1880187839269638
1761133398263639800,5.799639892578125,0.11707236617803574,-0.8854628801345825,-0.1840122789144516
1761133398283486700,5.81948681640625,0.10668843984603882,-0.6406278014183044,-0.2066056877374649
1761133398303333600,5.839333740234375,0.15554319322109222,-0.11631986498832703,-0.1460806131362915
1761133398323180800,5.859180908203125,0.1904056966304779,0.36659398674964905,0.007162956520915031
1761133398343027700,5.87902783203125,0.2211187332868576,0.5666424632072449,0.07048498839139938
1761133398362874600,5.89887451171875,0.22355739772319794,0.5756392478942871,0.056744180619716644
1761133398382722600,5.91872265625,0.16524475812911987,0.3950589597225189,0.022234220057725906
1761133398402569700,5.93856982421875,0.04856279864907265,0.15234190225601196,0.013647753745317459
1761133398422416600,5.958416748046875,-0.020936815068125725,-0.03759238123893738,0.07666712999343872
1761133398442263600,5.978263671875,-0.024906566366553307,-0.18625155091285706,0.1367274820804596
1761133398462110700,5.99811083984375,-0.023181883618235588,-0.3589412569999695,0.1347903609275818
1761133398481957600,6.01795751953125,-0.06558635085821152,-0.5071880221366882,0.0712675154209137
1761133398501804500,6.037804443359375,-0.17408670485019684,-0.6463631987571716,-0.005808828864246607
1761133398521651700,6.057651611328125,-0.2771953344345093,-0.5384839773178101,0.0507756806910038
1761133398541499600,6.077499755859375,-0.23602956533432007,-0.31048986315727234,0.15861661732196808
1761133398561346800,6.097346923828125,-0.28217408061027527,-0.2804158329963684,0.16730214655399323
1761133398581193700,6.11719384765625,-0.3555077612400055,-0.3052578568458557,0.03963636979460716
1761133398601040600,6.13704052734375,-0.3883332908153534,-0.1210719421505928,0.003698015818372369
1761133398620887800,6.1568876953125,-0.3171892762184143,0.20380672812461853,0.1416306346654892
1761133398640734700,6.176734619140625,-0.1588309109210968,0.3584020435810089,0.25677135586738586
1761133398660581600,6.19658154296875,-0.058964647352695465,0.22173278033733368,0.23978282511234283
1761133398680429800,6.216429931640625,-0.06863532215356827,-0.1614583134651184,0.1591019332408905
1761133398700276700,6.23627685546875,-0.16768045723438263,-0.5057384967803955,0.17982816696166992
1761133398720123600,6.25612353515625,-0.28095564246177673,-0.6627956628799438,0.33563634753227234
1761133398739970600,6.275970458984375,-0.27245375514030457,-0.5443422794342041,0.5219098329544067
1761133398759817700,6.295817626953125,-0.18470390141010284,-0.1891328990459442,0.6017972230911255
1761133398779664600,6.31566455078125,-0.09600495547056198,0.18238024413585663,0.5003717541694641
1761133398799511600,6.335511474609375,-0.11924464255571365,0.35864582657814026,0.2774009704589844
1761133398819358500,6.3553583984375,-0.23366092145442963,0.3394671380519867,0.06577328592538834
1761133398839206700,6.37520654296875,-0.3406931459903717,0.24821041524410248,-0.08389145135879517
1761133398859053600,6.395053466796875,-0.38558724522590637,0.1723334938287735,-0.1666576862335205
1761133398878900700,6.414900634765625,-0.37349218130111694,0.1468028426170349,-0.24078501760959625
1761133398898747600,6.43474755859375,-0.3184252679347992,0.0758737251162529,-0.29275602102279663
1761133398918594600,6.454594482421875,-0.2325574904680252,0.03213955834507942,-0.23400774598121643
1761133398938441700,6.474441650390625,-0.13340702652931213,0.0126695167273283,-0.10219445079565048
1761133398958288600,6.49428857421875,-0.042728498578071594,-0.006264981813728809,0.07077712565660477
1761133398978136800,6.51413671875,0.034058406949043274,-0.024020127952098846,0.2688232660293579
1761133398997983700,6.533983642578125,0.06339408457279205,-0.04990336671471596,0.40078723430633545
1761133399017830700,6.55383056640625,0.05969640985131264,-0.0687611922621727,0.39165815711021423
1761133399037677800,6.573677734375,0.07113306224346161,-0.0016329048667103052,0.3116845190525055
1761133399057524700,6.593524658203125,0.08640851080417633,0.07767383009195328,0.20608311891555786
1761133399077371600,6.61337158203125,0.11268150806427002,0.08960054814815521,0.11274544149637222
1761133399097218000,6.633218017578125,0.18651482462882996,0.096389539539814,0.08962730318307877
1761133399117065000,6.65306494140625,0.3020046651363373,0.15785391628742218,0.17270268499851227
1761133399136913200,6.6729130859375,0.47260817885398865,0.18650789558887482,0.34536442160606384
1761133399156760000,6.692760009765625,0.6791757941246033,0.15258263051509857,0.468845397233963
1761133399176607200,6.712607177734375,0.789435625076294,-0.014251306653022766,0.38501498103141785
1761133399196454100,6.7324541015625,0.7702915072441101,-0.1794961839914322,0.2095692902803421
1761133399216301000,6.752301025390625,0.6163564324378967,-0.2899894714355469,0.15667957067489624
1761133399236148200,6.772148193359375,0.5665073990821838,-0.12829731404781342,0.24832193553447723
1761133399255995100,6.7919951171875,0.6537204384803772,0.15497371554374695,0.2901458740234375
1761133399275842000,6.811842041015625,0.7031534910202026,0.18884918093681335,0.1126483753323555
1761133399295690000,6.83168994140625,0.6756491661071777,0.1278192102909088,-0.07727811485528946
1761133399315537000,6.851536865234375,0.6382675170898438,0.23698805272579193,-0.04786193370819092
1761133399335384000,6.871384033203125,0.6875165700912476,0.5347588658332825,0.18125443160533905
1761133399355231000,6.89123095703125,0.8417699337005615,0.8139177560806274,0.32313013076782227
1761133399375078000,6.911077880859375,0.9839575886726379,0.8684720396995544,0.28661981225013733
1761133399394925000,6.930925048828125,1.0115512609481812,0.615339457988739,0.18496286869049072
1761133399414772000,6.95077197265625,0.8679453134536743,0.15626485645771027,0.13534711301326752
1761133399434620200,6.9706201171875,0.7056517601013184,-0.1589099019765854,0.17913918197155
1761133399454467000,6.990467041015625,0.6384745836257935,-0.23234736919403076,0.2076607495546341
1761133399474314000,7.01031396484375,0.6166972517967224,-0.2515735626220703,0.09214908629655838
1761133399494161200,7.0301611328125,0.6336385607719421,-0.09927379339933395,-0.13312165439128876
1761133399514008000,7.050008056640625,0.6270338296890259,0.08915553987026215,-0.3152580261230469
1761133399533855000,7.06985498046875,0.5885722637176514,0.2235243171453476,-0.3600032329559326
1761133399553702100,7.0897021484375,0.5785542726516724,0.3499336540699005,-0.30639371275901794
1761133399573549000,7.109549072265625,0.6043303608894348,0.4118421971797943,-0.29004359245300293
1761133399593397200,7.129397216796875,0.6287403106689453,0.40144145488739014,-0.2849498391151428
1761133399613244200,7.149244140625,0.695393979549408,0.3953526020050049,-0.29712966084480286
1761133399633091000,7.169091064453125,0.726044774055481,0.25081947445869446,-0.07706557214260101
1761133399652938200,7.188938232421875,0.7394358515739441,0.14633552730083466,0.11128466576337814
1761133399672785200,7.20878515625,0.6760746240615845,0.08899308741092682,0.267394483089447
1761133399692632000,7.228632080078125,0.6286874413490295,-0.04056698828935623,0.3551078736782074
1761133399712479200,7.248479248046875,0.6178002953529358,-0.0636041909456253,0.3229486644268036
1761133399732327000,7.268326904296875,0.6301742196083069,-0.006671029608696699,0.20498281717300415
1761133399752174000,7.288174072265625,0.6261090636253357,-0.026658914983272552,0.020183708518743515
1761133399772021000,7.30802099609375,0.6439324617385864,0.003489917842671275,-0.11966010928153992
