time,seconds_elapsed,z,y,x
1761131718399409200,0.1304091796875,0.11910057067871094,0.04582107067108154,0.12937219440937042
1761131718419409200,0.1504091796875,0.1197042465209961,0.04298233985900879,0.13346871733665466
1761131718429409500,0.160409423828125,0.12028121948242188,0.04023087024688721,0.1370377540588379
1761131718439409700,0.17040966796875,0.1210784912109375,0.03639495372772217,0.14162319898605347
1761131718449403400,0.1804033203125,0.12141132354736328,0.03517436981201172,0.14594301581382751
1761131718459403300,0.1904033203125,0.12185859680175781,0.03341495990753174,0.15089663863182068
1761131718469403400,0.2004033203125,0.12239646911621094,0.03117835521697998,0.15595635771751404
1761131718479403300,0.2104033203125,0.12311744689941406,0.027984976768493652,0.16137251257896423
1761131718489403400,0.2204033203125,0.12407684326171875,0.02355349063873291,0.16729828715324402
1761131718499403300,0.2304033203125,0.12531185150146484,0.017685770988464355,0.17369750142097473
1761131718509403400,0.2404033203125,0.12680339813232422,0.01060783863067627,0.18112725019454956
1761131718519403300,0.2504033203125,0.1284809112548828,0.0027202367782592773,0.18946480751037598
1761131718529403400,0.2604033203125,0.13019275665283203,-0.005204319953918457,0.19822657108306885
1761131718539403300,0.2704033203125,0.1318187713623047,-0.012666583061218262,0.20649603009223938
1761131718549403400,0.2804033203125,0.13301658630371094,-0.01795196533203125,0.21348580718040466
1761131718559403300,0.2904033203125,0.1337909698486328,-0.021062731742858887,0.2194386124610901
1761131718569403400,0.3004033203125,0.1341876983642578,-0.022260069847106934,0.22444629669189453
1761131718579403300,0.3104033203125,0.1344003677368164,-0.0225679874420166,0.22881543636322021
1761131718589403400,0.3204033203125,0.1346597671508789,-0.023074984550476074,0.233411967754364
1761131718599403300,0.3304033203125,0.13510704040527344,-0.02449643611907959,0.2384955883026123
1761131718609403400,0.3404033203125,0.1357879638671875,-0.027108430862426758,0.24394875764846802
1761131718619403300,0.3504033203125,0.1486978530883789,0.11263298988342285,-0.12848123908042908
1761131718629403400,0.3604033203125,0.09695911407470703,0.11112594604492188,-0.13481098413467407
1761131718639403300,0.3704033203125,0.05247688293457031,0.11647927761077881,-0.13373297452926636
1761131718649402400,0.38040234375,0.024786949157714844,0.14326679706573486,-0.14685127139091492
1761131718659402200,0.39040234375,-0.07471179962158203,0.11727142333984375,-0.1266588568687439
1761131718669402400,0.40040234375,-0.14796066284179688,0.16342902183532715,-0.09285634756088257
1761131718679402200,0.41040234375,-0.14708995819091797,0.14780378341674805,-0.13612428307533264
1761131718689402400,0.42040234375,-0.09372901916503906,0.16429531574249268,-0.18659943342208862
1761131718699402200,0.43040234375,-0.06683921813964844,0.16475963592529297,-0.19402211904525757
1761131718709402400,0.44040234375,-0.04720115661621094,0.13435101509094238,-0.19479995965957642
1761131718719402200,0.45040234375,-0.04915142059326172,0.10649979114532471,-0.16955658793449402
1761131718729402400,0.46040234375,-0.01757049560546875,0.1193774938583374,-0.12477070093154907
1761131718739402200,0.47040234375,0.04277992248535156,0.12259912490844727,-0.12499722838401794
1761131718749403100,0.480403076171875,0.047982215881347656,0.1431267261505127,-0.13198024034500122
1761131718759403000,0.490403076171875,-0.023428916931152344,0.13007044792175293,-0.11055409908294678
1761131718769403100,0.500403076171875,-0.11393260955810547,0.12846314907073975,-0.06842643022537231
1761131718779403000,0.510403076171875,-0.11108589172363281,0.1579049825668335,-0.04866883158683777
1761131718789403100,0.520403076171875,-0.10840225219726562,0.12824535369873047,-0.08209839463233948
1761131718799403000,0.530403076171875,-0.0627593994140625,0.13042747974395752,-0.11319634318351746
1761131718809403100,0.540403076171875,-0.0028896331787109375,0.11180257797241211,-0.11555376648902893
1761131718819403300,0.5504033203125,0.0640726089477539,0.06984269618988037,-0.0958680808544159
1761131718829403100,0.560403076171875,0.11185550689697266,0.06875014305114746,-0.07847559452056885
1761131718839403000,0.570403076171875,0.12386894226074219,0.07660329341888428,-0.09171441197395325
1761131718849402400,0.58040234375,0.10257530212402344,0.07398843765258789,-0.104055255651474
1761131718859402200,0.59040234375,0.062427520751953125,0.0748605728149414,-0.12247946858406067
1761131718869402400,0.60040234375,-0.0038318634033203125,0.04116654396057129,-0.12367323040962219
1761131718879402200,0.61040234375,-0.08197784423828125,0.05487358570098877,-0.16099900007247925
1761131718889402400,0.62040234375,-0.14581966400146484,0.05930960178375244,-0.18408456444740295
1761131718899402200,0.63040234375,-0.1595745086669922,0.07187378406524658,-0.173984557390213
1761131718909402400,0.64040234375,-0.16399192810058594,0.0592724084854126,-0.15714946389198303
1761131718919402200,0.65040234375,-0.12320137023925781,0.03599095344543457,-0.12908589839935303
1761131718929402400,0.66040234375,-0.0850839614868164,0.03320944309234619,-0.09197884798049927
1761131718939402200,0.67040234375,-0.08780860900878906,0.02147078514099121,-0.05533796548843384
1761131718949403100,0.680403076171875,-0.09065532684326172,0.03652346134185791,0.023661136627197266
1761131718959403000,0.690403076171875,-0.08875751495361328,0.05404043197631836,0.02068120241165161
1761131718969403100,0.700403076171875,-0.08930206298828125,0.05752396583557129,0.022713005542755127
1761131718979403000,0.710403076171875,-0.0013437271118164062,0.01847541332244873,-0.02037525177001953
1761131718989403100,0.720403076171875,-0.01137542724609375,0.05062747001647949,-0.021750807762145996
1761131718999403000,0.730403076171875,-0.03321266174316406,0.031775832176208496,-0.02260911464691162
1761131719009403100,0.740403076171875,-0.011916160583496094,0.06311821937561035,-0.047075629234313965
1761131719019403000,0.750403076171875,-0.02404499053955078,0.08456861972808838,-0.0637468695640564
1761131719029403100,0.760403076171875,-0.055255889892578125,0.06972646713256836,-0.11400789022445679
1761131719039403000,0.770403076171875,-0.048069000244140625,0.07361125946044922,-0.11139076948165894
1761131719049402000,0.780402099609375,-0.040839195251464844,0.07976758480072021,-0.0941573977470398
1761131719059402200,0.79040234375,-0.0121002197265625,0.06469929218292236,-0.11488956212997437
1761131719069402000,0.800402099609375,-0.012122154235839844,0.06893110275268555,-0.09264171123504639
1761131719079402200,0.81040234375,-0.05535125732421875,0.06645405292510986,-0.09001767635345459
1761131719089402000,0.820402099609375,-0.017403602600097656,0.100852370262146,-0.14573967456817627
1761131719099402200,0.83040234375,0.0802602767944336,0.10251891613006592,-0.13195568323135376
1761131719109402000,0.840402099609375,0.08454418182373047,0.1115039587020874,-0.12751924991607666
1761131719119402200,0.85040234375,0.1057271957397461,0.10545945167541504,-0.12523585557937622
1761131719129402000,0.860402099609375,0.09837913513183594,0.09122359752655029,-0.09402740001678467
1761131719139402200,0.87040234375,0.06967449188232422,0.09286928176879883,-0.062371015548706055
1761131719149403100,0.880403076171875,0.012353897094726562,0.1225440502166748,-0.05493438243865967
1761131719159403000,0.890403076171875,-0.020918846130371094,0.12051713466644287,-0.08105570077896118
1761131719169403100,0.900403076171875,-0.08049392700195312,0.14939594268798828,-0.05223214626312256
1761131719179403000,0.910403076171875,-0.08465385437011719,0.1238623857498169,-0.04690849781036377
1761131719189403100,0.920403076171875,-0.0674142837524414,0.0917046070098877,-0.05193859338760376
1761131719199403000,0.930403076171875,-0.03358936309814453,0.08689665794372559,-0.040056705474853516
1761131719209403100,0.940403076171875,-0.03336620330810547,0.08749914169311523,-0.03493642807006836
1761131719219403000,0.950403076171875,0.06975650787353516,0.045362114906311035,-0.010481774806976318
1761131719229403100,0.960403076171875,0.0674142837524414,0.018203377723693848,-0.07478296756744385
1761131719239403000,0.970403076171875,0.03151893615722656,0.04386866092681885,-0.11290532350540161
1761131719249402400,0.98040234375,-0.01614856719970703,0.030189156532287598,-0.03599339723587036
1761131719259402200,0.99040234375,-0.03745841979980469,0.018695831298828125,0.019101738929748535
1761131719269402000,1.000402099609375,-0.09948253631591797,0.016806721687316895,0.04290437698364258
1761131719279402200,1.01040234375,-0.1495981216430664,0.02959764003753662,-0.0004348158836364746
1761131719289402000,1.020402099609375,-0.15435123443603516,0.03106534481048584,-0.031961262226104736
1761131719299402200,1.03040234375,-0.12332820892333984,0.018959760665893555,-0.03231203556060791
1761131719309402000,1.040402099609375,-0.03508472442626953,0.015249371528625488,-0.028210580348968506
1761131719319402200,1.05040234375,0.055316925048828125,0.0007615089416503906,-0.07230627536773682
1761131719329402000,1.060402099609375,0.08099365234375,-0.011043429374694824,-0.07377773523330688
1761131719339402200,1.07040234375,0.020461082458496094,-0.03982210159301758,-0.018633008003234863
1761131719349403100,1.080403076171875,-0.035241127014160156,-0.02360975742340088,-0.0024985074996948242
1761131719359403000,1.090403076171875,-0.047718048095703125,-0.02479720115661621,-0.031694114208221436
1761131719369403100,1.100403076171875,-0.05292510986328125,0.004861712455749512,-0.0005187392234802246
1761131719379403000,1.110403076171875,-0.046210289001464844,0.027688145637512207,-0.012269556522369385
1761131719389403100,1.120403076171875,-0.056278228759765625,0.02908170223236084,-0.06242167949676514
1761131719399403000,1.130403076171875,-0.07120513916015625,0.0546567440032959,-0.03635901212692261
1761131719409403100,1.140403076171875,-0.07894420623779297,0.020177364349365234,-0.03949630260467529
1761131719419403000,1.150403076171875,-0.04602336883544922,0.03133392333984375,-0.028484702110290527
1761131719429403100,1.160403076171875,0.0012454986572265625,0.03546011447906494,-0.02694237232208252
1761131719439403300,1.1704033203125,0.07237911224365234,0.0617070198059082,-0.04906725883483887
1761131719449402400,1.18040234375,0.11958694458007812,0.07116854190826416,-0.10217249393463135
1761131719459402500,1.190402587890625,0.16451263427734375,0.08028709888458252,-0.15222471952438354
1761131719469402400,1.20040234375,0.14740371704101562,0.0882951021194458,-0.13498961925506592
1761131719479402200,1.21040234375,0.09229087829589844,0.08245193958282471,-0.17794960737228394
1761131719489402400,1.22040234375,0.06853294372558594,0.09469246864318848,-0.16765576601028442
1761131719499402200,1.23040234375,0.07125282287597656,0.09196949005126953,-0.1353471279144287
1761131719509402400,1.24040234375,0.0691518783569336,0.07971155643463135,-0.10096538066864014
1761131719519402200,1.25040234375,0.07407379150390625,0.09893500804901123,-0.10382705926895142
1761131719529402400,1.26040234375,0.06199836730957031,0.13082456588745117,-0.0842929482460022
1761131719539402200,1.27040234375,0.05436420440673828,0.12549138069152832,-0.06685662269592285
1761131719549403100,1.280403076171875,0.07072067260742188,0.08631384372711182,-0.03757387399673462
1761131719559403300,1.2904033203125,0.0943593978881836,0.06829667091369629,-0.036599159240722656
1761131719569403100,1.300403076171875,0.17560863494873047,0.09292399883270264,-0.015511155128479004
1761131719579403300,1.3104033203125,0.2043924331665039,0.10723423957824707,-0.07718437910079956
1761131719589403100,1.320403076171875,0.19029617309570312,0.09880220890045166,-0.10042190551757812
1761131719599403300,1.3304033203125,0.0973672866821289,0.09622311592102051,-0.06934255361557007
1761131719609403100,1.340403076171875,0.03568077087402344,0.09502148628234863,-0.08934086561203003
1761131719619403300,1.3504033203125,0.017206192016601562,0.0977637767791748,-0.07385361194610596
1761131719629403100,1.360403076171875,0.0251007080078125,0.08605504035949707,-0.10126632452011108
1761131719639403300,1.3704033203125,0.05927848815917969,0.06517219543457031,-0.13804888725280762
1761131719649402400,1.38040234375,0.11974334716796875,0.061286211013793945,-0.1701526641845703
1761131719659402500,1.390402587890625,0.1418895721435547,0.08883535861968994,-0.13706958293914795
1761131719669402400,1.40040234375,0.1210479736328125,0.09191393852233887,-0.1253374218940735
1761131719679402500,1.410402587890625,0.07641220092773438,0.06528985500335693,-0.12835019826889038
1761131719689402400,1.42040234375,0.0678558349609375,0.040198445320129395,-0.13121795654296875
1761131719699402500,1.430402587890625,0.10245800018310547,0.058053016662597656,-0.17196178436279297
1761131719709402400,1.44040234375,0.10845088958740234,0.04921078681945801,-0.17367631196975708
1761131719719402500,1.450402587890625,0.0690011978149414,0.08070909976959229,-0.156549334526062
1761131719729402400,1.46040234375,0.017622947692871094,0.09245514869689941,-0.13078898191452026
1761131719739402500,1.470402587890625,-0.07201862335205078,0.058241963386535645,-0.08891278505325317
1761131719749403100,1.480403076171875,-0.11622905731201172,0.06010580062866211,-0.04750949144363403
1761131719759403300,1.4904033203125,-0.1031656265258789,0.08439481258392334,-0.032884836196899414
1761131719769403100,1.500403076171875,-0.032799720764160156,0.13119137287139893,-0.02768176794052124
1761131719779403300,1.5104033203125,0.020714759826660156,0.10192596912384033,-0.0343438982963562
1761131719789403100,1.520403076171875,0.06223487854003906,0.07038092613220215,-0.08179140090942383
1761131719799403300,1.5304033203125,0.07509708404541016,0.07684206962585449,-0.054855287075042725
1761131719809403100,1.540403076171875,0.08575439453125,0.051323771476745605,-0.022749245166778564
1761131719819403300,1.5504033203125,0.09904289245605469,0.05588960647583008,0.00029921531677246094
1761131719829403100,1.560403076171875,0.09325408935546875,0.06248784065246582,0.01619511842727661
1761131719839403300,1.5704033203125,0.06363773345947266,0.008652925491333008,0.0368649959564209
1761131719849402400,1.58040234375,0.06517887115478516,0.0000814199447631836,0.03573179244995117
1761131719859402200,1.59040234375,0.08336639404296875,0.044621825218200684,0.0005661249160766602
1761131719869402400,1.60040234375,0.06073760986328125,0.05606222152709961,-0.039961934089660645
1761131719879402200,1.61040234375,0.02131366729736328,0.024373412132263184,-0.011747896671295166
1761131719892819200,1.623819091796875,0.010578155517578125,-0.0024459362030029297,0.03756725788116455
1761131719902819300,1.6338193359375,-0.002593994140625,-0.07220268249511719,0.055464744567871094
1761131719912819200,1.643819091796875,0.044081687927246094,-0.1081317663192749,0.11951327323913574
1761131719922819300,1.6538193359375,0.021303176879882812,-0.12452459335327148,0.14110445976257324
1761131719932819200,1.663819091796875,0.022406578063964844,-0.12614810466766357,0.1389438509941101
1761131719942819300,1.6738193359375,-0.053315162658691406,-0.12938189506530762,0.10240161418914795
1761131719952820200,1.6838203125,-0.1459636688232422,-0.09625649452209473,0.10057395696640015
1761131719962820000,1.693820068359375,-0.18838787078857422,-0.17554593086242676,0.12216681241989136
1761131719972820200,1.7038203125,-0.2261180877685547,-0.2232069969177246,0.18446558713912964
1761131719982820000,1.713820068359375,-0.2975778579711914,-0.26031625270843506,0.21772658824920654
1761131719992820200,1.7238203125,-0.2998628616333008,-0.28167450428009033,0.22005581855773926
1761131720002820000,1.733820068359375,-0.3047914505004883,-0.3375762701034546,0.2466549575328827
1761131720012820200,1.7438203125,-0.27899169921875,-0.34355926513671875,0.19434139132499695
1761131720022820000,1.753820068359375,-0.24882030487060547,-0.3234487771987915,0.1612955927848816
1761131720032820200,1.7638203125,-0.2524433135986328,-0.3091766834259033,0.15201932191848755
1761131720042820000,1.773820068359375,-0.23225879669189453,-0.32539236545562744,0.1760411560535431
1761131720052819200,1.783819091796875,-0.22899627685546875,-0.3430976867675781,0.22177931666374207
1761131720062819300,1.7938193359375,-0.192535400390625,-0.3137720823287964,0.18333303928375244
1761131720072819200,1.803819091796875,-0.13002395629882812,-0.2349996566772461,0.09237146377563477
1761131720082819300,1.8138193359375,-0.0939168930053711,-0.16287469863891602,0.016134977340698242
1761131720092819200,1.823819091796875,-0.12470340728759766,-0.16065287590026855,0.005219817161560059
1761131720102819300,1.8338193359375,-0.1026163101196289,-0.13283085823059082,0.018970251083374023
1761131720112819200,1.843819091796875,-0.044414520263671875,-0.07697486877441406,0.038500189781188965
1761131720122819300,1.8538193359375,0.009133338928222656,-0.06705784797668457,0.03954195976257324
1761131720132819200,1.863819091796875,0.007668495178222656,-0.05975759029388428,0.03825300931930542
1761131720142819300,1.8738193359375,-0.046532630920410156,0.04092836380004883,0.06942814588546753
1761131720152820200,1.8838203125,0.004586219787597656,0.10803544521331787,0.006528735160827637
1761131720162820000,1.893820068359375,0.08685302734375,0.13448917865753174,-0.029617249965667725
1761131720172820200,1.9038203125,0.10456562042236328,0.15113425254821777,-0.03638160228729248
1761131720182820000,1.913820068359375,0.1203470230102539,0.13218259811401367,-0.02761232852935791
1761131720192820200,1.9238203125,0.1149139404296875,0.1739863157272339,-0.07063734531402588
1761131720202820000,1.933820068359375,0.10983467102050781,0.20691215991973877,-0.08431422710418701
1761131720212820200,1.9438203125,0.11696529388427734,0.20736205577850342,-0.11013346910476685
1761131720222820000,1.953820068359375,0.13375568389892578,0.15936625003814697,-0.1769983172416687
1761131720232820200,1.9638203125,0.15777301788330078,0.15662693977355957,-0.18879801034927368
1761131720242820000,1.973820068359375,0.23691654205322266,0.16800296306610107,-0.1740095019340515
1761131720252819500,1.9838193359375,0.2515392303466797,0.13087701797485352,-0.1950298547744751
1761131720262819300,1.9938193359375,0.23985862731933594,0.07894837856292725,-0.20726948976516724
1761131720272819200,2.003819091796875,0.22090530395507812,0.034322500228881836,-0.18468040227890015
1761131720282819300,2.0138193359375,0.23790836334228516,0.006108760833740234,-0.17922651767730713
1761131720292819200,2.023819091796875,0.24071598052978516,-0.03722274303436279,-0.15414267778396606
1761131720302819300,2.0338193359375,0.18388843536376953,-0.09101176261901855,-0.15688085556030273
1761131720312819200,2.043819091796875,0.07937049865722656,-0.07851946353912354,-0.1971038579940796
1761131720322819300,2.0538193359375,-0.012918472290039062,-0.08141136169433594,-0.2362331748008728
1761131720332819200,2.063819091796875,-0.12895774841308594,-0.0729522705078125,-0.1808398962020874
1761131720342819300,2.0738193359375,-0.12772846221923828,-0.07862913608551025,-0.1782674789428711
1761131720352820200,2.0838203125,-0.30637264251708984,-0.09251677989959717,-0.1095227599143982
1761131720362820000,2.093820068359375,-0.32021522521972656,-0.08066260814666748,-0.12552863359451294
1761131720372820200,2.1038203125,-0.2578153610229492,-0.10777652263641357,-0.1517980694770813
1761131720382820000,2.113820068359375,-0.20762920379638672,-0.11905789375305176,-0.1463855504989624
1761131720392820200,2.1238203125,-0.09776592254638672,-0.13149523735046387,-0.1616228222846985
1761131720402820000,2.133820068359375,-0.04299736022949219,-0.13380670547485352,-0.13730955123901367
1761131720412820200,2.1438203125,-0.07423782348632812,-0.1557372808456421,-0.11156201362609863
1761131720422820000,2.153820068359375,-0.11506366729736328,-0.14417052268981934,-0.10996270179748535
1761131720432820200,2.1638203125,-0.14632415771484375,-0.08945846557617188,-0.14193350076675415
1761131720442820000,2.173820068359375,-0.1512889862060547,-0.0632486343383789,-0.1619468331336975
1761131720452819500,2.1838193359375,-0.1731700897216797,-0.045981764793395996,-0.16583627462387085
1761131720462819300,2.1938193359375,-0.07799530029296875,-0.015612244606018066,-0.15132194757461548
1761131720472819500,2.2038193359375,0.03129768371582031,0.013578057289123535,-0.19220882654190063
1761131720482819300,2.2138193359375,0.06159210205078125,0.03338015079498291,-0.18938666582107544
1761131720492819200,2.223819091796875,0.07051467895507812,0.026027202606201172,-0.1455378532409668
1761131720502819300,2.2338193359375,0.08913421630859375,0.05387771129608154,-0.13782107830047607
1761131720512819200,2.243819091796875,0.1030740737915039,0.057207703590393066,-0.11337125301361084
1761131720522819300,2.2538193359375,0.09795475006103516,0.03838193416595459,-0.09879988431930542
1761131720532819200,2.263819091796875,0.0952911376953125,0.01893329620361328,-0.053909361362457275
1761131720542819300,2.2738193359375,0.1475992202758789,0.0691518783569336,-0.057698071002960205
1761131720552820200,2.2838203125,0.2021923065185547,0.1172935962677002,-0.09100157022476196
1761131720562820000,2.293820068359375,0.18262290954589844,0.12185132503509521,-0.06252795457839966
1761131720572820200,2.3038203125,0.13459300994873047,0.08406281471252441,0.027693450450897217
1761131720582820000,2.313820068359375,0.04125785827636719,0.028162598609924316,0.07384836673736572
1761131720592820200,2.3238203125,0.027009010314941406,0.038907527923583984,0.026710331439971924
1761131720602820000,2.333820068359375,0.05826568603515625,0.08577680587768555,-0.000444948673248291
1761131720612819700,2.34381982421875,0.09439849853515625,0.0773848295211792,-0.012465476989746094
1761131720622819800,2.35381982421875,0.08989715576171875,0.04959583282470703,-0.009782135486602783
1761131720632819700,2.36381982421875,0.03760337829589844,0.006864666938781738,0.023799240589141846
1761131720642819800,2.37381982421875,0.004550933837890625,0.01358342170715332,-0.0010742545127868652
1761131720652819000,2.38381884765625,-0.023688316345214844,-0.008565187454223633,-0.035537123680114746
1761131720662818800,2.39381884765625,-0.0854940414428711,-0.02336704730987549,-0.02959495782852173
1761131720672819000,2.40381884765625,-0.09956645965576172,-0.028032660484313965,-0.014801740646362305
1761131720682818800,2.41381884765625,-0.02760791778564453,-0.05813002586364746,0.019243478775024414
1761131720692819000,2.42381884765625,0.02989673614501953,-0.10193347930908203,0.04425990581512451
1761131720702818800,2.43381884765625,0.029816627502441406,-0.09007537364959717,0.07382470369338989
1761131720712819000,2.44381884765625,-0.015814781188964844,-0.0828937292098999,0.0836138129234314
1761131720722818800,2.45381884765625,-0.037568092346191406,-0.01573657989501953,0.05204582214355469
1761131720732819000,2.46381884765625,-0.037812232971191406,-0.015473723411560059,0.049030601978302
1761131720742818800,2.47381884765625,-0.014064788818359375,-0.01771676540374756,0.08234232664108276
1761131720752819700,2.48381982421875,0.02167224884033203,-0.02937948703765869,0.10441946983337402
1761131720762819600,2.493819580078125,0.07428646087646484,-0.0150221586227417,0.026880383491516113
1761131720772819700,2.50381982421875,0.03369712829589844,0.005915164947509766,0.022085905075073242
1761131720782819600,2.513819580078125,-0.047341346740722656,0.008834362030029297,0.06064635515213013
1761131720792819700,2.52381982421875,-0.09473419189453125,-0.0009073019027709961,0.022544682025909424
1761131720802819600,2.533819580078125,-0.08470535278320312,0.025457262992858887,0.015543758869171143
1761131720812819700,2.54381982421875,-0.005455970764160156,0.04088103771209717,0.017796993255615234
1761131720822819800,2.55381982421875,0.0209503173828125,0.011696934700012207,0.02953803539276123
1761131720832819700,2.56381982421875,0.018579483032226562,0.020942091941833496,0.0528751015663147
1761131720842819800,2.57381982421875,0.0018110275268554688,0.08040332794189453,0.07072484493255615
1761131720852819000,2.58381884765625,-0.026859283447265625,0.09632253646850586,0.06441366672515869
1761131720862818800,2.59381884765625,-0.055441856384277344,0.08557260036468506,0.04892301559448242
1761131720872819000,2.60381884765625,-0.07912445068359375,0.06980836391448975,0.05126214027404785
1761131720882818800,2.61381884765625,-0.009385108947753906,0.022886991500854492,0.06385022401809692
1761131720892818700,2.623818603515625,0.05550575256347656,0.005132436752319336,0.09594237804412842
1761131720902818600,2.633818603515625,0.1011209487915039,0.009347200393676758,0.09860670566558838
1761131720912819000,2.64381884765625,0.0914449691772461,0.011823177337646484,0.07811963558197021
1761131720922819000,2.653819091796875,0.0672750473022461,0.04089939594268799,0.09231841564178467
1761131720932819000,2.66381884765625,0.021513938903808594,0.00994563102722168,0.1124696135520935
1761131720942819000,2.673819091796875,0.0020656585693359375,0.0029578208923339844,0.149027019739151
1761131720952820000,2.683820068359375,-0.02457141876220703,-0.008784294128417969,0.2047247588634491
1761131720962819800,2.69381982421875,-0.02483654022216797,-0.023080825805664062,0.20062503218650818
1761131720972820000,2.703820068359375,-0.04430961608886719,-0.025144219398498535,0.174864262342453
1761131720982819800,2.71381982421875,-0.09008026123046875,-0.02012646198272705,0.14701348543167114
1761131720992820000,2.723820068359375,-0.14287376403808594,-0.034505605697631836,0.12821641564369202
1761131721002819800,2.73381982421875,-0.1860952377319336,-0.060895323753356934,0.13553977012634277
1761131721012820000,2.743820068359375,-0.1671733856201172,-0.06273674964904785,0.13100257515907288
1761131721022819800,2.75381982421875,-0.16758251190185547,-0.061151862144470215,0.12912985682487488
1761131721032820000,2.763820068359375,-0.06757068634033203,-0.03709685802459717,0.12068596482276917
1761131721042819800,2.77381982421875,-0.0872964859008789,-0.03680288791656494,0.08120495080947876
1761131721052819000,2.78381884765625,-0.07352066040039062,0.030565738677978516,0.05590415000915527
1761131721062819000,2.793819091796875,-0.045470237731933594,0.04569864273071289,0.04478609561920166
1761131721072819000,2.80381884765625,-0.04860687255859375,0.025166034698486328,0.05728405714035034
1761131721082819000,2.813819091796875,-0.09248161315917969,0.007190704345703125,0.09601888060569763
1761131721092819000,2.82381884765625,-0.1507549285888672,0.020441293716430664,0.02672886848449707
1761131721102819000,2.833819091796875,-0.06789970397949219,0.024852275848388672,0.03172707557678223
1761131721112819000,2.84381884765625,0.03405189514160156,0.05152428150177002,0.0068174004554748535
1761131721122819000,2.853819091796875,0.040297508239746094,0.07799506187438965,-0.00808805227279663
1761131721132819000,2.86381884765625,-0.0155792236328125,0.05580174922943115,0.019733011722564697
1761131721142819000,2.873819091796875,-0.061774253845214844,0.08318257331848145,0.051925599575042725
1761131721152819700,2.88381982421875,0.004603385925292969,0.08165597915649414,0.04839646816253662
1761131721162819800,2.89381982421875,0.047019004821777344,0.10196208953857422,0.016679823398590088
1761131721172820000,2.903820068359375,0.07032489776611328,0.09813284873962402,-0.0053389668464660645
1761131721182819800,2.91381982421875,0.0840911865234375,0.09168517589569092,-0.041792094707489014
1761131721192820200,2.9238203125,0.12423229217529297,0.09708893299102783,-0.02291351556777954
1761131721202820000,2.933820068359375,0.15495014190673828,0.05644786357879639,0.016019701957702637
1761131721212820200,2.9438203125,0.14504241943359375,0.04905533790588379,0.005146622657775879
1761131721222820000,2.953820068359375,0.1496286392211914,0.09380805492401123,-0.03866618871688843
1761131721232820200,2.9638203125,0.11618804931640625,0.10363280773162842,-0.13231360912322998
1761131721242820000,2.973820068359375,0.054164886474609375,0.08644676208496094,-0.1465224027633667
1761131721252786000,2.983785888671875,0.035338401794433594,0.07114720344543457,-0.16535085439682007
1761131721262752500,2.99375244140625,0.0070056915283203125,0.03641080856323242,-0.11444556713104248
1761131721272719400,3.00371923828125,-0.033326148986816406,0.02339649200439453,-0.07546758651733398
1761131721282686000,3.01368603515625,-0.04981422424316406,0.0035789012908935547,-0.029808878898620605
1761131721292652500,3.023652587890625,-0.0521697998046875,-0.008103370666503906,-0.006741702556610107
1761131721302619400,3.033619384765625,-0.07151508331298828,0.01709163188934326,-0.02533203363418579
1761131721312586000,3.0435859375,-0.0861063003540039,0.035245537757873535,0.001426100730895996
1761131721322552600,3.053552490234375,-0.12226295471191406,0.0056304931640625,0.02824801206588745
1761131721332519200,3.063519287109375,-0.08897113800048828,-0.0023435354232788086,0.03647005558013916
1761131721342486000,3.073486083984375,-0.041355133056640625,-0.0026472806930541992,0.011925458908081055
1761131721352453400,3.083453369140625,0.008676528930664062,0.05957448482513428,-0.021035850048065186
1761131721362420200,3.093420166015625,0.030060768127441406,0.05682981014251709,-0.000925898551940918
1761131721372386800,3.10338671875,-0.02747821807861328,0.027071118354797363,0.011381924152374268
1761131721382353400,3.113353515625,-0.06812667846679688,0.056262969970703125,-0.015141546726226807
1761131721392320300,3.1233203125,-0.048847198486328125,0.044632911682128906,-0.03364133834838867
1761131721402286800,3.133286865234375,-0.03675270080566406,0.05250084400177002,0.015837788581848145
1761131721412253400,3.14325341796875,-0.0031824111938476562,0.0872642993927002,-0.04919499158859253
1761131721422220300,3.15322021484375,0.047158241271972656,0.10788202285766602,-0.07754987478256226
1761131721432187000,3.163186767578125,0.12618160247802734,0.11441981792449951,-0.07237517833709717
1761131721442153500,3.173153564453125,0.17399883270263672,0.10195434093475342,-0.051354050636291504
1761131721452119300,3.183119384765625,0.2073984146118164,0.07033860683441162,-0.057511329650878906
1761131721462086000,3.1930859375,0.20725345611572266,0.07225334644317627,-0.05446004867553711
1761131721472052700,3.203052734375,0.3244810104370117,0.06915533542633057,0.001471400260925293
1761131721482019300,3.213019287109375,0.3558206558227539,0.052625179290771484,0.0005981326103210449
1761131721491986000,3.22298583984375,0.2701425552368164,0.0488971471786499,0.04073178768157959
1761131721501952500,3.232952392578125,0.16082763671875,0.0841059684753418,0.05913817882537842
1761131721511919400,3.24291943359375,0.05413627624511719,0.09881222248077393,0.0845000147819519
1761131721521886000,3.252885986328125,-0.03571128845214844,0.07703590393066406,0.08801877498626709
1761131721531852500,3.2628525390625,-0.06334114074707031,0.07208609580993652,0.09596407413482666
1761131721541819400,3.2728193359375,-0.04318428039550781,0.048554420471191406,0.12548571825027466
1761131721551820000,3.282820068359375,-0.03750801086425781,0.044827818870544434,0.11908406019210815
1761131721561820200,3.292820068359375,-0.03665924072265625,0.055635690689086914,0.13406115770339966
1761131721571820000,3.302820068359375,-0.06693840026855469,0.04242217540740967,0.15116310119628906
1761131721581820200,3.312820068359375,-0.08281421661376953,0.007410645484924316,0.15134364366531372
1761131721591820000,3.322820068359375,-0.11533737182617188,0.010245442390441895,0.14472436904907227
1761131721601820200,3.332820068359375,-0.15249919891357422,0.03407299518585205,0.10046297311782837
1761131721611820000,3.342820068359375,-0.24214935302734375,0.03104269504547119,0.07654333114624023
1761131721621820200,3.352820068359375,-0.30056190490722656,0.05668067932128906,0.08989256620407104
1761131721631820000,3.362820068359375,-0.3543243408203125,0.06878483295440674,0.06744259595870972
1761131721641820200,3.372820068359375,-0.3556804656982422,0.04883301258087158,0.03297668695449829
1761131721651819300,3.3828193359375,-0.32863521575927734,0.11204099655151367,0.0007989406585693359
1761131721661819400,3.3928193359375,-0.3115081787109375,0.10508239269256592,0.0111769437789917
1761131721671819300,3.4028193359375,-0.26843929290771484,0.0950479507446289,-0.0034734606742858887
1761131721681819100,3.412819091796875,-0.23288822174072266,0.10582602024078369,-0.02333235740661621
1761131721691819300,3.4228193359375,-0.1329345703125,0.09645044803619385,-0.04302746057510376
1761131721701819100,3.432819091796875,0.06499958038330078,0.10987222194671631,-0.033438146114349365
1761131721711819300,3.4428193359375,0.22687435150146484,0.12900614738464355,-0.004477083683013916
1761131721721819100,3.452819091796875,0.3241386413574219,0.12382197380065918,0.02152860164642334
1761131721731819300,3.4628193359375,0.2802610397338867,0.11267983913421631,0.019832253456115723
1761131721741819400,3.4728193359375,0.22941017150878906,0.15265190601348877,0.02674347162246704
1761131721751820000,3.482820068359375,0.20273590087890625,0.1815122365951538,-0.007624506950378418
1761131721761820200,3.492820068359375,0.09014892578125,0.1945282220840454,0.034741878509521484
1761131721771820000,3.502820068359375,0.01611042022705078,0.19654488563537598,0.02184903621673584
1761131721781820200,3.512820068359375,0.002101898193359375,0.16406786441802979,0.054432570934295654
1761131721791820000,3.522820068359375,0.0839395523071289,0.1671503782272339,0.09917420148849487
1761131721801820200,3.532820068359375,0.27823829650878906,0.06753146648406982,0.021521568298339844
1761131721811820300,3.5428203125,0.2784585952758789,0.06644761562347412,0.021831929683685303
1761131721821820200,3.552820068359375,0.15713882446289062,0.24985969066619873,0.08558255434036255
1761131721831820300,3.5628203125,-0.1553792953491211,0.10352742671966553,-0.03000575304031372
1761131721841820200,3.572820068359375,-0.06092548370361328,0.025507092475891113,-0.0426601767539978
1761131721851819300,3.5828193359375,0.0808248519897461,0.052457451820373535,-0.093167245388031
1761131721861819400,3.5928193359375,0.11934661865234375,0.07623505592346191,-0.1051492691040039
1761131721871819300,3.6028193359375,0.09067821502685547,0.0857769250869751,-0.10203617811203003
1761131721881819400,3.6128193359375,0.009332656860351562,0.05882668495178223,-0.08598202466964722
1761131721891819300,3.6228193359375,-0.06719589233398438,0.016997337341308594,-0.08276498317718506
1761131721901819400,3.6328193359375,-0.05047893524169922,-0.009988784790039062,-0.0417596697807312
1761131721911819300,3.6428193359375,0.013804435729980469,-0.04268753528594971,-0.03969371318817139
1761131721921819400,3.6528193359375,0.13758563995361328,-0.09275650978088379,-0.014093399047851562
1761131721931819300,3.6628193359375,0.2180194854736328,-0.07702398300170898,-0.024965763092041016
1761131721941819400,3.6728193359375,0.20279216766357422,-0.10978007316589355,-0.007190585136413574
1761131721951820000,3.682820068359375,0.08500099182128906,-0.13017606735229492,0.041961491107940674
1761131721961820200,3.692820068359375,-0.08977603912353516,-0.12900149822235107,0.017461538314819336
1761131721971820000,3.702820068359375,-0.19481945037841797,-0.11233627796173096,-0.046834468841552734
1761131721981820200,3.712820068359375,-0.2806053161621094,-0.1005324125289917,-0.10512793064117432
1761131721991820000,3.722820068359375,-0.2684144973754883,-0.10183370113372803,-0.1460714340209961
1761131722001820200,3.732820068359375,-0.2756681442260742,-0.11102104187011719,-0.1748044490814209
1761131722011820000,3.742820068359375,-0.2760305404663086,-0.10901284217834473,-0.17474782466888428
1761131722021820200,3.752820068359375,-0.21452808380126953,-0.1291409730911255,-0.13950318098068237
1761131722031820000,3.762820068359375,-0.16530895233154297,-0.12148809432983398,-0.14564502239227295
1761131722041820200,3.772820068359375,-0.10674858093261719,-0.1556147336959839,-0.1925104856491089
1761131722051819300,3.7828193359375,-0.01955699920654297,-0.15783870220184326,-0.15028542280197144
1761131722061819400,3.7928193359375,0.08675384521484375,-0.15953779220581055,-0.16000962257385254
1761131722071819300,3.8028193359375,0.1595010757446289,-0.15571963787078857,-0.16390055418014526
1761131722081819400,3.8128193359375,0.12459659576416016,-0.16154968738555908,-0.18843543529510498
1761131722091819300,3.8228193359375,0.0780038833618164,-0.1685655117034912,-0.1570165753364563
1761131722101819100,3.832819091796875,-0.009011268615722656,-0.12404930591583252,-0.1078919768333435
1761131722111819300,3.8428193359375,-0.06711387634277344,-0.11157596111297607,-0.11361807584762573
1761131722121819100,3.852819091796875,-0.10847854614257812,-0.06573057174682617,-0.14878159761428833
1761131722131819300,3.8628193359375,-0.03504657745361328,0.02363884449005127,-0.09844803810119629
1761131722141819100,3.872819091796875,-0.021657943725585938,-0.025084376335144043,-0.2595694065093994
1761131722151820000,3.882820068359375,0.005900382995605469,0.013496041297912598,-0.2053011655807495
1761131722161820200,3.892820068359375,0.0692758560180664,0.013933777809143066,-0.14961975812911987
1761131722171820000,3.902820068359375,0.11129474639892578,0.027874231338500977,-0.15091389417648315
1761131722181820200,3.912820068359375,0.15365028381347656,-0.0028384923934936523,-0.16330987215042114
1761131722191820000,3.922820068359375,0.10536575317382812,0.000645756721496582,-0.17275172472000122
1761131722201820200,3.932820068359375,0.019083023071289062,0.021593928337097168,-0.13166862726211548
1761131722211820000,3.942820068359375,-0.0023927688598632812,0.031828880310058594,-0.10056173801422119
1761131722221820200,3.952820068359375,-0.08141040802001953,0.06339430809020996,-0.06379008293151855
1761131722231820000,3.962820068359375,-0.15094375610351562,0.06127583980560303,-0.03575479984283447
1761131722241820200,3.972820068359375,-0.15364456176757812,0.04052269458770752,-0.03797173500061035
1761131722251819300,3.9828193359375,-0.13013839721679688,0.03958940505981445,-0.06195443868637085
1761131722261819400,3.9928193359375,-0.05644035339355469,0.04878437519073486,-0.07626807689666748
1761131722271819300,4.0028193359375,0.0003910064697265625,0.02978503704071045,-0.033346712589263916
1761131722281819400,4.0128193359375,0.0714864730834961,0.00886833667755127,-0.021840691566467285
1761131722291819300,4.0228193359375,0.061133384704589844,-0.03832590579986572,-0.018014967441558838
1761131722301819400,4.0328193359375,0.06042194366455078,-0.0598294734954834,0.01154416799545288
1761131722311819300,4.0428193359375,0.11484050750732422,-0.07208669185638428,-0.0043357014656066895
1761131722321819400,4.0528193359375,0.11904239654541016,-0.07734537124633789,0.008914589881896973
1761131722331819300,4.0628193359375,0.08258247375488281,-0.10443603992462158,0.03161138296127319
1761131722341819400,4.0728193359375,0.04853534698486328,-0.1245722770690918,0.05640369653701782
1761131722351820000,4.082820068359375,0.03603172302246094,-0.10153162479400635,0.062140047550201416
1761131722361820200,4.092820068359375,-0.005242347717285156,-0.1070854663848877,0.03172785043716431
1761131722371820000,4.102820068359375,-0.0058116912841796875,-0.10560750961303711,0.027296245098114014
1761131722381820200,4.112820068359375,-0.1308889389038086,-0.09699678421020508,0.0848432183265686
1761131722391820000,4.122820068359375,-0.19851207733154297,-0.11218523979187012,0.08273661136627197
1761131722401820200,4.132820068359375,-0.24709224700927734,-0.10760056972503662,0.09486716985702515
1761131722411820000,4.142820068359375,-0.2886381149291992,-0.11174070835113525,0.13080686330795288
1761131722421820200,4.152820068359375,-0.23450660705566406,-0.1532890796661377,0.14357984066009521
1761131722431820000,4.162820068359375,-0.1709146499633789,-0.09071290493011475,0.15983843803405762
1761131722441820200,4.172820068359375,-0.1002798080444336,-0.0749354362487793,0.138261616230011
1761131722451819300,4.1828193359375,-0.07044219970703125,-0.09446477890014648,0.13106530904769897
1761131722461819100,4.192819091796875,-0.03343391418457031,-0.10676229000091553,0.1548609733581543
1761131722471819300,4.2028193359375,0.0034999847412109375,-0.09006917476654053,0.1445707082748413
1761131722481819100,4.212819091796875,0.0786123275756836,-0.07994115352630615,0.10263371467590332
1761131722491819300,4.2228193359375,0.10098743438720703,-0.047881126403808594,0.0653485655784607
1761131722501819100,4.232819091796875,0.13538742065429688,-0.05187511444091797,0.059498608112335205
1761131722511819300,4.2428193359375,0.14358806610107422,-0.051596641540527344,0.09266352653503418
1761131722521819100,4.252819091796875,0.15434932708740234,-0.02340221405029297,0.0855947732925415
1761131722531819300,4.2628193359375,0.1675853729248047,-0.01708698272705078,0.07167750597000122
1761131722541819100,4.272819091796875,0.168853759765625,0.0012116432189941406,0.10085463523864746
1761131722551820000,4.282820068359375,0.16777420043945312,0.0072596073150634766,0.13241279125213623
1761131722561820200,4.292820068359375,0.19794940948486328,0.0461353063583374,0.14507758617401123
1761131722571820000,4.302820068359375,0.2259368896484375,0.06492793560028076,0.07483029365539551
1761131722581820200,4.312820068359375,0.2805194854736328,0.06560707092285156,0.06276524066925049
1761131722591820000,4.322820068359375,0.2634439468383789,0.05788755416870117,0.07909762859344482
1761131722601820000,4.33281982421875,0.1437206268310547,0.07458877563476562,0.06200224161148071
1761131722611820300,4.3428203125,0.1127471923828125,0.04934096336364746,0.02529919147491455
1761131722621820400,4.3528203125,-0.004375457763671875,0.013855218887329102,0.0307958722114563
1761131722631820300,4.3628203125,-0.0807342529296875,0.07348597049713135,0.014125645160675049
1761131722641820400,4.3728203125,-0.10210895538330078,0.05918526649475098,-0.0007522702217102051
1761131722651819500,4.382819580078125,-0.10917091369628906,0.04556262493133545,-0.043541133403778076
1761131722661819600,4.392819580078125,-0.049368858337402344,0.004312753677368164,-0.048085033893585205
1761131722671819500,4.402819580078125,0.010270118713378906,-0.00006461143493652344,-0.02646702527999878
1761131722681819400,4.4128193359375,0.06970691680908203,-0.0036482810974121094,-0.0013243556022644043
1761131722691819500,4.422819580078125,0.0644388198852539,-0.0166170597076416,-0.0030274391174316406
1761131722701819400,4.4328193359375,0.0352783203125,-0.04675781726837158,0.004578053951263428
1761131722711819500,4.442819580078125,-0.022539138793945312,-0.05109727382659912,-0.01671820878982544
1761131722721819400,4.4528193359375,-0.04192829132080078,-0.06557071208953857,-0.03749358654022217
1761131722731819500,4.462819580078125,-0.02062511444091797,-0.06070899963378906,-0.05321305990219116
1761131722741819400,4.4728193359375,0.0005998611450195312,-0.016965866088867188,-0.05920153856277466
1761131722751820300,4.4828203125,-0.038125038146972656,-0.03503870964050293,-0.0488971471786499
1761131722761820400,4.4928203125,-0.06255245208740234,-0.026658177375793457,0.027594566345214844
1761131722771820300,4.5028203125,-0.11095523834228516,-0.07572734355926514,0.11070361733436584
1761131722781820400,4.5128203125,-0.058811187744140625,-0.05259251594543457,0.0844498872756958
1761131722791820300,4.5228203125,0.026782989501953125,-0.04782819747924805,0.03987962007522583
1761131722801820400,4.5328203125,0.1123971939086914,-0.011600136756896973,0.018056273460388184
1761131722811820500,4.542820556640625,0.17639923095703125,-0.02778792381286621,-0.0018176436424255371
1761131722821820400,4.5528203125,0.19257831573486328,-0.054097652435302734,0.0401078462600708
1761131722831820500,4.562820556640625,0.1562347412109375,-0.04315626621246338,0.081809401512146
1761131722841820400,4.5728203125,0.12726497650146484,-0.05493128299713135,0.09254679083824158
1761131722851819500,4.582819580078125,0.12718677520751953,-0.05560314655303955,0.08938989043235779
1761131722861819600,4.592819580078125,0.06496429443359375,-0.023254752159118652,0.03642404079437256
1761131722871819500,4.602819580078125,-0.025938034057617188,0.08294343948364258,0.014448046684265137
1761131722881819600,4.612819580078125,-0.06174755096435547,0.07186055183410645,-0.002193629741668701
1761131722891819500,4.622819580078125,-0.07835960388183594,0.017635226249694824,0.046444058418273926
1761131722901819600,4.632819580078125,-0.05193805694580078,-0.03624677658081055,0.020693182945251465
1761131722911819300,4.6428193359375,0.0054988861083984375,-0.005475759506225586,-0.007027029991149902
1761131722921819100,4.652819091796875,0.0962820053100586,0.004831910133361816,-0.05640244483947754
1761131722931819300,4.6628193359375,0.14632225036621094,0.01058804988861084,-0.04362916946411133
1761131722941819100,4.672819091796875,0.10783863067626953,0.003813505172729492,-0.00975733995437622
1761131722951820000,4.682820068359375,0.040805816650390625,0.010219454765319824,-0.0118483304977417
1761131722961820200,4.692820068359375,-0.01885986328125,-0.006009221076965332,0.012702584266662598
1761131722971820000,4.702820068359375,-0.028148651123046875,-0.0010745525360107422,0.049926042556762695
1761131722981820200,4.712820068359375,-0.025485992431640625,0.006532788276672363,0.04447668790817261
1761131722991820000,4.722820068359375,0.02019023895263672,0.007485628128051758,0.024635791778564453
1761131723001820200,4.732820068359375,0.060843467712402344,-0.00002300739288330078,-0.04179662466049194
1761131723011820000,4.742820068359375,0.041413307189941406,0.014954686164855957,0.0075397491455078125
1761131723021820200,4.752820068359375,0.012473106384277344,0.007826685905456543,0.08521431684494019
1761131723031820000,4.762820068359375,-0.013859748840332031,-0.05051922798156738,0.13059362769126892
1761131723041820200,4.772820068359375,-0.011199951171875,-0.04036307334899902,0.1781807839870453
1761131723051819300,4.7828193359375,-0.06348228454589844,-0.00900733470916748,0.13368937373161316
1761131723061819400,4.7928193359375,-0.06299781799316406,-0.01134181022644043,0.13594815135002136
1761131723071819300,4.8028193359375,0.014049530029296875,0.03226363658905029,-0.07216352224349976
1761131723081819400,4.8128193359375,0.01920318603515625,0.04038393497467041,-0.07202690839767456
1761131723091819300,4.8228193359375,0.014731407165527344,0.0029463768005371094,-0.005940854549407959
1761131723101819100,4.832819091796875,-0.01844501495361328,0.04181325435638428,0.021408379077911377
1761131723111819300,4.8428193359375,-0.04916954040527344,0.0061637163162231445,0.0034605860710144043
1761131723121819100,4.852819091796875,-0.06550121307373047,0.027858376502990723,0.002441704273223877
1761131723131819300,4.8628193359375,-0.026903152465820312,0.01926112174987793,-0.03222256898880005
1761131723141819100,4.872819091796875,0.032988548278808594,0.004800319671630859,-0.03902733325958252
1761131723151820000,4.882820068359375,0.1309213638305664,-0.015534400939941406,0.0033840537071228027
1761131723161820200,4.892820068359375,0.1304922103881836,-0.013331413269042969,0.0018590688705444336
1761131723171820000,4.902820068359375,0.1947164535522461,-0.044817447662353516,0.11254227161407471
1761131723181820200,4.912820068359375,0.18731689453125,-0.03675401210784912,0.20687609910964966
1761131723191820000,4.922820068359375,0.04865264892578125,-0.011712193489074707,0.1589263677597046
1761131723201820200,4.932820068359375,-0.05611896514892578,-0.01503455638885498,0.10481172800064087
1761131723211820000,4.942820068359375,-0.1296367645263672,0.005032539367675781,0.041873812675476074
1761131723221820200,4.952820068359375,-0.11943340301513672,0.0016963481903076172,-0.01375502347946167
1761131723231820000,4.962820068359375,-0.05192852020263672,-0.0220644474029541,0.0027475953102111816
1761131723241820200,4.972820068359375,0.013026237487792969,-0.08057105541229248,0.06525114178657532
1761131723251819300,4.9828193359375,0.0061550140380859375,-0.1056596040725708,0.12026423215866089
1761131723261819400,4.9928193359375,-0.012722015380859375,-0.08531594276428223,0.11700659990310669
1761131723271819300,5.0028193359375,-0.0268402099609375,-0.03867363929748535,0.0795992910861969
1761131723281819100,5.012819091796875,-0.03145122528076172,-0.010915756225585938,0.020144104957580566
1761131723291819300,5.0228193359375,-0.03855133056640625,-0.006668686866760254,-0.01580566167831421
1761131723301819400,5.0328193359375,-0.0122222900390625,-0.03288066387176514,-0.013209342956542969
1761131723311819300,5.0428193359375,-0.012254714965820312,-0.04925692081451416,0.0399855375289917
1761131723321819400,5.0528193359375,-0.043365478515625,-0.060994625091552734,0.09594598412513733
1761131723331819300,5.0628193359375,-0.09103107452392578,-0.06173229217529297,0.10014727711677551
1761131723341819100,5.072819091796875,-0.1481494903564453,-0.07022559642791748,0.07858702540397644
1761131723351820000,5.082820068359375,-0.11439990997314453,0.039332032203674316,-0.017127394676208496
1761131723361820200,5.092820068359375,-0.056891441345214844,0.0422215461730957,-0.08432590961456299
1761131723371820000,5.102820068359375,0.024260520935058594,0.025138258934020996,-0.08058935403823853
1761131723381820200,5.112820068359375,0.08128643035888672,0.030371904373168945,-0.027638375759124756
1761131723391820000,5.122820068359375,0.1215057373046875,-0.055370450019836426,0.05557548999786377
1761131723401820200,5.132820068359375,0.1259479522705078,-0.0221937894821167,0.10068687796592712
1761131723411820000,5.142820068359375,0.08988189697265625,0.026772022247314453,0.06267160177230835
1761131723421820200,5.152820068359375,0.030060768127441406,0.04371070861816406,0.01827901601791382
1761131723431820000,5.162820068359375,-0.02239704132080078,0.05721604824066162,-0.001906752586364746
1761131723441820200,5.172820068359375,-0.024541854858398438,0.046547889709472656,-0.01491248607635498
1761131723451819300,5.1828193359375,-0.024341583251953125,0.0457993745803833,-0.01349872350692749
1761131723461819400,5.1928193359375,0.021282196044921875,0.011888623237609863,0.03084021806716919
1761131723471819300,5.2028193359375,0.07165336608886719,0.03809976577758789,0.008170902729034424
1761131723481819100,5.212819091796875,0.12201881408691406,0.04042685031890869,-0.03123009204864502
1761131723491819300,5.2228193359375,0.09588623046875,0.044434309005737305,-0.05617570877075195
1761131723501819100,5.232819091796875,0.0029096603393554688,0.035149335861206055,-0.050280213356018066
1761131723511819300,5.2428193359375,-0.061203956604003906,0.003379344940185547,-0.042269349098205566
1761131723521819400,5.2528193359375,-0.05836009979248047,0.010425925254821777,-0.04146087169647217
1761131723531819300,5.2628193359375,-0.0054187774658203125,0.013852953910827637,-0.06451451778411865
1761131723541819400,5.2728193359375,0.06409740447998047,0.011127114295959473,-0.054382920265197754
1761131723551820000,5.282820068359375,0.15021610260009766,-0.014758110046386719,-0.049613356590270996
1761131723561820200,5.292820068359375,0.15015792846679688,-0.01687610149383545,-0.06422781944274902
1761131723571820000,5.302820068359375,0.07602119445800781,-0.05100452899932861,-0.033339083194732666
1761131723581820200,5.312820068359375,-0.02421855926513672,-0.09618782997131348,-0.007274150848388672
1761131723591820000,5.322820068359375,-0.11232662200927734,-0.08956003189086914,0.031179606914520264
1761131723601820200,5.332820068359375,-0.10471916198730469,-0.10154354572296143,0.019895434379577637
1761131723611820000,5.342820068359375,-0.05905723571777344,-0.042539238929748535,-0.0058307647705078125
1761131723621820200,5.352820068359375,-0.059098243713378906,-0.0374293327331543,-0.03916686773300171
1761131723631820000,5.362820068359375,-0.059264183044433594,-0.036589980125427246,-0.039708495140075684
1761131723641820200,5.372820068359375,-0.023514747619628906,0.007330656051635742,0.026776492595672607
1761131723651819300,5.3828193359375,-0.028474807739257812,-0.03505265712738037,0.0616992712020874
1761131723661819400,5.3928193359375,-0.05498790740966797,-0.05818307399749756,0.07048487663269043
1761131723671819300,5.4028193359375,-0.05517005920410156,-0.057164669036865234,0.07015550136566162
1761131723681819100,5.412819091796875,0.011602401733398438,-0.026867270469665527,0.012420415878295898
1761131723691819300,5.4228193359375,0.07582378387451172,-0.021990299224853516,0.009558796882629395
1761131723701819100,5.432819091796875,0.11365795135498047,-0.009715676307678223,0.008789360523223877
1761131723711819300,5.4428193359375,0.13245487213134766,-0.012345433235168457,-0.008213818073272705
1761131723721819100,5.452819091796875,0.1299276351928711,0.034267425537109375,-0.03855264186859131
1761131723731819300,5.4628193359375,0.03908252716064453,0.02198505401611328,-0.04666262865066528
1761131723741819100,5.472819091796875,-0.044327735900878906,0.06813979148864746,-0.08307194709777832
1761131723751820000,5.482820068359375,-0.10369586944580078,0.07779932022094727,-0.08819419145584106
1761131723761820200,5.492820068359375,-0.11772632598876953,0.08572959899902344,-0.077392578125
1761131723771820000,5.502820068359375,-0.045917510986328125,0.09767234325408936,-0.0801587700843811
1761131723781820200,5.512820068359375,0.04232597351074219,0.09438145160675049,-0.06995528936386108
1761131723791820000,5.522820068359375,0.09202098846435547,0.07529973983764648,-0.04686605930328369
1761131723801820200,5.532820068359375,0.1656208038330078,0.07309484481811523,-0.002617478370666504
1761131723811820000,5.542820068359375,0.17708110809326172,0.03912627696990967,0.04895520210266113
1761131723821820200,5.552820068359375,0.15762996673583984,0.020793676376342773,0.01732689142227173
1761131723831820000,5.562820068359375,0.1504344940185547,0.015517950057983398,0.032510995864868164
1761131723841820200,5.572820068359375,0.1697864532470703,0.009321093559265137,0.005736887454986572
1761131723851819300,5.5828193359375,0.14861488342285156,0.014230728149414062,-0.034658610820770264
1761131723861819100,5.592819091796875,0.1012105941772461,0.0017584562301635742,-0.05106908082962036
1761131723871819300,5.6028193359375,0.06111621856689453,-0.023581862449645996,-0.015085995197296143
1761131723881819100,5.612819091796875,0.013854026794433594,-0.025156021118164062,-0.01527702808380127
1761131723891819300,5.6228193359375,0.009655952453613281,-0.019423961639404297,-0.006114184856414795
1761131723901819100,5.632819091796875,-0.020908355712890625,-0.01593303680419922,-0.035381019115448
1761131723911819300,5.6428193359375,-0.04433155059814453,-0.007448315620422363,-0.0720255970954895
1761131723921819100,5.652819091796875,-0.07498645782470703,-0.039443016052246094,-0.08257782459259033
1761131723931819300,5.6628193359375,-0.03867912292480469,-0.030219554901123047,-0.009202957153320312
1761131723941819100,5.672819091796875,-0.07428741455078125,-0.05160355567932129,0.006588459014892578
1761131723951820000,5.682820068359375,-0.10755348205566406,-0.05837273597717285,-0.008983969688415527
1761131723961820000,5.69281982421875,-0.1335926055908203,-0.029248714447021484,0.007314503192901611
1761131723971820000,5.702820068359375,-0.1571483612060547,-0.02188694477081299,0.007787525653839111
1761131723981820000,5.71281982421875,-0.14481067657470703,0.019366860389709473,-0.04848378896713257
1761131723991820000,5.722820068359375,-0.12296867370605469,0.0037032365798950195,-0.0685734748840332
1761131724001820000,5.73281982421875,-0.08207416534423828,-0.02577376365661621,-0.021824955940246582
1761131724011820000,5.742820068359375,-0.0891885757446289,-0.03554701805114746,0.017112016677856445
1761131724021820000,5.75281982421875,-0.050965309143066406,-0.018328428268432617,0.04568701982498169
1761131724031820000,5.762820068359375,-0.029610633850097656,-0.01978766918182373,0.03537243604660034
1761131724041820200,5.772820068359375,-0.010735511779785156,0.010308504104614258,0.04636037349700928
1761131724051819300,5.7828193359375,0.03201866149902344,0.004846453666687012,0.0380820631980896
1761131724061819100,5.792819091796875,0.06284141540527344,-0.014955878257751465,0.05691558122634888
1761131724071819300,5.8028193359375,0.07938385009765625,-0.013463854789733887,0.06452655792236328
1761131724081819100,5.812819091796875,0.07212638854980469,-0.0006755590438842773,0.0775168240070343
1761131724091819300,5.8228193359375,0.07935714721679688,0.0019724369049072266,0.057517826557159424
1761131724101819100,5.832819091796875,0.09386444091796875,-0.00542604923248291,0.011500835418701172
1761131724111819000,5.842819091796875,0.053386688232421875,0.02256143093109131,0.025294125080108643
1761131724121819100,5.852819091796875,-0.025285720825195312,0.006674647331237793,0.02203238010406494
1761131724131819000,5.862819091796875,-0.07756519317626953,0.019026517868041992,0.04473942518234253
1761131724141819100,5.872819091796875,-0.06286430358886719,0.017270922660827637,0.0192720890045166
1761131724151820000,5.882820068359375,-0.0028705596923828125,0.04293549060821533,0.005422711372375488
1761131724161820000,5.89281982421875,0.02588653564453125,0.04065203666687012,0.010982871055603027
1761131724171820000,5.902820068359375,0.045058250427246094,0.031052827835083008,0.023209214210510254
1761131724181820200,5.912820068359375,0.04514884948730469,0.030566692352294922,0.023408710956573486
1761131724191820000,5.922820068359375,0.030956268310546875,0.010430693626403809,0.06432092189788818
1761131724201820200,5.932820068359375,-0.038239479064941406,0.03540635108947754,0.011907100677490234
1761131724211820000,5.942820068359375,-0.09302330017089844,-0.02125227451324463,-0.12654387950897217
1761131724221820200,5.952820068359375,-0.052094459533691406,0.027773737907409668,0.022272348403930664
1761131724231820000,5.962820068359375,-0.044693946838378906,0.005144834518432617,-0.022500693798065186
1761131724241820200,5.972820068359375,0.03203010559082031,-0.02417433261871338,-0.03662419319152832
1761131724251819300,5.9828193359375,-0.022878646850585938,-0.019910693168640137,0.000508427619934082
1761131724261819100,5.992819091796875,-0.07059192657470703,-0.00405573844909668,-0.013456523418426514
1761131724271819300,6.0028193359375,-0.07042407989501953,0.0021843910217285156,-0.022808969020843506
1761131724281819100,6.012819091796875,-0.09665107727050781,0.018352866172790527,-0.03217196464538574
1761131724291819300,6.0228193359375,-0.13496875762939453,0.0063686370849609375,-0.027583777904510498
1761131724301819100,6.032819091796875,-0.12314987182617188,-0.01696181297302246,-0.03566288948059082
1761131724311819300,6.0428193359375,-0.07073116302490234,-0.01809847354888916,-0.02212834358215332
1761131724321819100,6.052819091796875,-0.054271697998046875,-0.028345942497253418,-0.0296170711517334
1761131724331819300,6.0628193359375,-0.07609367370605469,-0.03383612632751465,-0.0008493661880493164
1761131724341819100,6.072819091796875,-0.11229705810546875,-0.020056605339050293,-0.0031772851943969727
1761131724351820000,6.082820068359375,-0.10778999328613281,0.012810826301574707,-0.003137826919555664
1761131724361820000,6.09281982421875,-0.10089588165283203,0.03622627258300781,-0.029225170612335205
1761131724371820000,6.102820068359375,-0.13472938537597656,0.019119739532470703,-0.05046415328979492
1761131724381820200,6.112820068359375,-0.14699268341064453,-0.02193427085876465,-0.03063380718231201
1761131724391820000,6.122820068359375,-0.10184288024902344,-0.014658927917480469,-0.046325743198394775
1761131724401820200,6.132820068359375,-0.052077293395996094,0.003184795379638672,-0.06702464818954468
1761131724411820000,6.142820068359375,-0.035910606384277344,0.004665851593017578,-0.03297501802444458
1761131724421820200,6.152820068359375,-0.043845176696777344,0.004170417785644531,-0.050777316093444824
1761131724431820000,6.162820068359375,0.05346107482910156,-0.01742541790008545,-0.10271000862121582
1761131724441820000,6.17281982421875,0.15065765380859375,0.012004852294921875,-0.08026695251464844
1761131724451819300,6.1828193359375,0.21193695068359375,0.04142796993255615,-0.019699513912200928
1761131724461819100,6.192819091796875,0.1752166748046875,0.03135395050048828,0.04276132583618164
1761131724471819300,6.2028193359375,0.1386280059814453,0.027425408363342285,0.09026375412940979
1761131724481819100,6.212819091796875,0.1189889907836914,0.0464324951171875,0.0904068648815155
1761131724491819300,6.2228193359375,0.10669898986816406,0.031086087226867676,0.06238466501235962
1761131724501819100,6.232819091796875,0.15431690216064453,0.051514387130737305,0.02053368091583252
1761131724511819300,6.2428193359375,0.17084407806396484,0.06709921360015869,-0.013678967952728271
1761131724521819100,6.252819091796875,0.08934688568115234,0.06993401050567627,0.007425963878631592
1761131724531819300,6.2628193359375,-0.008696556091308594,0.04497659206390381,0.049799203872680664
1761131724541819100,6.272819091796875,-0.0826272964477539,0.06445813179016113,0.01086658239364624
1761131724551820000,6.282820068359375,-0.118133544921875,0.05472075939178467,-0.0010753273963928223
1761131724561820200,6.292820068359375,-0.10105323791503906,0.05507063865661621,-0.05376511812210083
1761131724571820000,6.302820068359375,-0.0218963623046875,0.03254079818725586,-0.06826543807983398
1761131724581820200,6.312820068359375,0.07141304016113281,0.02081763744354248,-0.04476118087768555
1761131724601820000,6.33281982421875,0.18335437774658203,0.004663705825805664,-0.015614807605743408
1761131724611820000,6.342820068359375,0.11367034912109375,0.010385751724243164,-0.012666523456573486
1761131724621820000,6.35281982421875,0.05377483367919922,0.024320125579833984,-0.03375440835952759
1761131724631820000,6.362820068359375,-0.015314102172851562,0.01722133159637451,-0.04372763633728027
1761131724641820000,6.37281982421875,-0.01719188690185547,0.007027268409729004,-0.00951606035232544
1761131724651819300,6.3828193359375,-0.06447887420654297,-0.010522007942199707,-0.007873058319091797
1761131724661819100,6.392819091796875,-0.1094503402709961,0.049065470695495605,-0.039693355560302734
1761131724671819000,6.402819091796875,-0.1283245086669922,0.0834348201751709,-0.05346953868865967
1761131724681819100,6.412819091796875,-0.16650009155273438,0.08007299900054932,-0.04429900646209717
1761131724691819000,6.422819091796875,-0.1402425765991211,0.06329083442687988,-0.002662837505340576
1761131724701819100,6.432819091796875,-0.051921844482421875,0.0331958532333374,-0.00923144817352295
1761131724711819000,6.442819091796875,0.033896446228027344,0.01587045192718506,-0.005901753902435303
1761131724721819100,6.452819091796875,0.09810543060302734,0.018215537071228027,0.02410978078842163
1761131724731819300,6.4628193359375,0.07622051239013672,0.024800419807434082,0.0160139799118042
1761131724741819100,6.472819091796875,0.07610321044921875,0.018291354179382324,0.01583242416381836
1761131724751820000,6.482820068359375,0.07859420776367188,0.02505660057067871,0.028337299823760986
1761131724761820000,6.49281982421875,0.07162284851074219,0.014501571655273438,0.010193705558776855
1761131724771820000,6.502820068359375,0.07427215576171875,0.05156230926513672,0.023170530796051025
1761131724781820000,6.51281982421875,0.04580879211425781,0.04050171375274658,-0.00020951032638549805
1761131724791820000,6.522820068359375,0.024524688720703125,0.0389401912689209,0.0024589896202087402
1761131724801820200,6.532820068359375,0.000835418701171875,0.00862264633178711,0.035984158515930176
1761131724811820000,6.542820068359375,-0.003734588623046875,-0.012075543403625488,0.02590423822402954
1761131724821820200,6.552820068359375,0.01797962188720703,0.034569621086120605,-0.010564923286437988
1761131724831820000,6.562820068359375,0.06835365295410156,0.0458064079284668,-0.015725910663604736
1761131724841820200,6.572820068359375,0.10192394256591797,0.03587782382965088,-0.027771830558776855
1761131724851819300,6.5828193359375,0.08521461486816406,0.02825331687927246,-0.018589794635772705
1761131724861819100,6.592819091796875,0.025460243225097656,0.012890934944152832,-0.01722276210784912
1761131724871819300,6.6028193359375,0.004151344299316406,0.013401031494140625,0.0007866621017456055
1761131724881819100,6.612819091796875,-0.00036334991455078125,0.016193747520446777,0.05025750398635864
1761131724891819300,6.6228193359375,-0.04558277130126953,-0.0001537799835205078,0.07574370503425598
1761131724901819100,6.632819091796875,-0.13147449493408203,0.007215261459350586,0.01489800214767456
1761131724911819300,6.6428193359375,-0.13361167907714844,0.002803802490234375,0.008879303932189941
1761131724921819100,6.652819091796875,-0.03781604766845703,0.026143789291381836,0.007641732692718506
1761131724931819300,6.6628193359375,-0.04032611846923828,0.007324576377868652,0.06876149773597717
1761131724941819100,6.672819091796875,-0.028481483459472656,-0.04983115196228027,0.09129709005355835
1761131724951820000,6.682820068359375,0.012063026428222656,-0.00870978832244873,0.07532522082328796
1761131724961820200,6.692820068359375,0.09083747863769531,0.011377573013305664,0.05701747536659241
1761131724971820000,6.702820068359375,0.09064579010009766,0.012082934379577637,0.05558159947395325
1761131724981820000,6.71281982421875,0.0020236968994140625,-0.019272804260253906,0.032685279846191406
1761131724991820000,6.722820068359375,0.016470909118652344,-0.003332376480102539,-0.008926331996917725
1761131725001820200,6.732820068359375,0.040576934814453125,-0.011417984962463379,-0.025336384773254395
1761131725011820000,6.742820068359375,0.03361320495605469,-0.048287153244018555,-0.0026041269302368164
1761131725021820000,6.75281982421875,0.009962081909179688,-0.06393659114837646,0.0037221312522888184
1761131725031820000,6.762820068359375,-0.032835960388183594,-0.0054901838302612305,-0.02850496768951416
1761131725041820200,6.772820068359375,-0.08045482635498047,0.029134154319763184,-0.07056748867034912
1761131725051819300,6.7828193359375,-0.11851787567138672,0.0494840145111084,-0.1271073818206787
1761131725061819100,6.792819091796875,-0.12792587280273438,0.05097997188568115,-0.06442874670028687
1761131725071819300,6.8028193359375,-0.08959293365478516,-0.004308462142944336,-0.011943340301513672
1761131725081819100,6.812819091796875,-0.049111366271972656,-0.04160797595977783,-0.000983595848083496
1761131725091819300,6.8228193359375,0.019788742065429688,-0.05342376232147217,0.013570845127105713
1761131725101819100,6.832819091796875,0.0790243148803711,-0.03607451915740967,0.03497588634490967
1761131725111819300,6.8428193359375,0.042598724365234375,-0.03125190734863281,0.08300936222076416
1761131725121819100,6.852819091796875,0.042240142822265625,-0.029655933380126953,0.08110266923904419
1761131725131819300,6.8628193359375,0.10898494720458984,0.012569785118103027,0.09218966960906982
1761131725141819100,6.872819091796875,0.108795166015625,0.01385045051574707,0.09247708320617676
1761131725151820000,6.882820068359375,0.1302623748779297,-0.002283811569213867,0.03537726402282715
1761131725161820000,6.89281982421875,0.11597347259521484,0.02367722988128662,0.028505980968475342
1761131725171820000,6.902820068359375,0.0682840347290039,0.015315651893615723,0.0046662092208862305
1761131725181820200,6.912820068359375,0.06862545013427734,0.013135433197021484,0.004498422145843506
1761131725191820000,6.922820068359375,-0.053040504455566406,-0.03746485710144043,0.02127021551132202
1761131725201820200,6.932820068359375,-0.07177448272705078,-0.020769596099853516,0.0360950231552124
1761131725211820000,6.942820068359375,-0.0691070556640625,-0.017532706260681152,0.01258939504623413
1761131725221820200,6.952820068359375,-0.02829456329345703,-0.003771185874938965,-0.02547621726989746
1761131725231820000,6.962820068359375,0.0219573974609375,0.03220260143280029,-0.04014021158218384
1761131725241820200,6.972820068359375,0.017009735107421875,0.00885629653930664,-0.026948153972625732
1761131725251819300,6.9828193359375,-0.021437644958496094,-0.05308270454406738,0.028840482234954834
1761131725261819100,6.992819091796875,-0.0597991943359375,-0.04125058650970459,0.05375102162361145
1761131725271819300,7.0028193359375,-0.03100872039794922,-0.058509230613708496,0.048579663038253784
1761131725281819100,7.012819091796875,-0.014096260070800781,-0.011206507682800293,-0.019753456115722656
1761131725291819300,7.0228193359375,-0.054535865783691406,0.009465336799621582,-0.05103975534439087
1761131725301819100,7.032819091796875,-0.10924148559570312,0.020010948181152344,-0.055805325508117676
1761131725311819300,7.0428193359375,-0.13052749633789062,0.02839076519012451,-0.035378992557525635
1761131725321819100,7.052819091796875,-0.16870594024658203,0.013379335403442383,0.003366529941558838
1761131725331819300,7.0628193359375,-0.12819671630859375,0.0000833272933959961,0.03415238857269287
1761131725341819100,7.072819091796875,0.029336929321289062,-0.006577491760253906,0.01714092493057251
1761131725351820000,7.082820068359375,0.11964988708496094,0.047692060470581055,-0.06467950344085693
1761131725361820200,7.092820068359375,0.1118927001953125,0.010352015495300293,-0.07249140739440918
1761131725371820000,7.102820068359375,0.1211385726928711,-0.011667013168334961,-0.03459125757217407
1761131725381820200,7.112820068359375,0.1042623519897461,-0.03719460964202881,0.018315792083740234
1761131725391820000,7.122820068359375,0.04927349090576172,-0.013388752937316895,0.050471991300582886
1761131725401820200,7.132820068359375,0.04222297668457031,-0.0018264055252075195,0.030148446559906006
1761131725411820000,7.142820068359375,0.042324066162109375,0.036310553550720215,-0.01877439022064209
1761131725421820200,7.152820068359375,0.023242950439453125,0.07224774360656738,-0.0365329384803772
1761131725431820000,7.162820068359375,-0.005466461181640625,0.029204368591308594,-0.06711411476135254
1761131725441820200,7.172820068359375,-0.01023101806640625,0.04349517822265625,-0.05012601613998413
1761131725451819300,7.1828193359375,0.008955955505371094,0.012355208396911621,-0.0591580867767334
1761131725461819100,7.192819091796875,0.04496002197265625,-0.0021550655364990234,-0.06508505344390869
1761131725471819300,7.2028193359375,0.0020647048950195312,-0.03146922588348389,-0.005700886249542236
1761131725481819100,7.212819091796875,-0.021590232849121094,-0.018163323402404785,0.0036121010780334473
1761131725491819300,7.2228193359375,-0.009387969970703125,0.012195587158203125,-0.08065062761306763
1761131725501819100,7.232819091796875,-0.009286880493164062,0.05273735523223877,-0.09604740142822266
1761131725511819300,7.2428193359375,-0.014097213745117188,0.045804738998413086,-0.050224483013153076
1761131725521819100,7.252819091796875,-0.03093242645263672,-0.004166603088378906,-0.024352848529815674
1761131725531819300,7.2628193359375,0.036057472229003906,0.0008622407913208008,0.0042067766189575195
1761131725541819100,7.272819091796875,0.021620750427246094,-0.032163262367248535,-0.01001286506652832
1761131725551820000,7.282820068359375,-0.01907825469970703,-0.0320507287979126,-0.01204746961593628
1761131725561820200,7.292820068359375,0.012061119079589844,-0.029497742652893066,-0.0663977861404419
1761131725571820000,7.302820068359375,0.03831291198730469,0.0024232864379882812,-0.0871630311012268
1761131725581820200,7.312820068359375,0.05976581573486328,-0.001531362533569336,-0.07450652122497559
1761131725591820000,7.322820068359375,0.04296302795410156,-0.027344226837158203,-0.011526226997375488
1761131725601820200,7.332820068359375,0.03583526611328125,-0.013131260871887207,0.005775153636932373
1761131725611820000,7.342820068359375,-0.05735969543457031,-0.026001453399658203,0.008775174617767334
1761131725621820200,7.352820068359375,-0.1337108612060547,-0.046514153480529785,-0.04309016466140747
1761131725631820000,7.362820068359375,-0.13351917266845703,-0.04746055603027344,-0.042381107807159424
1761131725641820200,7.372820068359375,-0.13596439361572266,0.012817859649658203,-0.032496094703674316
1761131725651819300,7.3828193359375,-0.0882720947265625,0.0356520414352417,-0.04898911714553833
1761131725661819100,7.392819091796875,-0.08845901489257812,0.036927223205566406,-0.04866945743560791
1761131725671819300,7.4028193359375,0.007143974304199219,-0.028833389282226562,0.014280855655670166
1761131725681819100,7.412819091796875,0.05005836486816406,-0.0033392906188964844,-0.00846707820892334
1761131725691819300,7.4228193359375,0.04992485046386719,-0.001935124397277832,-0.006862044334411621
1761131725701819100,7.432819091796875,0.023519515991210938,0.061339378356933594,-0.12731289863586426
1761131725711819300,7.4428193359375,0.033123016357421875,0.061908841133117676,-0.15396910905838013
1761131725721819100,7.452819091796875,0.0332183837890625,0.06220972537994385,-0.1514778733253479
1761131725731819300,7.4628193359375,0.0836191177368164,0.04067683219909668,-0.09182167053222656
1761131725741819100,7.472819091796875,0.076507568359375,0.002534627914428711,-0.02072000503540039
1761131725751820000,7.482820068359375,0.06449508666992188,0.010179877281188965,-0.005771040916442871
1761131725761820000,7.49281982421875,0.06908130645751953,0.015905261039733887,0.012455105781555176
1761131725771820000,7.502820068359375,0.09029293060302734,0.03648388385772705,0.00337296724319458
1761131725781820000,7.51281982421875,0.13776206970214844,0.009588122367858887,0.0132179856300354
1761131725791820000,7.522820068359375,0.14949607849121094,0.046511292457580566,0.059786081314086914
1761131725801820200,7.532820068359375,0.123199462890625,0.026917219161987305,0.06641685962677002
1761131725811820000,7.542820068359375,0.04214668273925781,0.034439802169799805,0.0596393346786499
1761131725821820200,7.552820068359375,-0.03626823425292969,0.03345012664794922,0.019888460636138916
1761131725831820000,7.562820068359375,-0.10019588470458984,0.07009994983673096,0.01149451732635498
1761131725841820200,7.572820068359375,-0.142608642578125,0.0015696287155151367,-0.016205012798309326
1761131725851819300,7.5828193359375,-0.1134023666381836,0.006002545356750488,-0.008438169956207275
1761131725861819100,7.592819091796875,-0.01273345947265625,0.009887456893920898,-0.01619255542755127
1761131725871819300,7.6028193359375,0.07570171356201172,-0.004015803337097168,-0.05820494890213013
1761131725881819100,7.612819091796875,0.12576866149902344,-0.0080946683883667,-0.03835183382034302
1761131725891819300,7.6228193359375,0.17583751678466797,-0.03143501281738281,0.007562220096588135
1761131725901819100,7.632819091796875,0.1876659393310547,-0.021734237670898438,0.005390584468841553
1761131725911819300,7.6428193359375,0.15645694732666016,-0.017238974571228027,-0.01846534013748169
1761131725921819100,7.652819091796875,0.12060260772705078,-0.013546228408813477,-0.006206929683685303
1761131725931819300,7.6628193359375,0.06335830688476562,0.0036554336547851562,0.004030406475067139
1761131725941819100,7.672819091796875,0.008653640747070312,0.024909377098083496,-0.016380369663238525
1761131725951820000,7.682820068359375,-0.03635406494140625,0.033579349517822266,-0.04363828897476196
1761131725961820000,7.69281982421875,-0.09809494018554688,0.03731894493103027,-0.00861591100692749
1761131725971820000,7.702820068359375,-0.15029335021972656,0.019663214683532715,0.03579229116439819
1761131725981820000,7.71281982421875,-0.1356029510498047,0.014746427536010742,0.02948683500289917
1761131725991820000,7.722820068359375,-0.08517742156982422,0.03475940227508545,0.03482872247695923
1761131726001820000,7.73281982421875,-0.06844139099121094,0.03405332565307617,0.053867340087890625
1761131726011820000,7.742820068359375,-0.049483299255371094,0.01747310161590576,0.046048641204833984
1761131726021820000,7.75281982421875,0.0029058456420898438,0.025237321853637695,0.03782004117965698
1761131726031820000,7.762820068359375,0.0696573257446289,0.026027441024780273,0.05647358298301697
1761131726041820000,7.77281982421875,0.10537528991699219,0.021755456924438477,0.035253703594207764
1761131726051819300,7.7828193359375,0.10301589965820312,0.03316080570220947,0.010263681411743164
1761131726061819100,7.792819091796875,0.05304431915283203,0.021445512771606445,0.059749752283096313
1761131726071819300,7.8028193359375,-0.00634002685546875,0.020734786987304688,0.07105222344398499
1761131726081819100,7.812819091796875,-0.056113243103027344,0.036511898040771484,0.03665965795516968
1761131726091819300,7.8228193359375,-0.09395694732666016,0.016570568084716797,0.018813371658325195
1761131726101819100,7.832819091796875,-0.09366130828857422,0.014309525489807129,0.017418622970581055
1761131726111819300,7.8428193359375,-0.0025701522827148438,-0.008411884307861328,0.003915607929229736
1761131726121819100,7.852819091796875,0.054793357849121094,-0.022826313972473145,-0.01483452320098877
1761131726131819300,7.8628193359375,0.05703449249267578,-0.03217136859893799,0.040440529584884644
1761131726141819100,7.872819091796875,0.030607223510742188,-0.013288736343383789,0.06660664081573486
1761131726151820000,7.882820068359375,-0.007683753967285156,-0.026097893714904785,0.045135170221328735
1761131726161820000,7.89281982421875,-0.06738853454589844,0.0011570453643798828,0.028977304697036743
1761131726171820000,7.902820068359375,-0.0982666015625,0.0015870332717895508,0.029894858598709106
1761131726181820200,7.912820068359375,-0.10762882232666016,-0.012128114700317383,-0.005030989646911621
1761131726191820000,7.922820068359375,-0.03577232360839844,-0.024791717529296875,0.0005352795124053955
1761131726201820200,7.932820068359375,0.007160186767578125,-0.031592488288879395,0.02492576837539673
1761131726211820000,7.942820068359375,0.009274482727050781,-0.018640518188476562,0.07768082618713379
1761131726221820200,7.952820068359375,-0.02690410614013672,-0.02027308940887451,0.07733267545700073
1761131726231820000,7.962820068359375,-0.058165550231933594,-0.029807567596435547,0.07715344429016113
1761131726241820200,7.972820068359375,-0.05344104766845703,0.005761861801147461,0.031681597232818604
1761131726251819300,7.9828193359375,-0.015290260314941406,0.015565276145935059,0.05086663365364075
1761131726261819100,7.992819091796875,-0.010739326477050781,-0.010148763656616211,0.09843039512634277
1761131726271819300,8.0028193359375,0.005602836608886719,-0.003958463668823242,0.10187673568725586
1761131726281819100,8.012819091796874,0.06252574920654297,-0.018650412559509277,0.09785181283950806
1761131726291819300,8.0228193359375,0.09549903869628906,-0.0498807430267334,0.10156294703483582
1761131726301819400,8.0328193359375,0.11181068420410156,-0.02896261215209961,0.055203765630722046
1761131726311819300,8.0428193359375,0.08042716979980469,-0.013820528984069824,0.03572985529899597
1761131726321819400,8.0528193359375,0.0109710693359375,-0.030925393104553223,0.01246410608291626
1761131726331819300,8.0628193359375,-0.08468818664550781,-0.008063912391662598,0.01820710301399231
1761131726341819100,8.072819091796875,-0.16833114624023438,-0.028539538383483887,-0.028582900762557983
1761131726351820000,8.082820068359375,-0.18975543975830078,-0.005685687065124512,-0.027325153350830078
1761131726361820200,8.092820068359375,-0.22567081451416016,0.02037203311920166,-0.06666547060012817
1761131726371820000,8.102820068359375,-0.19472217559814453,0.004424691200256348,-0.08912023901939392
1761131726381820200,8.112820068359374,-0.1567678451538086,-0.008122444152832031,-0.0759323239326477
1761131726391820000,8.122820068359376,-0.07111930847167969,-0.0004601478576660156,-0.048703551292419434
1761131726401820200,8.132820068359376,-0.009600639343261719,-0.03726351261138916,-0.04589921236038208
1761131726411820000,8.142820068359375,0.023012161254882812,-0.032457709312438965,0.013714820146560669
1761131726421820200,8.152820068359375,0.009972572326660156,-0.01269376277923584,0.0766494870185852
1761131726431820000,8.162820068359375,0.025604248046875,-0.04540598392486572,0.0646105706691742
1761131726441820200,8.172820068359375,0.06281375885009766,-0.04229938983917236,0.03604245185852051
1761131726451819300,8.1828193359375,0.10736083984375,-0.011008143424987793,0.02800774574279785
1761131726461819100,8.192819091796874,0.046822547912597656,-0.014400243759155273,-0.0167979896068573
1761131726471819300,8.2028193359375,-0.10675621032714844,-0.007712841033935547,-0.013050615787506104
1761131726481819100,8.212819091796876,-0.26725292205810547,0.014151215553283691,-0.006625443696975708
1761131726491819300,8.2228193359375,-0.3343477249145508,-0.019183874130249023,0.004705369472503662
1761131726501819100,8.232819091796875,-0.3034839630126953,-0.01777637004852295,-0.0032616257667541504
1761131726511819300,8.2428193359375,-0.2514076232910156,0.00960230827331543,-0.0354943573474884
1761131726521819100,8.252819091796875,-0.2163562774658203,-0.00231015682220459,-0.04473397135734558
1761131726531819300,8.2628193359375,-0.1551532745361328,-0.018009185791015625,-0.0713924765586853
1761131726541819100,8.272819091796874,-0.0031423568725585938,-0.003920435905456543,-0.0767316222190857
1761131726551820000,8.282820068359374,0.07693767547607422,-0.029754638671875,-0.08899590373039246
1761131726561820000,8.29281982421875,0.1570453643798828,-0.026906967163085938,-0.10572052001953125
1761131726571820000,8.302820068359376,0.1774120330810547,-0.01270294189453125,-0.1006554663181305
1761131726581820000,8.31281982421875,0.1357707977294922,-0.045333147048950195,-0.03981971740722656
1761131726591820000,8.322820068359375,0.1182870864868164,-0.03598487377166748,-0.023561149835586548
1761131726601820000,8.33281982421875,0.07225513458251953,0.0035706758499145508,-0.02073591947555542
1761131726611820000,8.342820068359375,0.019105911254882812,0.057138919830322266,-0.07993727922439575
1761131726621820000,8.35281982421875,-0.012517929077148438,0.04601144790649414,-0.11593249440193176
1761131726631820000,8.362820068359374,0.01796436309814453,0.08107924461364746,-0.11208918690681458
1761131726641820000,8.37281982421875,0.07461071014404297,0.06448042392730713,-0.046474844217300415
1761131726651819300,8.3828193359375,0.15270614624023438,0.0005856752395629883,-0.04582664370536804
1761131726661819400,8.3928193359375,0.25714969635009766,0.006194472312927246,0.0031543076038360596
1761131726671819300,8.4028193359375,0.2754831314086914,0.004381895065307617,0.007683306932449341
1761131726681819400,8.4128193359375,0.2509269714355469,0.030188322067260742,-0.013277977705001831
1761131726691819300,8.4228193359375,0.17871379852294922,0.028232693672180176,-0.02198725938796997
1761131726701819400,8.4328193359375,0.14499759674072266,0.05372583866119385,-0.009202241897583008
1761131726711819300,8.4428193359375,0.06353187561035156,0.04242658615112305,0.001278609037399292
1761131726721819400,8.4528193359375,0.049137115478515625,0.04750394821166992,0.0375235378742218
1761131726731819300,8.4628193359375,0.020339012145996094,0.05286240577697754,0.02595728635787964
1761131726741819400,8.4728193359375,0.029839515686035156,0.07984709739685059,-0.007075220346450806
1761131726751820300,8.4828203125,0.034576416015625,0.07788586616516113,-0.013954579830169678
1761131726761820200,8.492820068359375,0.013031005859375,0.08759057521820068,0.0033259987831115723
1761131726771820300,8.5028203125,0.013095855712890625,0.08728837966918945,0.003794640302658081
1761131726781820200,8.512820068359375,-0.037041664123535156,0.055440545082092285,0.023707985877990723
1761131726791820300,8.5228203125,-0.03451824188232422,0.07636845111846924,0.0006440877914428711
1761131726801820200,8.532820068359374,-0.060700416564941406,0.07081210613250732,-0.01281970739364624
1761131726811820300,8.5428203125,-0.06773948669433594,0.06526374816894531,0.011848419904708862
1761131726821820200,8.552820068359376,-0.08681583404541016,0.0457005500793457,0.031370729207992554
1761131726831820300,8.5628203125,-0.053360939025878906,0.01499485969543457,0.04810658097267151
1761131726841820200,8.572820068359375,-0.015263557434082031,0.016319751739501953,0.05021730065345764
1761131726851819300,8.5828193359375,0.05858898162841797,0.020983338356018066,0.05669283866882324
1761131726861819400,8.5928193359375,0.09407711029052734,0.013949394226074219,0.06999704241752625
1761131726871819300,8.6028193359375,0.05537605285644531,0.03776562213897705,0.08540666103363037
1761131726881819400,8.6128193359375,0.014379501342773438,0.017697453498840332,0.14109045267105103
1761131726891819300,8.6228193359375,-0.033695220947265625,0.03042125701904297,0.16315320134162903
1761131726901819400,8.6328193359375,-0.045815467834472656,0.04051804542541504,0.17819996178150177
1761131726911819300,8.6428193359375,-0.06277179718017578,0.04842662811279297,0.14493787288665771
1761131726921819400,8.6528193359375,-0.053432464599609375,0.01584041118621826,0.13773596286773682
1761131726931819300,8.6628193359375,0.015684127807617188,-0.018703460693359375,0.10388404130935669
1761131726941819400,8.6728193359375,0.0822916030883789,-0.016556143760681152,0.08438530564308167
1761131726951820000,8.682820068359375,0.0675201416015625,-0.017308473587036133,0.06119513511657715
1761131726961820000,8.69281982421875,0.03369903564453125,-0.013910889625549316,0.054966241121292114
1761131726971820000,8.702820068359374,-0.05739593505859375,0.0004398822784423828,0.04004517197608948
1761131726981820000,8.71281982421875,-0.1435556411743164,-0.0314784049987793,0.0019598305225372314
1761131726991820000,8.722820068359376,-0.18653583526611328,-0.008524298667907715,-0.0275401771068573
1761131727001820000,8.73281982421875,-0.22965431213378906,-0.032491087913513184,-0.030609816312789917
1761131727011820000,8.742820068359375,-0.16530513763427734,-0.062040090560913086,-0.02500811219215393
1761131727021820000,8.75281982421875,-0.053498268127441406,-0.0676037073135376,-0.04746529459953308
1761131727031820000,8.762820068359375,0.11061954498291016,-0.1046062707901001,-0.0763092041015625
1761131727041820200,8.772820068359374,0.09259891510009766,-0.09285604953765869,-0.056403279304504395
1761131727051819300,8.7828193359375,0.14158058166503906,-0.05486428737640381,-0.004593968391418457
1761131727061819100,8.792819091796876,0.17629528045654297,-0.07944726943969727,0.010009348392486572
1761131727071819300,8.8028193359375,0.12741661071777344,-0.08589088916778564,0.035585999488830566
1761131727081819100,8.812819091796875,0.030834197998046875,-0.04789876937866211,-0.0028592944145202637
1761131727091819300,8.8228193359375,-0.048745155334472656,-0.01611948013305664,-0.02110135555267334
1761131727101819100,8.832819091796875,-0.14014625549316406,-0.01641690731048584,-0.04381823539733887
1761131727111819300,8.8428193359375,-0.1908702850341797,-0.014090776443481445,-0.04956555366516113
1761131727121819100,8.852819091796874,-0.2488565444946289,-0.008738279342651367,-0.047889918088912964
1761131727131819300,8.8628193359375,-0.19682598114013672,0.035784363746643066,-0.022148340940475464
1761131727141819100,8.872819091796876,-0.1353769302368164,0.014445066452026367,-0.027368098497390747
1761131727151820000,8.882820068359376,-0.06685829162597656,0.02039515972137451,-0.0656059980392456
1761131727161820000,8.89281982421875,0.018341064453125,0.06054508686065674,-0.12497854232788086
1761131727171820000,8.902820068359375,0.08913230895996094,0.08438801765441895,-0.15516021847724915
1761131727181820200,8.912820068359375,0.10978126525878906,0.07148754596710205,-0.11783260107040405
1761131727191820000,8.922820068359375,0.10423088073730469,0.03852200508117676,-0.0850425660610199
1761131727201820200,8.932820068359375,0.1202840805053711,0.06027054786682129,-0.08568865060806274
1761131727211820000,8.942820068359374,0.16031455993652344,0.04608750343322754,-0.09252861142158508
1761131727221820200,8.952820068359374,0.18610763549804688,0.0935063362121582,-0.11743146181106567
1761131727231820000,8.962820068359376,0.15459060668945312,0.09925234317779541,-0.13219687342643738
1761131727241820200,8.972820068359376,0.13043594360351562,0.08941280841827393,-0.12743142247200012
1761131727251819300,8.9828193359375,0.060883522033691406,0.13150930404663086,-0.09663966298103333
1761131727261819100,8.992819091796875,-0.01821422576904297,0.15400207042694092,-0.06670179963111877
1761131727271819300,9.0028193359375,-0.03260326385498047,0.13525819778442383,-0.015487849712371826
1761131727281819100,9.012819091796874,-0.018232345581054688,0.11402773857116699,-0.0020368993282318115
1761131727291819300,9.0228193359375,0.04877471923828125,0.11710762977600098,-0.009745210409164429
1761131727301819100,9.032819091796876,0.07504653930664062,0.12281990051269531,-0.05823490023612976
1761131727311819300,9.0428193359375,0.08937549591064453,0.11389672756195068,-0.039924681186676025
1761131727321819100,9.052819091796875,0.09658145904541016,0.06133162975311279,0.004274457693099976
1761131727331819300,9.0628193359375,0.12291240692138672,0.03046560287475586,0.041041940450668335
1761131727341819100,9.072819091796875,0.10612869262695312,-0.002753019332885742,0.07744795083999634
1761131727351820000,9.082820068359375,0.07498359680175781,-0.014584660530090332,0.07021185755729675
1761131727361820200,9.092820068359375,0.0678262710571289,-0.031621575355529785,0.07227107882499695
1761131727371820000,9.102820068359375,0.07264995574951172,-0.04392731189727783,0.09830276668071747
1761131727381820200,9.112820068359374,0.06789875030517578,-0.05634021759033203,0.11681023240089417
1761131727391820000,9.122820068359376,0.027191162109375,-0.07101607322692871,0.134536013007164
1761131727401820200,9.132820068359376,-0.013546943664550781,-0.056864261627197266,0.1230071634054184
1761131727411820000,9.142820068359375,-0.008867263793945312,-0.0758446455001831,0.08454802632331848
1761131727421820200,9.152820068359375,-0.030492782592773438,-0.08058059215545654,0.10872673988342285
1761131727431820000,9.162820068359375,-0.0664358139038086,-0.07368922233581543,0.09469418227672577
1761131727441820200,9.172820068359375,-0.11669731140136719,-0.0886145830154419,0.0832863301038742
1761131727451819300,9.1828193359375,-0.12144947052001953,-0.08211469650268555,0.04327675700187683
1761131727461819100,9.192819091796874,-0.16931819915771484,-0.05870258808135986,0.01758161187171936
1761131727471819300,9.2028193359375,-0.17900848388671875,-0.036788225173950195,0.020378708839416504
1761131727481819100,9.212819091796876,-0.10508346557617188,-0.02088296413421631,-0.03977057337760925
1761131727491819300,9.2228193359375,-0.033705711364746094,-0.02536630630493164,-0.020831555128097534
1761131727501819100,9.232819091796875,0.025658607482910156,-0.03422844409942627,-0.0063897669315338135
1761131727511819300,9.2428193359375,0.06346702575683594,-0.004722714424133301,-0.018258392810821533
1761131727521819100,9.252819091796875,0.027166366577148438,0.004922628402709961,-0.005749434232711792
1761131727531819300,9.2628193359375,0.019762039184570312,-0.000876307487487793,0.007432848215103149
1761131727541819100,9.272819091796874,0.029207229614257812,-0.004783272743225098,-0.02174130082130432
1761131727551820000,9.282820068359374,0.12246894836425781,0.0297396183013916,-0.08083030581474304
1761131727561820200,9.292820068359376,0.2324361801147461,0.055217623710632324,-0.12747356295585632
1761131727571820000,9.302820068359376,0.23941802978515625,0.08570635318756104,-0.13836908340454102
1761131727581820000,9.31281982421875,0.18428325653076172,0.0576399564743042,-0.11614292860031128
1761131727591820000,9.322820068359375,0.16522502899169922,0.08818662166595459,-0.09878003597259521
1761131727601820000,9.33281982421875,0.11046886444091797,0.08141720294952393,-0.09733843803405762
1761131727611820000,9.342820068359375,0.02958393096923828,0.12117612361907959,-0.09985378384590149
1761131727621820000,9.35281982421875,-0.034401893615722656,0.10491764545440674,-0.12120324373245239
1761131727631820000,9.362820068359374,-0.05527973175048828,0.09330189228057861,-0.06143864989280701
1761131727641820000,9.37281982421875,-0.016661643981933594,0.05023074150085449,-0.037783414125442505
1761131727651819300,9.3828193359375,0.028827667236328125,0.04725348949432373,-0.030699163675308228
1761131727661819100,9.392819091796875,0.11716175079345703,0.024187922477722168,0.039336204528808594
1761131727671819000,9.402819091796875,0.1241159439086914,-0.0037974119186401367,0.073564812541008
1761131727681819100,9.412819091796875,0.136077880859375,0.0004464387893676758,0.09959320724010468
1761131727691819000,9.422819091796875,0.05496978759765625,-0.0019364356994628906,0.11547216773033142
1761131727701819100,9.432819091796874,-0.013894081115722656,-0.010773301124572754,0.07781800627708435
1761131727711819000,9.442819091796874,-0.07065391540527344,0.008321404457092285,0.0743950754404068
1761131727721819100,9.452819091796876,-0.09154033660888672,0.010931134223937988,0.06599609553813934
1761131727731819000,9.462819091796876,-0.10304450988769531,-0.018828392028808594,0.05157706141471863
1761131727741819100,9.472819091796875,-0.09559440612792969,-0.05943655967712402,0.06440640985965729
1761131727751820000,9.482820068359375,-0.026022911071777344,-0.06571638584136963,0.014400094747543335
1761131727761820000,9.49281982421875,0.07462120056152344,-0.05471384525299072,0.010521501302719116
1761131727771820000,9.502820068359375,0.06271934509277344,-0.07214975357055664,0.03364589810371399
1761131727781820000,9.51281982421875,0.055718421936035156,-0.07833528518676758,0.05246609449386597
1761131727791820000,9.522820068359374,0.036808013916015625,-0.063362717628479,0.06432180106639862
1761131727801820000,9.53281982421875,0.00359344482421875,-0.03919804096221924,0.06448276340961456
1761131727811820000,9.542820068359376,-0.09908485412597656,-0.0077391862869262695,0.02574029564857483
1761131727821820000,9.55281982421875,-0.18262958526611328,0.03809952735900879,-0.030332982540130615
1761131727831820000,9.562820068359375,-0.21831989288330078,0.019347190856933594,-0.03450798988342285
1761131727841820000,9.57281982421875,-0.15116024017333984,0.0182497501373291,0.04346412420272827
1761131727851819000,9.582819091796875,-0.06736469268798828,0.008830666542053223,0.10641491413116455
1761131727861819100,9.592819091796875,0.21985530853271484,0.11295831203460693,0.039627015590667725
1761131727871819000,9.602819091796874,0.6339683532714844,0.2439408302307129,-0.03679072856903076
1761131727881819100,9.612819091796876,0.8277797698974609,0.20948278903961182,-0.11554712057113647
1761131727891819000,9.622819091796876,1.0909490585327148,0.10269546508789062,-0.0935843288898468
1761131727901819100,9.632819091796875,1.344675064086914,0.015781760215759277,-0.07247963547706604
1761131727911819000,9.642819091796875,1.5080175399780273,-0.06846237182617188,-0.09075388312339783
1761131727921819100,9.652819091796875,1.4257307052612305,-0.07355880737304688,0.005208075046539307
1761131727931819000,9.662819091796875,0.9327878952026367,-0.1368110179901123,0.08709061145782471
1761131727941819100,9.672819091796875,0.5344638824462891,-0.1529618501663208,0.15138599276542664
1761131727951820000,9.682820068359375,0.29029083251953125,-0.0758126974105835,0.10252977907657623
1761131727961820000,9.69281982421875,0.05384349822998047,-0.010709166526794434,0.053114622831344604
1761131727971820000,9.702820068359374,-0.17063331604003906,-0.05966591835021973,-0.015388518571853638
1761131727981820000,9.71281982421875,-0.39285755157470703,-0.09026360511779785,-0.0004906654357910156
1761131727991820000,9.722820068359376,-0.48133182525634766,-0.16389501094818115,0.010532796382904053
1761131728001820000,9.73281982421875,-0.5222206115722656,-0.1968008279800415,0.05282065272331238
1761131728011820000,9.742820068359375,-0.5608348846435547,-0.22357439994812012,0.05285230278968811
1761131728021820000,9.75281982421875,-0.6808605194091797,-0.24489343166351318,0.013245463371276855
1761131728031820000,9.762820068359375,-0.8343582153320312,-0.26833832263946533,0.05340677499771118
1761131728041820000,9.77281982421875,-1.0238637924194336,-0.24992024898529053,-0.02479347586631775
1761131728051819300,9.7828193359375,-1.1012372970581055,-0.23345422744750977,-0.0032202303409576416
1761131728061819100,9.792819091796876,-1.0356807708740234,-0.17173457145690918,0.024895131587982178
1761131728071819300,9.8028193359375,-0.8539400100708008,-0.14192414283752441,-0.006832987070083618
1761131728081819100,9.812819091796875,-0.7331962585449219,-0.10122191905975342,-0.04472634196281433
1761131728091819000,9.822819091796875,-0.6970939636230469,-0.12824559211730957,-0.04029226303100586
1761131728101819100,9.832819091796875,-0.5586633682250977,-0.09496915340423584,0.0901244580745697
1761131728111819000,9.842819091796875,-0.27748870849609375,-0.025905251502990723,0.13240621984004974
1761131728121819100,9.852819091796874,-0.05183982849121094,0.019396305084228516,0.17709070444107056
1761131728131819000,9.862819091796876,0.0778970718383789,-0.03251242637634277,0.19122663140296936
1761131728141819100,9.872819091796876,0.1740856170654297,-0.0747760534286499,0.3073374927043915
1761131728151820000,9.882820068359376,0.20845985412597656,-0.033002495765686035,0.3289899230003357
1761131728161820000,9.89281982421875,0.17160415649414062,0.04662370681762695,0.2936617434024811
1761131728171820000,9.902820068359375,0.04420185089111328,0.12161445617675781,0.21636652946472168
1761131728181820000,9.91281982421875,-0.06128978729248047,0.14441633224487305,0.1470174640417099
1761131728191820000,9.922820068359375,-0.11400604248046875,0.17872953414916992,0.03291645646095276
1761131728201820000,9.93281982421875,-0.09738349914550781,0.19456088542938232,-0.020500391721725464
1761131728211820000,9.942820068359374,-0.07367610931396484,0.23024237155914307,-0.11149027943611145
1761131728221820000,9.95281982421875,-0.026137351989746094,0.28569889068603516,-0.2050304114818573
1761131728231820000,9.962820068359376,0.13618183135986328,0.34422075748443604,-0.26107752323150635
1761131728241820000,9.97281982421875,0.21924781799316406,0.2864490747451782,-0.13249167799949646
1761131728251819300,9.9828193359375,0.10113239288330078,0.14696812629699707,-0.058068037033081055
1761131728261819100,9.992819091796875,0.11236381530761719,0.06420505046844482,0.021261513233184814
1761131728271819300,10.0028193359375,0.19548606872558594,0.057817697525024414,0.012688696384429932
1761131728281819100,10.012819091796874,0.22344684600830078,0.12393772602081299,-0.011984914541244507
1761131728301819100,10.032819091796876,0.07403373718261719,0.020955681800842285,-0.007272511720657349
1761131728311819300,10.0428193359375,0.057005882263183594,0.005399227142333984,0.014629244804382324
1761131728321819100,10.052819091796875,0.05211925506591797,-0.011023879051208496,-0.001050412654876709
1761131728331819300,10.0628193359375,-0.00286102294921875,-0.0859229564666748,0.08649276196956635
1761131728341819100,10.072819091796875,-0.05327033996582031,-0.12372934818267822,0.05866403877735138
1761131728351820000,10.082820068359375,-0.1658315658569336,-0.19784629344940186,0.07487991452217102
1761131728361820000,10.09281982421875,0.047425270080566406,-0.47172999382019043,0.5133483409881592
1761131728371820000,10.102820068359375,-0.3493528366088867,-0.2594496011734009,-0.05052077770233154
1761131728381820000,10.11281982421875,-0.33931922912597656,0.12125372886657715,-0.33345723152160645
1761131728391820000,10.122820068359376,-0.1197519302368164,0.47183430194854736,-0.5020304322242737
1761131728401820000,10.13281982421875,-0.009603500366210938,0.08403754234313965,-0.31686902046203613
1761131728411820000,10.142820068359375,-0.03193473815917969,-0.2233138084411621,0.07508568465709686
1761131728421820000,10.15281982421875,0.13443660736083984,-0.31314098834991455,0.2536000609397888
1761131728431820000,10.162820068359375,0.3195972442626953,-0.21852350234985352,0.19708463549613953
1761131728441820000,10.17281982421875,0.31809043884277344,-0.16678357124328613,0.13217858970165253
1761131728451819300,10.1828193359375,0.21397113800048828,-0.272408127784729,0.16882935166358948
1761131728461819100,10.192819091796874,0.21307086944580078,-0.2672210931777954,0.16852030158042908
