time,seconds_elapsed,z,y,x
1761132655881711400,0.08171142578125,-0.04596760869026184,0.07307475805282593,0.0869719386100769
1761132655911697000,0.11169677734375,-0.04596760869026184,0.07307475805282593,0.0869719386100769
1761132655921696800,0.12169677734375,-0.04596760869026184,0.07307475805282593,0.0869719386100769
1761132655931697000,0.13169677734375,-0.0013744467869400978,0.0492510087788105,0.01488984003663063
1761132655941696800,0.14169677734375,-0.003817907767370343,0.06574437022209167,0.03627012297511101
1761132655951696600,0.151696533203125,-0.005039638374000788,0.07796167582273483,0.060704734176397324
1761132655961696300,0.1616962890625,0.0065668015740811825,0.08223773539066315,0.0771980956196785
1761132655971693000,0.171693115234375,0.029168816283345222,0.06879869848489761,0.08025242388248444
1761132655981693000,0.18169287109375,0.05604688450694084,0.033368512988090515,0.07414376735687256
1761132655991692800,0.19169287109375,0.06398813426494598,-0.000839939690195024,0.06986771523952484
1761132656001693000,0.20169287109375,0.05543602257966995,-0.005115996580570936,0.07047858089208603
1761132656011692800,0.21169287109375,0.03955352306365967,0.023594669997692108,0.072311170399189
1761132656021692700,0.221692626953125,0.02428189292550087,0.05902485549449921,0.06803511828184128
1761132656031692500,0.231692626953125,0.01572977937757969,0.07246389240026474,0.05398521572351456
1761132656041692400,0.2416923828125,0.023060163483023643,0.06513350456953049,0.039324451237916946
1761132656051692500,0.251692626953125,0.03527746722102165,0.05047274008393288,0.030161472037434578
1761132656061692400,0.2616923828125,0.04566217586398125,0.03214678168296814,0.02710714563727379
1761132656071692300,0.2716923828125,0.04688390716910362,0.011377365328371525,0.025885414332151413
1761132656081692400,0.2816923828125,0.043218716979026794,-0.02038762718439102,0.02344195358455181
1761132656091692300,0.2916923828125,0.04749477282166481,-0.027718011289834976,0.027718011289834976
1761132656101692200,0.301692138671875,0.051770828664302826,-0.0014508049935102463,0.042989641427993774
1761132656111692000,0.311692138671875,0.04444044828414917,0.024816401302814484,0.05948300287127495
1761132656121692200,0.321692138671875,0.04138612002134323,0.04558581858873367,0.07170030474662781
1761132656131692000,0.331692138671875,0.048716504126787186,0.04008803144097328,0.06559165567159653
1761132656141692000,0.34169189453125,0.048105638474226,0.018707748502492905,0.04970915988087654
1761132656151692000,0.351692138671875,0.0377209298312664,0.02054034359753132,0.04421137273311615
1761132656161692000,0.36169189453125,0.028557950630784035,0.04680754989385605,0.05520694702863693
1761132656171691000,0.37169091796875,0.01817324012517929,0.0645226389169693,0.06925684958696365
1761132656181691000,0.38169091796875,0.015118914656341076,0.05841398984193802,0.07780896127223969
1761132656191691000,0.39169091796875,0.029168816283345222,0.0290924571454525,0.07292203605175018
1761132656201691000,0.40169091796875,0.0529925599694252,-0.011835514567792416,0.060093868523836136
1761132656211691000,0.41169091796875,0.07437284290790558,-0.021609358489513397,0.05520694702863693
1761132656221691000,0.42169091796875,0.07498370856046677,0.0009926559869199991,0.0619264654815197
1761132656231690800,0.431690673828125,0.06276640295982361,0.013209961354732513,0.06864598393440247
1761132656241691000,0.44169091796875,0.0529925599694252,0.016264287754893303,0.07047858089208603
1761132656251690800,0.451690673828125,0.05360342562198639,0.018707748502492905,0.05826127156615257
1761132656261691000,0.46169091796875,0.057879481464624405,0.018707748502492905,0.03321579843759537
1761132656271691800,0.47169189453125,0.06643159687519073,0.013209961354732513,0.004505131393671036
1761132656281691600,0.481691650390625,0.07437284290790558,0.009544769302010536,-0.015653422102332115
1761132656291691800,0.49169189453125,0.07742717117071152,0.0071013085544109344,-0.02054034359753132
1761132656301691600,0.501691650390625,0.08048149943351746,0.009544769302010536,-0.0034361169673502445
1761132656311691800,0.51169189453125,0.06948592513799667,0.004046982154250145,0.024052819237113
1761132656321691600,0.521691650390625,0.05910121276974678,-0.014278975315392017,0.04726569727063179
1761132656331691800,0.53169189453125,0.05726861581206322,-0.02955060638487339,0.05093089118599892
1761132656341691600,0.541691650390625,0.06582073122262955,-0.022831087931990623,0.03810271993279457
1761132656351691800,0.55169189453125,0.07131851464509964,-0.0038942659739404917,0.0020616701804101467
1761132656361691600,0.561691650390625,0.06276640295982361,0.005268712528049946,-0.01992947794497013
1761132656371690800,0.571690673828125,0.05115996301174164,0.013820826075971127,-0.029703322798013687
1761132656381691000,0.58169091796875,0.037110064178705215,0.008933904580771923,-0.025427265092730522
1761132656391690800,0.591690673828125,0.021838432177901268,0.004657847341150045,-0.016264287754893303
1761132656401691000,0.60169091796875,0.015118914656341076,0.0034361169673502445,-0.01748601719737053
1761132656411690800,0.611690673828125,0.02672535367310047,0.006490443367511034,-0.021151209250092506
1761132656421691000,0.62169091796875,0.040164388716220856,0.019318614155054092,-0.02054034359753132
1761132656431690800,0.631690673828125,0.05360342562198639,0.021762074902653694,-0.008933904580771923
1761132656441691000,0.64169091796875,0.0633772686123848,0.0071013085544109344,0.0020616701804101467
1761132656451690800,0.651690673828125,0.07376197725534439,0.002825251780450344,0.019776761531829834
1761132656461691000,0.66169091796875,0.07498370856046677,0.008933904580771923,0.039324451237916946
1761132656471691800,0.67169189453125,0.0633772686123848,0.02054034359753132,0.054596081376075745
1761132656481691600,0.681691650390625,0.0529925599694252,0.030314188450574875,0.06436992436647415
1761132656491691800,0.69169189453125,0.048716504126787186,0.0339793786406517,0.06253732740879059
1761132656501691600,0.701691650390625,0.04688390716910362,0.01687515154480934,0.04604396969079971
1761132656511691800,0.71169189453125,0.052381694316864014,0.0034361169673502445,0.024663684889674187
1761132656521691600,0.721691650390625,0.05971207842230797,0.002825251780450344,0.004505131393671036
1761132656531691800,0.73169189453125,0.060322944074869156,0.0016035212902352214,-0.01748601719737053
1761132656541691600,0.741691650390625,0.05726861581206322,-0.0069485921412706375,-0.04008803144097328
1761132656551691800,0.75169189453125,0.05543602257966995,-0.013057244941592216,-0.05780312418937683
1761132656561691600,0.761691650390625,0.05421429127454758,-0.006337726954370737,-0.06269004940986633
1761132656571691000,0.77169091796875,0.04749477282166481,0.005268712528049946,-0.056581392884254456
1761132656581691000,0.78169091796875,0.04199698567390442,0.005879578180611134,-0.0443640872836113
1761132656591691000,0.79169091796875,0.048716504126787186,-0.008170322515070438,-0.021151209250092506
1761132656601691000,0.80169091796875,0.051770828664302826,-0.008781188167631626,-0.008933904580771923
1761132656611691000,0.81169091796875,0.04749477282166481,-0.00939205288887024,-0.0009926559869199991
1761132656621691000,0.82169091796875,0.04260785132646561,-0.007559457328170538,0.005115996580570936
1761132656631691000,0.83169091796875,0.0377209298312664,0.0034361169673502445,0.005115996580570936
1761132656641691000,0.84169091796875,0.03955352306365967,0.004046982154250145,-0.002825251780450344
1761132656651691000,0.85169091796875,0.048716504126787186,-0.0032834007870405912,-0.008933904580771923
1761132656661691000,0.86169091796875,0.05910121276974678,-0.005115996580570936,-0.004657847341150045
1761132656671691800,0.87169189453125,0.06215553730726242,0.002825251780450344,0.007559457328170538
1761132656681692000,0.88169189453125,0.060322944074869156,0.011988230049610138,0.024663684889674187
1761132656691691800,0.89169189453125,0.05971207842230797,0.01992947794497013,0.04237877577543259
1761132656701692000,0.90169189453125,0.05910121276974678,0.01992947794497013,0.05276348441839218
1761132656711691800,0.91169189453125,0.05543602257966995,0.014431691728532314,0.05276348441839218
1761132656721692000,0.92169189453125,0.05054909735918045,0.010766499675810337,0.039324451237916946
1761132656731691800,0.93169189453125,0.05115996301174164,0.004657847341150045,0.016722436994314194
1761132656741692000,0.94169189453125,0.052381694316864014,0.0022143865935504436,-0.0071013085544109344
1761132656751691800,0.95169189453125,0.046273041516542435,0.0034361169673502445,-0.030925052240490913
1761132656761692000,0.96169189453125,0.04444044828414917,0.012599095702171326,-0.04375322163105011
1761132656771691000,0.97169091796875,0.03588833287358284,0.02603813074529171,-0.04130976274609566
1761132656781691000,0.98169091796875,0.024892758578062057,0.02603813074529171,-0.036422841250896454
1761132656791691000,0.99169091796875,0.020005837082862854,0.01748601719737053,-0.04130976274609566
1761132656801691000,1.00169091796875,0.021838432177901268,0.013820826075971127,-0.04619668424129486
1761132656811691000,1.01169091796875,0.02733621932566166,0.018707748502492905,-0.044974952936172485
1761132656821691000,1.02169091796875,0.02367102913558483,0.010155634954571724,-0.03703370690345764
1761132656831691000,1.03169091796875,0.02733621932566166,0.0071013085544109344,-0.03764457255601883
1761132656841691000,1.04169091796875,0.031612277030944824,0.004657847341150045,-0.04253149405121803
1761132656851691000,1.05169091796875,0.027947084978222847,-0.000839939690195024,-0.05230533704161644
1761132656861691000,1.06169091796875,0.015118914656341076,-0.005115996580570936,-0.06330090761184692
1761132656871691800,1.07169189453125,0.004734205547720194,0.006490443367511034,-0.07185302674770355
1761132656881691600,1.081691650390625,-0.0013744467869400978,0.024205535650253296,-0.07612907886505127
1761132656891691800,1.09169189453125,-0.0074830991216003895,0.027259862050414085,-0.08101600408554077
1761132656901691600,1.101691650390625,-0.0074830991216003895,0.01748601719737053,-0.07551821321249008
1761132656911691800,1.11169189453125,-0.004428773187100887,0.018707748502492905,-0.051083605736494064
1761132656921692000,1.12169189453125,-0.0032070425804704428,0.01992947794497013,-0.02298380434513092
1761132656931691800,1.13169189453125,-0.008704829961061478,0.012599095702171326,0.000839939690195024
1761132656941692000,1.14169189453125,-0.010537425056099892,0.018096882849931717,0.016722436994314194
1761132656951691800,1.15169189453125,-0.014813481830060482,0.024205535650253296,0.019165897741913795
1761132656961692000,1.16169189453125,-0.01542434748262167,0.02603813074529171,0.0069485921412706375
1761132656971691000,1.17169091796875,-0.01725694350898266,0.023594669997692108,-0.014431691728532314
1761132656981691100,1.181691162109375,-0.016035212203860283,0.02054034359753132,-0.036422841250896454
1761132656991691000,1.19169091796875,-0.01664607785642147,0.012599095702171326,-0.05780312418937683
1761132657001691100,1.201691162109375,-0.01725694350898266,-0.000839939690195024,-0.07124216109514236
1761132657011691000,1.21169091796875,-0.020311269909143448,-0.011224648915231228,-0.08101600408554077
1761132657021691100,1.221691162109375,-0.022143865004181862,-0.02955060638487339,-0.09078984707593918
1761132657031691000,1.23169091796875,-0.020922135561704636,-0.03627012297511101,-0.09628763794898987
1761132657041691100,1.241691162109375,-0.01970040425658226,-0.022220224142074585,-0.09201157838106155
1761132657051691000,1.25169091796875,-0.03436116874217987,0.015042556449770927,-0.0645226389169693
1761132657061691100,1.261691162109375,-0.044745877385139465,0.04864014685153961,-0.04008803144097328
1761132657071692000,1.271692138671875,-0.053297992795705795,0.06635523587465286,-0.015042556449770927
1761132657081692000,1.28169189453125,-0.05696318298578262,0.05902485549449921,0.007559457328170538
1761132657091692000,1.291692138671875,-0.05207626149058342,0.04069889709353447,0.019776761531829834
1761132657101692000,1.30169189453125,-0.039248090237379074,0.029703322798013687,0.01488984003663063
1761132657111692000,1.311692138671875,-0.024587325751781464,0.009544769302010536,-0.004046982154250145
1761132657121692000,1.32169189453125,-0.012980886735022068,-0.018555032089352608,-0.027870727702975273
1761132657131692000,1.331692138671875,-0.003817907767370343,-0.03199406713247299,-0.0492510087788105
1761132657141692000,1.34169189453125,-0.003817907767370343,-0.03321579843759537,-0.06513350456953049
1761132657151691500,1.35169140625,-0.0032070425804704428,-0.019165897741913795,-0.07368562370538712
1761132657161691600,1.361691650390625,-0.0025961773935705423,0.0022143865935504436,-0.0749073475599289
1761132657171690800,1.371690673828125,-0.005039638374000788,0.015653422102332115,-0.0694095641374588
1761132657181690600,1.381690673828125,-0.003817907767370343,0.022372938692569733,-0.053527068346738815
1761132657191690800,1.391690673828125,-0.004428773187100887,0.022372938692569733,-0.0339793786406517
1761132657201690600,1.401690673828125,-0.005650503560900688,0.013209961354732513,-0.016264287754893303
1761132657211690800,1.411690673828125,-0.008704829961061478,0.00038179077091626823,-0.004657847341150045
1761132657221690600,1.421690673828125,-0.008704829961061478,-0.012446379289031029,0.0020616701804101467
1761132657231690500,1.4316904296875,-0.006872233934700489,-0.014278975315392017,0.005115996580570936
1761132657241690600,1.441690673828125,-0.013591751456260681,-0.008170322515070438,0.004505131393671036
1761132657251690500,1.4516904296875,-0.02519819140434265,-0.008781188167631626,-0.008323038928210735
1761132657261690600,1.461690673828125,-0.038637228310108185,-0.01366810966283083,-0.030925052240490913
1761132657271691300,1.471691162109375,-0.05207626149058342,-0.01366810966283083,-0.05902485549449921
1761132657281691400,1.48169140625,-0.0685696229338646,-0.002672535367310047,-0.10545061528682709
1761132657291691300,1.491691162109375,-0.06490442901849747,0.0016035212902352214,-0.12683089077472687
1761132657301691400,1.50169140625,-0.056352317333221436,0.0022143865935504436,-0.13110695779323578
1761132657311691300,1.511691162109375,-0.04841107130050659,-0.0014508049935102463,-0.1146135926246643
1761132657321691400,1.52169140625,-0.04230241850018501,-0.013057244941592216,-0.08162686973810196
1761132657331691300,1.531691162109375,-0.047189339995384216,-0.024663684889674187,-0.04314235970377922
1761132657341691400,1.54169140625,-0.059406645596027374,-0.030772335827350616,-0.0034361169673502445
1761132657361691400,1.56169140625,-0.07590000331401825,-0.0069485921412706375,0.039324451237916946
1761132657371690500,1.5716904296875,-0.07528914511203766,0.008933904580771923,0.03565925732254982
1761132657384473900,1.584473876953125,-0.062460970133543015,0.018096882849931717,0.016722436994314194
1761132657394474000,1.594473876953125,-0.04352414980530739,0.011988230049610138,-0.004657847341150045
1761132657404473900,1.604473876953125,-0.03497203439474106,0.002825251780450344,-0.019318614155054092
1761132657414474000,1.614473876953125,-0.030695978552103043,-0.01794416643679142,-0.021151209250092506
1761132657424473900,1.624473876953125,-0.03191770985722542,-0.04726569727063179,-0.009544769302010536
1761132657434474000,1.634473876953125,-0.03680463135242462,-0.06986771523952484,0.0069485921412706375
1761132657444473900,1.644473876953125,-0.053297992795705795,-0.072311170399189,0.017333300784230232
1761132657454474200,1.65447412109375,-0.07773260027170181,-0.05581781268119812,0.024052819237113
1761132657464474400,1.664474365234375,-0.10583240538835526,-0.02099849283695221,0.025274548679590225
1761132657474475300,1.674475341796875,-0.1241583600640297,0.012599095702171326,0.010002918541431427
1761132657484475000,1.684474853515625,-0.11927144229412079,0.041920628398656845,-0.018096882849931717
1761132657494474800,1.694474853515625,-0.09911288321018219,0.06330090761184692,-0.048029281198978424
1761132657504475000,1.704474853515625,-0.07651086896657944,0.06757696717977524,-0.06635523587465286
1761132657514474800,1.714474853515625,-0.055741455405950546,0.051083605736494064,-0.0694095641374588
1761132657524475000,1.724474853515625,-0.04230241850018501,0.03214678168296814,-0.06269004940986633
1761132657534474800,1.734474853515625,-0.04230241850018501,0.006490443367511034,-0.05047274008393288
1761132657544475000,1.744474853515625,-0.05146539583802223,-0.014278975315392017,-0.0290924571454525
1761132657554474800,1.754474853515625,-0.05757404863834381,-0.016111571341753006,-0.008323038928210735
1761132657564475000,1.764474853515625,-0.05390885844826698,-0.005726861767470837,-0.00038179077091626823
1761132657574474000,1.774473876953125,-0.047189339995384216,0.004657847341150045,-0.0009926559869199991
1761132657584474000,1.78447412109375,-0.044745877385139465,-0.005115996580570936,-0.007712173741310835
1761132657594474000,1.794473876953125,-0.04046982154250145,-0.01488984003663063,-0.015653422102332115
1761132657604474000,1.80447412109375,-0.03130684420466423,-0.025885414332151413,-0.024205535650253296
1761132657614474000,1.814473876953125,-0.023976460099220276,-0.03260493278503418,-0.022372938692569733
1761132657624474000,1.82447412109375,-0.020922135561704636,-0.022220224142074585,-0.02298380434513092
1761132657634474000,1.834473876953125,-0.01542434748262167,-0.0038942659739404917,-0.021151209250092506
1761132657644474000,1.84447412109375,-0.006261368747800589,0.018096882849931717,-0.021762074902653694
1761132657654474000,1.854473876953125,0.004734205547720194,0.030925052240490913,-0.022372938692569733
1761132657664474000,1.86447412109375,0.01817324012517929,0.038866300135850906,-0.01687515154480934
1761132657674475000,1.87447509765625,0.02672535367310047,0.04069889709353447,-0.006490443367511034
1761132657684475000,1.884474853515625,0.03039054572582245,0.02603813074529171,0.005726861767470837
1761132657694475000,1.89447509765625,0.031612277030944824,0.0009926559869199991,0.02038762718439102
1761132657704475000,1.904474853515625,0.03833179548382759,-0.019776761531829834,0.03627012297511101
1761132657714475000,1.91447509765625,0.04505131021142006,-0.024663684889674187,0.042989641427993774
1761132657724475000,1.924474853515625,0.04444044828414917,-0.0264962799847126,0.03504839166998863
1761132657734475000,1.93447509765625,0.04382958263158798,-0.02710714563727379,0.011224648915231228
1761132657744475000,1.944474853515625,0.03405573591589928,-0.024663684889674187,-0.03520110994577408
1761132657754475000,1.95447509765625,0.02428189292550087,-0.014278975315392017,-0.06513350456953049
1761132657764475000,1.964474853515625,0.020616702735424042,-0.004505131393671036,-0.0846811980009079
1761132657774474000,1.974473876953125,0.02122756652534008,-0.002672535367310047,-0.0895681157708168
1761132657784474400,1.984474365234375,0.026114489883184433,-0.00939205288887024,-0.08345946669578552
1761132657794474500,1.994474609375,0.031001411378383636,-0.018555032089352608,-0.06635523587465286
1761132657804474400,2.004474365234375,0.03039054572582245,-0.022220224142074585,-0.04558581858873367
1761132657814474500,2.014474609375,0.014508049935102463,-0.02344195358455181,-0.02848159149289131
1761132657824474400,2.024474365234375,-0.0074830991216003895,-0.03443752974271774,-0.01748601719737053
1761132657834474500,2.034474609375,-0.020311269909143448,-0.0417679101228714,-0.013209961354732513
1761132657844474400,2.044474365234375,-0.021532999351620674,-0.045433104038238525,-0.011988230049610138
1761132657854474500,2.054474609375,-0.021532999351620674,-0.05093089118599892,-0.015653422102332115
1761132657864474400,2.064474365234375,-0.019089538604021072,-0.048487428575754166,-0.021151209250092506
1761132657874475300,2.074475341796875,-0.01237002108246088,-0.028939740732312202,-0.025427265092730522
1761132657884475100,2.08447509765625,-0.01542434748262167,-0.005115996580570936,-0.03275764733552933
1761132657894475300,2.094475341796875,-0.023365596309304237,0.01748601719737053,-0.048029281198978424
1761132657904475100,2.10447509765625,-0.02519819140434265,0.03703370690345764,-0.06635523587465286
1761132657914475300,2.114475341796875,-0.022143865004181862,0.04680754989385605,-0.08345946669578552
1761132657924475100,2.12447509765625,-0.01542434748262167,0.04680754989385605,-0.09384417533874512
1761132657934475300,2.134475341796875,-0.006261368747800589,0.04069889709353447,-0.09140071272850037
1761132657944475400,2.144475341796875,0.003512475173920393,0.04008803144097328,-0.08040513843297958
1761132657954475300,2.154475341796875,0.012675453908741474,0.03153591975569725,-0.06635523587465286
1761132657964475400,2.164475341796875,0.026114489883184433,0.014431691728532314,-0.0541379339993
1761132657974474500,2.174474609375,0.03649919852614403,0.0071013085544109344,-0.04069889709353447
1761132657984474400,2.184474365234375,0.02428189292550087,-0.0069485921412706375,-0.02054034359753132
1761132657994474500,2.194474609375,0.005345070734620094,-0.018555032089352608,-0.0071013085544109344
1761132658004474400,2.204474365234375,-0.00809396430850029,-0.025274548679590225,0.000839939690195024
1761132658014474500,2.214474609375,-0.01114829070866108,-0.027718011289834976,0.00022907447419129312
1761132658024474400,2.224474365234375,-0.004428773187100887,-0.025885414332151413,-0.006490443367511034
1761132658034474500,2.234474609375,0.0065668015740811825,-0.022220224142074585,-0.016264287754893303
1761132658044474400,2.244474365234375,0.01878410577774048,-0.024052819237113,-0.023594669997692108
1761132658054474500,2.254474609375,0.02672535367310047,-0.03321579843759537,-0.02054034359753132
1761132658064474400,2.264474365234375,0.03527746722102165,-0.03565925732254982,-0.0034361169673502445
1761132658074475300,2.274475341796875,0.04138612002134323,-0.031383201479911804,0.022220224142074585
1761132658084475100,2.28447509765625,0.04444044828414917,-0.03321579843759537,0.04726569727063179
1761132658094475300,2.294475341796875,0.03833179548382759,-0.03443752974271774,0.06436992436647415
1761132658104475100,2.30447509765625,0.03405573591589928,-0.025885414332151413,0.07170030474662781
1761132658114475300,2.314475341796875,0.026114489883184433,-0.022220224142074585,0.06375905871391296
1761132658124475100,2.32447509765625,0.022449297830462456,-0.02344195358455181,0.04970915988087654
1761132658134475300,2.334475341796875,0.028557950630784035,-0.016111571341753006,0.03871358558535576
1761132658144475100,2.34447509765625,0.03649919852614403,-0.014278975315392017,0.031383201479911804
1761132658154475300,2.354475341796875,0.040164388716220856,-0.024052819237113,0.03199406713247299
1761132658164475100,2.36447509765625,0.04260785132646561,-0.0264962799847126,0.039935316890478134
1761132658174474500,2.374474609375,0.0377209298312664,-0.028939740732312202,0.05337435007095337
1761132658184474400,2.384474365234375,0.023060163483023643,-0.036880988627672195,0.060093868523836136
1761132658194474500,2.394474609375,0.007788531947880983,-0.036880988627672195,0.060093868523836136
1761132658204474400,2.404474365234375,0.0029016099870204926,-0.0264962799847126,0.042989641427993774
1761132658214474500,2.414474609375,0.010231993161141872,-0.025885414332151413,0.02038762718439102
1761132658224474400,2.424474365234375,0.025503624230623245,-0.021609358489513397,0.005726861767470837
1761132658234474200,2.43447412109375,0.034666601568460464,-0.006337726954370737,0.0069485921412706375
1761132658244474400,2.444474365234375,0.031612277030944824,-0.0020616701804101467,0.018555032089352608
1761132658254474200,2.45447412109375,0.022449297830462456,-0.01061378326267004,0.028328875079751015
1761132658264474400,2.464474365234375,0.021838432177901268,-0.025274548679590225,0.03321579843759537
1761132658274475000,2.47447509765625,0.02428189292550087,-0.04360050708055496,0.030161472037434578
1761132658284475100,2.48447509765625,0.026114489883184433,-0.06375905871391296,0.019165897741913795
1761132658294475000,2.49447509765625,0.02367102913558483,-0.072311170399189,0.002672535367310047
1761132658304475100,2.50447509765625,0.01878410577774048,-0.052152618765830994,-0.008933904580771923
1761132658314475000,2.51447509765625,0.008399397134780884,-0.022831087931990623,-0.019318614155054092
1761132658324475100,2.52447509765625,-0.003817907767370343,-0.0032834007870405912,-0.0290924571454525
1761132658334475300,2.534475341796875,-0.013591751456260681,-0.004505131393671036,-0.03764457255601883
1761132658344475100,2.54447509765625,-0.018478672951459885,-0.01366810966283083,-0.04069889709353447
1761132658354475300,2.554475341796875,-0.01970040425658226,-0.01794416643679142,-0.03703370690345764
1761132658364475100,2.56447509765625,-0.014813481830060482,-0.018555032089352608,-0.02603813074529171
1761132658374474200,2.57447412109375,-0.010537425056099892,-0.006337726954370737,-0.005879578180611134
1761132658384474000,2.58447412109375,-0.00809396430850029,0.011377365328371525,0.019165897741913795
1761132658394474200,2.59447412109375,-0.0032070425804704428,0.015042556449770927,0.04421137273311615
1761132658404474000,2.60447412109375,0.0029016099870204926,0.013209961354732513,0.06986771523952484
1761132658414474200,2.61447412109375,0.0065668015740811825,0.008323038928210735,0.0869719386100769
1761132658424474400,2.624474365234375,0.00045814894838258624,-0.008170322515070438,0.08941540122032166
1761132658434474200,2.63447412109375,-0.0019853119738399982,-0.039324451237916946,0.07353290170431137
1761132658444474400,2.644474365234375,0.019394971430301666,-0.030772335827350616,0.036880988627672195
1761132658454474200,2.65447412109375,0.031612277030944824,-0.011835514567792416,0.008781188167631626
1761132658464474400,2.664474365234375,0.03955352306365967,-0.0020616701804101467,-0.016264287754893303
1761132658474475000,2.67447509765625,0.0377209298312664,-0.0032834007870405912,-0.030925052240490913
1761132658484475100,2.68447509765625,0.03588833287358284,-0.005115996580570936,-0.03275764733552933
1761132658494475300,2.694475341796875,0.028557950630784035,-0.00022907447419129312,-0.021151209250092506
1761132658504475100,2.70447509765625,0.020005837082862854,0.007712173741310835,-0.006490443367511034
1761132658514475300,2.714475341796875,0.016951510682702065,0.0071013085544109344,0.007559457328170538
1761132658524475100,2.72447509765625,0.020616702735424042,0.0009926559869199991,0.011835514567792416
1761132658534475300,2.734475341796875,0.02428189292550087,-0.010002918541431427,0.00939205288887024
1761132658544475100,2.74447509765625,0.021838432177901268,-0.02344195358455181,-0.002825251780450344
1761132658554475300,2.754475341796875,0.016951510682702065,-0.03321579843759537,-0.018096882849931717
1761132658564475100,2.76447509765625,0.01572977937757969,-0.045433104038238525,-0.03459024429321289
1761132658574474500,2.774474609375,0.02122756652534008,-0.04909829422831535,-0.04680754989385605
1761132658584474400,2.784474365234375,0.02977968007326126,-0.04115704447031021,-0.04986187443137169
1761132658594474500,2.794474609375,0.0377209298312664,-0.024663684889674187,-0.04314235970377922
1761132658604474400,2.804474365234375,0.04077525436878204,-0.008781188167631626,-0.027870727702975273
1761132658614474500,2.814474609375,0.04749477282166481,0.004657847341150045,-0.004657847341150045
1761132658624474400,2.824474365234375,0.052381694316864014,0.015042556449770927,0.024663684889674187
1761132658634474200,2.83447412109375,0.05360342562198639,0.013209961354732513,0.054596081376075745
1761132658644474400,2.844474365234375,0.054825156927108765,0.0009926559869199991,0.07903069257736206
1761132658654474200,2.85447412109375,0.054825156927108765,-0.017333300784230232,0.09796751290559769
1761132658664474400,2.864474365234375,0.057879481464624405,-0.0264962799847126,0.11079568415880203
1761132658674475300,2.874475341796875,0.060933809727430344,-0.021609358489513397,0.10285443812608719
1761132658684475400,2.884475341796875,0.060933809727430344,-0.008781188167631626,0.07841982692480087
1761132658694475300,2.894475341796875,0.05971207842230797,0.008323038928210735,0.05093089118599892
1761132658704475400,2.904475341796875,0.05543602257966995,0.013820826075971127,0.021609358489513397
1761132658714475300,2.914475341796875,0.04932736977934837,0.010155634954571724,-0.005879578180611134
1761132658724475400,2.924475341796875,0.04505131021142006,0.002825251780450344,-0.024205535650253296
1761132658734475300,2.934475341796875,0.03894266113638878,-0.008781188167631626,-0.039477165788412094
1761132658744475400,2.944475341796875,0.027947084978222847,-0.031383201479911804,-0.053527068346738815
1761132658754475300,2.954475341796875,0.02122756652534008,-0.045433104038238525,-0.06330090761184692
1761132658764475400,2.964475341796875,0.015118914656341076,-0.03443752974271774,-0.07002042979001999
1761132658774474500,2.974474609375,0.009010262787342072,-0.018555032089352608,-0.07368562370538712
1761132658784474400,2.984474365234375,-0.0007635815418325365,-0.00939205288887024,-0.07796167582273483
1761132658794474200,2.99447412109375,-0.008704829961061478,-0.012446379289031029,-0.08407033234834671
1761132658804474400,3.004474365234375,-0.009926560334861279,-0.03504839166998863,-0.09262244403362274
1761132658814474200,3.01447412109375,-0.010537425056099892,-0.05093089118599892,-0.09628763794898987
1761132658824474400,3.024474365234375,-0.008704829961061478,-0.03321579843759537,-0.09506590664386749
1761132658834474200,3.03447412109375,-0.006872233934700489,-0.007559457328170538,-0.08407033234834671
1761132658844474400,3.044474365234375,-0.00809396430850029,0.008323038928210735,-0.06574437022209167
1761132658854474200,3.05447412109375,-0.00809396430850029,0.02054034359753132,-0.03459024429321289
1761132658864474400,3.064474365234375,-0.010537425056099892,0.035811975598335266,0.008170322515070438
1761132658874475000,3.07447509765625,-0.021532999351620674,0.03825543448328972,0.04115704447031021
1761132658884475100,3.08447509765625,-0.02886338345706463,0.024205535650253296,0.057650405913591385
1761132658894475300,3.094475341796875,-0.023365596309304237,0.0071013085544109344,0.05398521572351456
1761132658904475100,3.10447509765625,-0.005039638374000788,-0.01488984003663063,0.01794416643679142
1761132658914475300,3.114475341796875,-0.0007635815418325365,-0.02710714563727379,-0.024816401302814484
1761132658924475100,3.12447509765625,-0.0019853119738399982,-0.03871358558535576,-0.07063129544258118
1761132658934475300,3.134475341796875,-0.0025961773935705423,-0.03565925732254982,-0.10300715267658234
1761132658944475100,3.14447509765625,-0.006872233934700489,-0.01366810966283083,-0.11827878654003143
1761132658954475300,3.154475341796875,-0.01237002108246088,0.0071013085544109344,-0.11644618958234787
1761132658964475100,3.16447509765625,-0.020922135561704636,0.015042556449770927,-0.10239628702402115
1761132658974474200,3.17447412109375,-0.019089538604021072,0.018096882849931717,-0.07857254147529602
1761132658994474200,3.19447412109375,-0.027030786499381065,0.018096882849931717,-0.026648996397852898
1761132659004474400,3.204474365234375,-0.02886338345706463,0.0022143865935504436,-0.006490443367511034
1761132659014474200,3.21447412109375,-0.023976460099220276,0.005879578180611134,0.01366810966283083
1761132659024474400,3.224474365234375,-0.022143865004181862,0.016264287754893303,0.0264962799847126
1761132659034474200,3.23447412109375,-0.021532999351620674,0.010766499675810337,0.02710714563727379
1761132659044474400,3.244474365234375,-0.01664607785642147,0.0022143865935504436,0.019165897741913795
1761132659054474200,3.25447412109375,-0.009926560334861279,-0.006337726954370737,0.0038942659739404917
1761132659064474400,3.264474365234375,-0.005039638374000788,-0.011224648915231228,-0.012599095702171326
1761132659074475300,3.274475341796875,-0.009926560334861279,-0.014278975315392017,-0.030314188450574875
1761132659084475100,3.28447509765625,-0.01725694350898266,-0.022220224142074585,-0.04680754989385605
1761132659094475300,3.294475341796875,-0.01970040425658226,-0.016722436994314194,-0.053527068346738815
1761132659104475100,3.30447509765625,-0.024587325751781464,0.0071013085544109344,-0.044974952936172485
1761132659114475300,3.314475341796875,-0.029474247246980667,0.027259862050414085,-0.029703322798013687
1761132659124475100,3.32447509765625,-0.03680463135242462,0.0290924571454525,-0.012599095702171326
1761132659134475300,3.334475341796875,-0.03191770985722542,0.010766499675810337,0.013057244941592216
1761132659144475100,3.34447509765625,-0.02580905705690384,-0.008170322515070438,0.022220224142074585
1761132659154475300,3.354475341796875,-0.020311269909143448,-0.02038762718439102,0.0264962799847126
1761132659164475100,3.36447509765625,-0.018478672951459885,-0.025274548679590225,0.019776761531829834
1761132659174474200,3.37447412109375,-0.01542434748262167,-0.008781188167631626,0.011835514567792416
1761132659184474400,3.384474365234375,-0.01114829070866108,0.015042556449770927,-0.00038179077091626823
1761132659194474200,3.39447412109375,-0.012980886735022068,0.03275764733552933,-0.015042556449770927
1761132659204474400,3.404474365234375,-0.01542434748262167,0.03459024429321289,-0.03153591975569725
1761132659214474200,3.41447412109375,-0.016035212203860283,0.019318614155054092,-0.04680754989385605
1761132659224474400,3.424474365234375,-0.013591751456260681,0.002825251780450344,-0.05474879592657089
1761132659234474200,3.43447412109375,-0.009926560334861279,-0.0038942659739404917,-0.05474879592657089
1761132659244474400,3.444474365234375,-0.010537425056099892,0.00038179077091626823,-0.048029281198978424
1761132659254474200,3.45447412109375,-0.010537425056099892,0.006490443367511034,-0.033368512988090515
1761132659264474400,3.464474365234375,-0.00931569468230009,0.009544769302010536,-0.018096882849931717
1761132659274475000,3.47447509765625,-0.00931569468230009,0.004657847341150045,-0.004046982154250145
1761132659284475100,3.48447509765625,-0.011759156361222267,-0.007559457328170538,0.005726861767470837
1761132659294475000,3.49447509765625,-0.01664607785642147,-0.014278975315392017,0.012446379289031029
1761132659304475100,3.50447509765625,-0.022143865004181862,-0.012446379289031029,0.010002918541431427
1761132659314475000,3.51447509765625,-0.029474247246980667,-0.018555032089352608,-0.004657847341150045
1761132659324475100,3.52447509765625,-0.02519819140434265,-0.010002918541431427,-0.023594669997692108
1761132659334475000,3.53447509765625,-0.018478672951459885,0.013820826075971127,-0.04008803144097328
1761132659344475100,3.54447509765625,-0.013591751456260681,0.02603813074529171,-0.0541379339993
1761132659354475000,3.55447509765625,-0.01237002108246088,0.021762074902653694,-0.06085744872689247
1761132659364475100,3.56447509765625,-0.01542434748262167,-0.008781188167631626,-0.053527068346738815
1761132659374474200,3.57447412109375,-0.020922135561704636,-0.01794416643679142,-0.03214678168296814
1761132659384474000,3.58447412109375,-0.03497203439474106,-0.013057244941592216,-0.0034361169673502445
1761132659394474200,3.59447412109375,-0.04230241850018501,-0.004505131393671036,0.01366810966283083
1761132659404474000,3.60447412109375,-0.038026362657547,0.0022143865935504436,0.019776761531829834
1761132659414474200,3.61447412109375,-0.020311269909143448,0.00038179077091626823,0.018555032089352608
1761132659424474400,3.624474365234375,-0.0032070425804704428,-0.002672535367310047,0.015500705689191818
1761132659434474200,3.63447412109375,0.004123340360820293,0.0016035212902352214,0.01366810966283083
1761132659444474400,3.644474365234375,0.00045814894838258624,0.005879578180611134,0.008170322515070438
1761132659454474200,3.65447412109375,-0.010537425056099892,0.013820826075971127,0.0032834007870405912
1761132659464474400,3.664474365234375,-0.018478672951459885,0.02298380434513092,-0.0009926559869199991
1761132659474475000,3.67447509765625,-0.027030786499381065,0.0290924571454525,-0.0016035212902352214
1761132659484475100,3.68447509765625,-0.02825251780450344,0.030314188450574875,0.0014508049935102463
1761132659494475000,3.69447509765625,-0.01970040425658226,0.02603813074529171,0.004505131393671036
1761132659504475100,3.70447509765625,-0.010537425056099892,0.015653422102332115,0.004505131393671036
1761132659514475000,3.71447509765625,-0.006261368747800589,0.00038179077091626823,0.0032834007870405912
1761132659524475100,3.72447509765625,-0.014202617108821869,-0.016111571341753006,-0.0009926559869199991
1761132659534475300,3.734475341796875,-0.02275473065674305,-0.02710714563727379,-0.009544769302010536
1761132659544475100,3.74447509765625,-0.02886338345706463,-0.02710714563727379,-0.009544769302010536
1761132659554475300,3.754475341796875,-0.036193765699863434,-0.017333300784230232,-0.0009926559869199991
1761132659564475100,3.76447509765625,-0.041691552847623825,-0.0032834007870405912,0.010002918541431427
1761132659574474200,3.77447412109375,-0.04352414980530739,0.008323038928210735,0.024052819237113
1761132659584474400,3.784474365234375,-0.04108068719506264,0.011988230049610138,0.033826664090156555
1761132659594474200,3.79447412109375,-0.04230241850018501,0.005268712528049946,0.04054617881774902
1761132659604474400,3.804474365234375,-0.04352414980530739,-0.013057244941592216,0.03810271993279457
1761132659614474200,3.81447412109375,-0.03741549700498581,-0.019776761531829834,0.03565925732254982
1761132659624474400,3.824474365234375,-0.03375030308961868,-0.012446379289031029,0.030161472037434578
1761132659634474200,3.83447412109375,-0.03130684420466423,-0.0032834007870405912,0.022831087931990623
1761132659644474400,3.844474365234375,-0.032528575509786606,0.008933904580771923,0.014278975315392017
1761132659654474200,3.85447412109375,-0.023365596309304237,0.018096882849931717,0.0038942659739404917
1761132659664474400,3.864474365234375,-0.00931569468230009,0.013820826075971127,-0.011377365328371525
1761132659674475300,3.874475341796875,0.007177666760981083,0.00038179077091626823,-0.02298380434513092
1761132659684475100,3.88447509765625,0.022449297830462456,-0.0038942659739404917,-0.021762074902653694
1761132659694475300,3.894475341796875,0.03039054572582245,0.002825251780450344,-0.008933904580771923
1761132659704475100,3.90447509765625,0.031001411378383636,0.015042556449770927,0.010002918541431427
1761132659714475300,3.914475341796875,0.03222314268350601,0.021762074902653694,0.027718011289834976
1761132659724475100,3.92447509765625,0.031001411378383636,0.012599095702171326,0.03565925732254982
1761132659734475300,3.934475341796875,0.03894266113638878,-0.005726861767470837,0.033826664090156555
1761132659744475100,3.94447509765625,0.05726861581206322,-0.030161472037434578,0.022220224142074585
1761132659754475300,3.954475341796875,0.0731511116027832,-0.04909829422831535,0.0032834007870405912
1761132659764475100,3.96447509765625,0.08109235763549805,-0.04970915988087654,-0.015653422102332115
1761132659774474500,3.974474609375,0.07620543986558914,-0.039324451237916946,-0.027259862050414085
1761132659784474400,3.984474365234375,0.06276640295982361,-0.024663684889674187,-0.0290924571454525
1761132659794474200,3.99447412109375,0.05115996301174164,-0.022220224142074585,-0.022372938692569733
1761132659804474400,4.004474365234375,0.0377209298312664,-0.02099849283695221,-0.014431691728532314
1761132659814474200,4.01447412109375,0.034666601568460464,-0.030161472037434578,-0.0071013085544109344
1761132659824474400,4.024474365234375,0.03344487398862839,-0.021609358489513397,0.006337726954370737
1761132659834474200,4.03447412109375,0.022449297830462456,-0.017333300784230232,0.016111571341753006
1761132659844474400,4.044474365234375,0.009621127508580685,-0.013057244941592216,0.024052819237113
1761132659854474200,4.05447412109375,0.004123340360820293,-0.005115996580570936,0.030772335827350616
1761132659864474400,4.064474365234375,0.0010690141934901476,-0.0014508049935102463,0.03504839166998863
1761132659874475300,4.074475341796875,-0.0019853119738399982,-0.0020616701804101467,0.039324451237916946
1761132659884475100,4.08447509765625,0.00045814894838258624,0.0009926559869199991,0.04237877577543259
1761132659894475300,4.094475341796875,0.008399397134780884,0.0022143865935504436,0.04726569727063179
1761132659904475100,4.10447509765625,0.013286318629980087,0.002825251780450344,0.048487428575754166
1761132659914475300,4.114475341796875,0.016951510682702065,-0.004505131393671036,0.0466548316180706
1761132659924475100,4.12447509765625,0.01878410577774048,-0.021609358489513397,0.04054617881774902
1761132659934475300,4.134475341796875,0.022449297830462456,-0.03871358558535576,0.03627012297511101
1761132659944475400,4.144475341796875,0.01878410577774048,-0.057650405913591385,0.030161472037434578
1761132659954475300,4.154475341796875,0.010231993161141872,-0.0668133869767189,0.025274548679590225
1761132659964475400,4.164475341796875,0.0022907445672899485,-0.05826127156615257,0.018555032089352608
1761132659974474500,4.174474609375,-0.0013744467869400978,-0.03504839166998863,0.01061378326267004
1761132659984474400,4.184474365234375,0.0022907445672899485,-0.016722436994314194,0.002672535367310047
1761132659994474500,4.194474609375,0.013897184282541275,-0.012446379289031029,-0.0016035212902352214
1761132660004474400,4.204474365234375,0.027947084978222847,-0.02038762718439102,-0.0034361169673502445
1761132660014474500,4.214474609375,0.03588833287358284,-0.031383201479911804,-0.0009926559869199991
1761132660024474400,4.224474365234375,0.03588833287358284,-0.03443752974271774,0.005726861767470837
1761132660034474500,4.234474609375,0.029168816283345222,-0.02955060638487339,0.011224648915231228
1761132660044474400,4.244474365234375,0.020616702735424042,-0.022831087931990623,0.019776761531829834
1761132660054474500,4.254474609375,0.013897184282541275,-0.011224648915231228,0.024663684889674187
1761132660064474400,4.264474365234375,0.015118914656341076,-0.008170322515070438,0.025885414332151413
1761132660074475300,4.274475341796875,0.016340645030140877,-0.0020616701804101467,0.025885414332151413
1761132660084475100,4.28447509765625,0.016340645030140877,0.005879578180611134,0.02710714563727379
1761132660094475300,4.294475341796875,0.013897184282541275,-0.0020616701804101467,0.024663684889674187
1761132660104475100,4.30447509765625,0.010231993161141872,-0.01488984003663063,0.017333300784230232
1761132660114475300,4.314475341796875,0.010231993161141872,-0.019776761531829834,0.0032834007870405912
1761132660124475100,4.32447509765625,0.007177666760981083,-0.025885414332151413,-0.011988230049610138
1761132660134475300,4.334475341796875,0.013286318629980087,-0.028328875079751015,-0.024205535650253296
1761132660144475100,4.34447509765625,0.023060163483023643,-0.017333300784230232,-0.023594669997692108
1761132660154475300,4.354475341796875,0.031001411378383636,-0.011224648915231228,-0.010766499675810337
1761132660164475100,4.36447509765625,0.034666601568460464,-0.004505131393671036,0.00939205288887024
1761132660174474500,4.374474609375,0.03222314268350601,-0.0014508049935102463,0.0264962799847126
1761132660184474400,4.384474365234375,0.026114489883184433,-0.007559457328170538,0.03443752974271774
1761132660194474500,4.394474609375,0.01878410577774048,-0.02099849283695221,0.03260493278503418
1761132660204474400,4.404474365234375,0.01572977937757969,-0.030161472037434578,0.022831087931990623
1761132660214474500,4.414474609375,0.020005837082862854,-0.03321579843759537,0.01061378326267004
1761132660224474400,4.424474365234375,0.022449297830462456,-0.028939740732312202,-0.005268712528049946
1761132660234474200,4.43447412109375,0.02977968007326126,-0.022831087931990623,-0.018707748502492905
1761132660244474400,4.444474365234375,0.03894266113638878,-0.02038762718439102,-0.030314188450574875
1761132660254474200,4.45447412109375,0.04688390716910362,-0.02710714563727379,-0.039477165788412094
1761132660264474400,4.464474365234375,0.052381694316864014,-0.04054617881774902,-0.04253149405121803
1761132660274475000,4.47447509765625,0.052381694316864014,-0.04726569727063179,-0.03703370690345764
1761132660284475100,4.48447509765625,0.04260785132646561,-0.051541756838560104,-0.015653422102332115
1761132660294475000,4.49447509765625,0.03833179548382759,-0.03871358558535576,0.006337726954370737
1761132660304475100,4.50447509765625,0.0328340083360672,-0.019165897741913795,0.02710714563727379
1761132660314475000,4.51447509765625,0.029168816283345222,-0.014278975315392017,0.039324451237916946
1761132660324475100,4.52447509765625,0.02977968007326126,-0.02099849283695221,0.03810271993279457
1761132660334475000,4.53447509765625,0.03222314268350601,-0.039935316890478134,0.024052819237113
1761132660344475100,4.54447509765625,0.04077525436878204,-0.057039543986320496,0.004505131393671036
1761132660354475000,4.55447509765625,0.05115996301174164,-0.05581781268119812,-0.007712173741310835
1761132660364475100,4.56447509765625,0.06215553730726242,-0.039935316890478134,-0.012599095702171326
1761132660374474200,4.57447412109375,0.06765332818031311,-0.02344195358455181,-0.004657847341150045
1761132660384474400,4.584474365234375,0.06459899991750717,-0.016722436994314194,0.01061378326267004
1761132660394474200,4.59447412109375,0.06276640295982361,-0.025274548679590225,0.028939740732312202
1761132660404474400,4.604474365234375,0.0633772686123848,-0.03199406713247299,0.045433104038238525
1761132660414474200,4.61447412109375,0.06154467165470123,-0.03504839166998863,0.05642867833375931
1761132660424474400,4.624474365234375,0.05910121276974678,-0.030772335827350616,0.06131559982895851
1761132660434474200,4.63447412109375,0.05910121276974678,-0.02344195358455181,0.05826127156615257
1761132660444474400,4.644474365234375,0.06704246252775192,-0.022220224142074585,0.05093089118599892
1761132660454474200,4.65447412109375,0.07559457421302795,-0.028939740732312202,0.033826664090156555
1761132660464474400,4.664474365234375,0.0780380368232727,-0.04604396969079971,0.010002918541431427
1761132660474475000,4.67447509765625,0.07987063378095627,-0.06131559982895851,-0.018096882849931717
1761132660484475100,4.68447509765625,0.08048149943351746,-0.0619264654815197,-0.04619668424129486
1761132660494475300,4.694475341796875,0.07864890247583389,-0.052152618765830994,-0.06879869848489761
1761132660504475100,4.70447509765625,0.07620543986558914,-0.036880988627672195,-0.08223773539066315
1761132660514475300,4.714475341796875,0.07437284290790558,-0.01061378326267004,-0.07673994451761246
1761132660524475100,4.72447509765625,0.060933809727430344,-0.00939205288887024,-0.04864014685153961
1761132660534475300,4.734475341796875,0.04688390716910362,-0.018555032089352608,-0.02603813074529171
1761132660544475100,4.74447509765625,0.03405573591589928,-0.025885414332151413,-0.013209961354732513
1761132660554475300,4.754475341796875,0.02428189292550087,-0.04115704447031021,-0.015042556449770927
1761132660564475100,4.76447509765625,0.024892758578062057,-0.039935316890478134,-0.0290924571454525
1761132660574474500,4.774474609375,0.029168816283345222,-0.0264962799847126,-0.044974952936172485
1761132660584474400,4.784474365234375,0.03405573591589928,-0.011224648915231228,-0.05902485549449921
1761132660594474500,4.794474609375,0.04260785132646561,-0.010002918541431427,-0.06330090761184692
1761132660604474400,4.804474365234375,0.04993823543190956,0.0009926559869199991,-0.0492510087788105
1761132660614474500,4.814474609375,0.046273041516542435,0.011988230049610138,-0.023594669997692108
1761132660624474400,4.824474365234375,0.034666601568460464,0.014431691728532314,0.000839939690195024
1761132660634474200,4.83447412109375,0.025503624230623245,0.01992947794497013,0.024663684889674187
1761132660644474400,4.844474365234375,0.021838432177901268,0.024816401302814484,0.036880988627672195
1761132660654474200,4.85447412109375,0.025503624230623245,0.013820826075971127,0.036880988627672195
1761132660664474400,4.864474365234375,0.034666601568460464,0.005268712528049946,0.030772335827350616
1761132660674475300,4.874475341796875,0.04077525436878204,0.009544769302010536,0.019776761531829834
1761132660684475100,4.88447509765625,0.040164388716220856,0.010766499675810337,0.0014508049935102463
1761132660694475300,4.894475341796875,0.03588833287358284,0.007712173741310835,-0.018707748502492905
1761132660704475400,4.904475341796875,0.034666601568460464,0.005268712528049946,-0.03703370690345764
1761132660714475300,4.914475341796875,0.03527746722102165,0.00038179077091626823,-0.04986187443137169
1761132660724475100,4.92447509765625,0.03894266113638878,-0.005115996580570936,-0.056581392884254456
1761132660734475300,4.934475341796875,0.04444044828414917,0.0022143865935504436,-0.05169447138905525
1761132660744475100,4.94447509765625,0.048716504126787186,0.024816401302814484,-0.0339793786406517
1761132660754475300,4.954475341796875,0.03955352306365967,0.02848159149289131,-0.008323038928210735
1761132660764475100,4.96447509765625,0.024892758578062057,0.016264287754893303,0.0032834007870405912
1761132660774474500,4.974474609375,0.007177666760981083,0.015042556449770927,0.011224648915231228
1761132660784474400,4.984474365234375,-0.009926560334861279,0.012599095702171326,0.0038942659739404917
1761132660794474200,4.99447412109375,-0.023365596309304237,0.015653422102332115,-0.012599095702171326
1761132660804474400,5.004474365234375,-0.022143865004181862,0.019318614155054092,-0.03703370690345764
1761132660814474200,5.01447412109375,-0.010537425056099892,0.021762074902653694,-0.06574437022209167
1761132660824474400,5.024474365234375,0.0010690141934901476,0.01687515154480934,-0.0999528244137764
1761132660834474200,5.03447412109375,0.007788531947880983,0.008323038928210735,-0.12744176387786865
1761132660844474400,5.044474365234375,-0.0013744467869400978,0.008933904580771923,-0.14149166643619537
1761132660854474200,5.05447412109375,-0.013591751456260681,0.007712173741310835,-0.14271339774131775
1761132660864474400,5.064474365234375,-0.026419922709465027,0.008933904580771923,-0.13355042040348053
1761132660874475300,5.074475341796875,-0.03130684420466423,0.018096882849931717,-0.11644618958234787
1761132660884475100,5.08447509765625,-0.03436116874217987,0.019318614155054092,-0.09689849615097046
1761132660894475300,5.094475341796875,-0.036193765699863434,0.015042556449770927,-0.08040513843297958
1761132660904475100,5.10447509765625,-0.03741549700498581,0.015042556449770927,-0.06757696717977524
1761132660914475300,5.114475341796875,-0.036193765699863434,0.014431691728532314,-0.06391177326440811
1761132660924475100,5.12447509765625,-0.03436116874217987,0.019318614155054092,-0.06269004940986633
1761132660934475300,5.134475341796875,-0.033139441162347794,0.02603813074529171,-0.06207918003201485
1761132660944475100,5.14447509765625,-0.038026362657547,0.03214678168296814,-0.06207918003201485
1761132660954475300,5.154475341796875,-0.0429132841527462,0.030925052240490913,-0.06696610152721405
1761132660964475100,5.16447509765625,-0.04046982154250145,0.0290924571454525,-0.07246389240026474
1761132660974474500,5.174474609375,-0.035582900047302246,0.024205535650253296,-0.07735081017017365
1761132660984474400,5.184474365234375,-0.027641652151942253,0.01992947794497013,-0.07063129544258118
1761132660994474200,5.19447412109375,-0.027030786499381065,0.01748601719737053,-0.05597052723169327
1761132661004474400,5.204474365234375,-0.03191770985722542,0.009544769302010536,-0.03703370690345764
1761132661014474200,5.21447412109375,-0.03741549700498581,0.006490443367511034,-0.010766499675810337
1761132661024474400,5.224474365234375,-0.04352414980530739,0.013209961354732513,0.01488984003663063
1761132661034474200,5.23447412109375,-0.050243668258190155,0.02054034359753132,0.03565925732254982
1761132661044474400,5.244474365234375,-0.05146539583802223,0.02848159149289131,0.04726569727063179
1761132661054474200,5.25447412109375,-0.044745877385139465,0.027259862050414085,0.04604396969079971
1761132661064474400,5.264474365234375,-0.03985895588994026,0.019318614155054092,0.03260493278503418
1761132661074475300,5.274475341796875,-0.03497203439474106,0.011377365328371525,0.014278975315392017
1761132661084475100,5.28447509765625,-0.03130684420466423,0.008323038928210735,-0.005268712528049946
1761132661094475300,5.294475341796875,-0.03191770985722542,0.008323038928210735,-0.02054034359753132
1761132661104475100,5.30447509765625,-0.03497203439474106,0.007712173741310835,-0.030314188450574875
1761132661114475300,5.314475341796875,-0.038026362657547,0.013209961354732513,-0.03275764733552933
1761132661124475100,5.32447509765625,-0.04230241850018501,0.018096882849931717,-0.03275764733552933
1761132661134475300,5.334475341796875,-0.04841107130050659,0.01687515154480934,-0.030925052240490913
1761132661144475100,5.34447509765625,-0.05146539583802223,0.016264287754893303,-0.03275764733552933
1761132661154475300,5.354475341796875,-0.053297992795705795,0.016264287754893303,-0.03825543448328972
1761132661164475100,5.36447509765625,-0.050243668258190155,0.016264287754893303,-0.04314235970377922
1761132661174474500,5.374474609375,-0.04596760869026184,0.013209961354732513,-0.04558581858873367
1761132661184474400,5.384474365234375,-0.041691552847623825,0.010155634954571724,-0.044974952936172485
1761132661194474200,5.39447412109375,-0.038637228310108185,0.008323038928210735,-0.04130976274609566
1761132661204474400,5.404474365234375,-0.038026362657547,0.015042556449770927,-0.027870727702975273
1761132661214474200,5.41447412109375,-0.044135015457868576,0.0290924571454525,0.008170322515070438
1761132661224474400,5.424474365234375,-0.050854530185461044,0.026648996397852898,0.030772335827350616
1761132661234474200,5.43447412109375,-0.050854530185461044,0.02054034359753132,0.045433104038238525
1761132661244474400,5.444474365234375,-0.044745877385139465,0.018096882849931717,0.04787656292319298
1761132661254474200,5.45447412109375,-0.03680463135242462,0.016264287754893303,0.036880988627672195
1761132661264474400,5.464474365234375,-0.032528575509786606,0.015042556449770927,0.019165897741913795
1761132661274475000,5.47447509765625,-0.033139441162347794,0.011377365328371525,-0.0009926559869199991
1761132661284475100,5.48447509765625,-0.03680463135242462,0.0022143865935504436,-0.018707748502492905
1761132661294475000,5.49447509765625,-0.036193765699863434,-0.011224648915231228,-0.03153591975569725
1761132661304475100,5.50447509765625,-0.033139441162347794,-0.011835514567792416,-0.03825543448328972
1761132661314475000,5.51447509765625,-0.027641652151942253,-0.006337726954370737,-0.03703370690345764
1761132661324475100,5.52447509765625,-0.022143865004181862,0.005268712528049946,-0.02848159149289131
1761132661334475000,5.53447509765625,-0.02275473065674305,0.013820826075971127,-0.013209961354732513
1761132661344475100,5.54447509765625,-0.02886338345706463,0.010766499675810337,0.0038942659739404917
1761132661354475000,5.55447509765625,-0.03130684420466423,0.01687515154480934,0.024663684889674187
1761132661364475100,5.56447509765625,-0.03375030308961868,0.02298380434513092,0.04604396969079971
1761132661374474200,5.57447412109375,-0.03436116874217987,0.02298380434513092,0.05887213721871376
1761132661384474400,5.584474365234375,-0.03375030308961868,0.02054034359753132,0.06131559982895851
1761132661394474200,5.59447412109375,-0.030695978552103043,0.008323038928210735,0.05642867833375931
1761132661404474400,5.604474365234375,-0.026419922709465027,-0.006337726954370737,0.04360050708055496
1761132661414474200,5.61447412109375,-0.020311269909143448,-0.021609358489513397,0.021609358489513397
1761132661424474400,5.624474365234375,-0.011759156361222267,-0.024052819237113,0.0038942659739404917
1761132661434474200,5.63447412109375,-0.005039638374000788,-0.019165897741913795,-0.008933904580771923
1761132661444474400,5.644474365234375,-0.004428773187100887,-0.004505131393671036,-0.011988230049610138
1761132661454474200,5.65447412109375,-0.00809396430850029,0.007712173741310835,-0.006490443367511034
1761132661464474400,5.664474365234375,-0.012980886735022068,0.015653422102332115,0.002672535367310047
1761132661474475000,5.67447509765625,-0.01542434748262167,0.0290924571454525,0.017333300784230232
1761132661484475100,5.68447509765625,-0.017867809161543846,0.033368512988090515,0.031383201479911804
1761132661494475000,5.69447509765625,-0.02275473065674305,0.021762074902653694,0.04360050708055496
1761132661504475100,5.70447509765625,-0.01970040425658226,0.013209961354732513,0.05581781268119812
1761132661514475000,5.71447509765625,-0.00931569468230009,0.012599095702171326,0.0668133869767189
1761132661524475100,5.72447509765625,-0.0007635815418325365,-0.0014508049935102463,0.06986771523952484
1761132661534475300,5.734475341796875,0.0022907445672899485,-0.019165897741913795,0.06375905871391296
1761132661544475100,5.74447509765625,0.004734205547720194,-0.019776761531829834,0.052152618765830994
1761132661554475300,5.754475341796875,0.009621127508580685,-0.015500705689191818,0.027718011289834976
1761132661564475100,5.76447509765625,0.016951510682702065,-0.004505131393671036,0.0020616701804101467
1761132661574474200,5.77447412109375,0.02122756652534008,-0.000839939690195024,-0.021151209250092506
1761132661584474400,5.784474365234375,0.019394971430301666,-0.007559457328170538,-0.03703370690345764
1761132661594474200,5.79447412109375,0.015118914656341076,-0.016722436994314194,-0.04314235970377922
1761132661604474400,5.804474365234375,0.009621127508580685,-0.02038762718439102,-0.041920628398656845
1761132661614474200,5.81447412109375,0.008399397134780884,-0.016111571341753006,-0.0290924571454525
1761132661624474400,5.824474365234375,0.003512475173920393,-0.0032834007870405912,-0.008933904580771923
1761132661634474200,5.83447412109375,-0.003817907767370343,0.006490443367511034,0.014278975315392017
1761132661644474000,5.84447412109375,-0.00931569468230009,0.004657847341150045,0.030161472037434578
1761132661654474200,5.85447412109375,-0.0074830991216003895,0.00038179077091626823,0.03749185428023338
1761132661664474000,5.86447412109375,-0.0013744467869400978,-0.0032834007870405912,0.03565925732254982
1761132661674475000,5.87447509765625,0.005345070734620094,-0.027718011289834976,0.022831087931990623
1761132661684475100,5.88447509765625,0.010842857882380486,-0.02710714563727379,0.01366810966283083
1761132661694475300,5.894475341796875,0.015118914656341076,-0.024052819237113,0.006337726954370737
1761132661704475100,5.90447509765625,0.016340645030140877,-0.01794416643679142,0.0032834007870405912
1761132661714475300,5.914475341796875,0.01572977937757969,-0.011224648915231228,0.005726861767470837
1761132661724475100,5.92447509765625,0.014508049935102463,-0.012446379289031029,0.00939205288887024
1761132661734475000,5.93447509765625,0.013897184282541275,-0.02038762718439102,0.01061378326267004
1761132661744475100,5.94447509765625,0.014508049935102463,-0.025274548679590225,0.007559457328170538
1761132661754475300,5.954475341796875,0.011453723534941673,-0.031383201479911804,0.0032834007870405912
1761132661764475100,5.96447509765625,0.004734205547720194,-0.036880988627672195,0.004505131393671036
1761132661774474200,5.97447412109375,0.00045814894838258624,-0.03810271993279457,0.011224648915231228
1761132661784474400,5.984474365234375,0.0022907445672899485,-0.03627012297511101,0.01794416643679142
1761132661794474200,5.99447412109375,0.004734205547720194,-0.021609358489513397,0.02344195358455181
1761132661804474400,6.004474365234375,0.003512475173920393,-0.005115996580570936,0.030161472037434578
1761132661814474200,6.01447412109375,0.004123340360820293,0.011377365328371525,0.03810271993279457
1761132661824474400,6.024474365234375,0.011453723534941673,0.01687515154480934,0.052152618765830994
1761132661834474200,6.03447412109375,0.019394971430301666,0.005268712528049946,0.0619264654815197
1761132661844474000,6.04447412109375,0.031001411378383636,-0.016722436994314194,0.06498079001903534
1761132661854441000,6.05444091796875,0.03955352306365967,-0.033826664090156555,0.05948300287127495
1761132661864407600,6.064407470703125,0.03894266113638878,-0.04115704447031021,0.0417679101228714
1761132661874375200,6.074375244140625,0.02977968007326126,-0.03443752974271774,0.018555032089352608
1761132661884341800,6.084341796875,0.017562376335263252,-0.025274548679590225,-0.0022143865935504436
1761132661894308600,6.09430859375,0.0029016099870204926,-0.01061378326267004,-0.015042556449770927
1761132661904275200,6.104275146484375,-0.009926560334861279,0.010155634954571724,-0.018707748502492905
1761132661914241800,6.11424169921875,-0.014202617108821869,0.024816401302814484,-0.013820826075971127
1761132661924208600,6.124208740234375,-0.01237002108246088,0.026648996397852898,-0.006490443367511034
1761132661934175200,6.13417529296875,-0.013591751456260681,0.015042556449770927,0.005726861767470837
1761132661944141800,6.144141845703125,-0.016035212203860283,0.0071013085544109344,0.02038762718439102
1761132661954108700,6.154108642578125,-0.01237002108246088,0.009544769302010536,0.042989641427993774
1761132661964075300,6.1640751953125,-0.014202617108821869,0.018096882849931717,0.05520694702863693
1761132661974041000,6.174041015625,-0.013591751456260681,0.027259862050414085,0.06498079001903534
1761132661984007700,6.184007568359375,-0.008704829961061478,0.0290924571454525,0.06559165567159653
1761132661993974500,6.193974609375,-0.0025961773935705423,0.015653422102332115,0.05826127156615257
1761132662003941000,6.203941162109375,-0.00015271631127689034,-0.0032834007870405912,0.04482223838567734
1761132662013907700,6.21390771484375,0.004123340360820293,-0.01366810966283083,0.033826664090156555
1761132662023874300,6.223874267578125,0.009621127508580685,-0.005726861767470837,0.02710714563727379
1761132662033841200,6.233841064453125,0.012064588256180286,0.0009926559869199991,0.0264962799847126
1761132662043807700,6.243807861328125,0.012675453908741474,0.0022143865935504436,0.028939740732312202
1761132662053774300,6.2537744140625,0.017562376335263252,-0.002672535367310047,0.03810271993279457
1761132662063741200,6.2637412109375,0.023060163483023643,-0.0038942659739404917,0.04909829422831535
1761132662073708500,6.27370849609375,0.022449297830462456,-0.0020616701804101467,0.054596081376075745
1761132662083675400,6.28367529296875,0.016951510682702065,-0.000839939690195024,0.05642867833375931
1761132662093642000,6.29364208984375,0.008399397134780884,-0.000839939690195024,0.05520694702863693
1761132662103608600,6.303608642578125,0.00045814894838258624,-0.0038942659739404917,0.04970915988087654
1761132662113575400,6.313575439453125,-0.0013744467869400978,-0.018555032089352608,0.036880988627672195
1761132662123542000,6.3235419921875,0.0010690141934901476,-0.027718011289834976,0.02099849283695221
1761132662133508600,6.333508544921875,0.007788531947880983,-0.02955060638487339,0.000839939690195024
1761132662143475500,6.343475341796875,0.009621127508580685,-0.030161472037434578,-0.01687515154480934
1761132662153475300,6.353475341796875,0.013897184282541275,-0.02955060638487339,-0.03459024429321289
1761132662163475200,6.36347509765625,0.015118914656341076,-0.024052819237113,-0.04314235970377922
1761132662173474600,6.373474609375,0.013286318629980087,-0.021609358489513397,-0.04253149405121803
1761132662183474400,6.383474365234375,0.009621127508580685,-0.018555032089352608,-0.02298380434513092
1761132662193474300,6.393474365234375,0.012064588256180286,-0.018555032089352608,-0.002825251780450344
1761132662203474400,6.403474365234375,0.016951510682702065,-0.028328875079751015,0.01794416643679142
1761132662213474300,6.413474365234375,0.023060163483023643,-0.030772335827350616,0.036880988627672195
1761132662223474400,6.423474365234375,0.02428189292550087,-0.02955060638487339,0.05398521572351456
1761132662233474300,6.433474365234375,0.02733621932566166,-0.03199406713247299,0.0619264654815197
1761132662243474400,6.443474365234375,0.02733621932566166,-0.031383201479911804,0.06436992436647415
1761132662253474300,6.453474365234375,0.025503624230623245,-0.021609358489513397,0.06131559982895851
1761132662263474400,6.463474365234375,0.020005837082862854,-0.010002918541431427,0.052152618765830994
1761132662273475000,6.47347509765625,0.014508049935102463,0.0009926559869199991,0.04237877577543259
1761132662283475200,6.48347509765625,0.010842857882380486,0.006490443367511034,0.033826664090156555
1761132662293475000,6.49347509765625,0.016340645030140877,0.0034361169673502445,0.02344195358455181
1761132662303475200,6.50347509765625,0.024892758578062057,-0.008170322515070438,0.011224648915231228
1761132662313475000,6.51347509765625,0.031612277030944824,-0.018555032089352608,0.005726861767470837
1761132662323475200,6.52347509765625,0.03405573591589928,-0.022220224142074585,0.0038942659739404917
1761132662333475000,6.53347509765625,0.02977968007326126,-0.017333300784230232,0.0032834007870405912
1761132662343475200,6.54347509765625,0.020616702735424042,-0.016722436994314194,0.005115996580570936
1761132662353475000,6.55347509765625,0.010842857882380486,-0.02038762718439102,0.0038942659739404917
1761132662363475200,6.56347509765625,0.001679879380390048,-0.022831087931990623,0.0020616701804101467
1761132662373474600,6.573474609375,-0.003817907767370343,-0.011835514567792416,-0.00038179077091626823
1761132662383474700,6.583474609375,-0.005039638374000788,0.011988230049610138,-0.004046982154250145
1761132662393474600,6.593474609375,-0.0019853119738399982,0.027259862050414085,-0.0071013085544109344
1761132662403474700,6.603474609375,-0.0013744467869400978,0.023594669997692108,-0.005879578180611134
1761132662413474600,6.613474609375,-0.0032070425804704428,0.010766499675810337,0.007559457328170538
1761132662423474700,6.623474609375,-0.006261368747800589,0.0009926559869199991,0.013057244941592216
1761132662433474600,6.633474609375,-0.00809396430850029,-0.01366810966283083,0.011835514567792416
1761132662443474400,6.643474365234375,-0.0032070425804704428,-0.022831087931990623,0.0032834007870405912
1761132662453474600,6.653474609375,0.010231993161141872,-0.01488984003663063,-0.005268712528049946
1761132662463474400,6.663474365234375,0.020005837082862854,0.0016035212902352214,-0.012599095702171326
1761132662473475300,6.673475341796875,0.024892758578062057,0.013209961354732513,-0.014431691728532314
1761132662483475500,6.683475341796875,0.031001411378383636,0.018707748502492905,-0.005879578180611134
1761132662493475300,6.693475341796875,0.03039054572582245,0.02054034359753132,0.011835514567792416
1761132662503475500,6.703475341796875,0.02672535367310047,0.012599095702171326,0.03627012297511101
1761132662513475300,6.713475341796875,0.01878410577774048,0.00038179077091626823,0.05337435007095337
1761132662523475500,6.723475341796875,0.014508049935102463,-0.01061378326267004,0.05520694702863693
1761132662533475600,6.7334755859375,0.01572977937757969,-0.02344195358455181,0.036880988627672195
1761132662543475500,6.743475341796875,0.02122756652534008,-0.03321579843759537,0.0020616701804101467
1761132662553475600,6.7534755859375,0.02672535367310047,-0.036880988627672195,-0.036422841250896454
1761132662563475500,6.763475341796875,0.028557950630784035,-0.025885414332151413,-0.06574437022209167
1761132662573474800,6.773474853515625,0.020616702735424042,-0.011224648915231228,-0.08345946669578552
1761132662583475000,6.783474853515625,0.009010262787342072,-0.010002918541431427,-0.08712465316057205
1761132662593474800,6.793474853515625,0.004734205547720194,-0.02038762718439102,-0.07612907886505127
1761132662603474700,6.803474609375,0.014508049935102463,-0.015500705689191818,-0.05169447138905525
1761132662613474800,6.813474853515625,0.02122756652534008,-0.005726861767470837,-0.019318614155054092
1761132662623474700,6.823474609375,0.020005837082862854,0.012599095702171326,0.014278975315392017
1761132662633474800,6.833474853515625,0.010842857882380486,0.0339793786406517,0.04726569727063179
1761132662643474700,6.843474609375,-0.010537425056099892,0.033368512988090515,0.06803511828184128
1761132662653474800,6.853474853515625,-0.014813481830060482,0.013209961354732513,0.05826127156615257
1761132662663474700,6.863474609375,-0.012980886735022068,0.0034361169673502445,0.03871358558535576
1761132662673475300,6.873475341796875,-0.00931569468230009,0.0009926559869199991,0.007559457328170538
1761132662683475500,6.883475341796875,-0.008704829961061478,-0.0069485921412706375,-0.02298380434513092
1761132662693475300,6.893475341796875,-0.009926560334861279,-0.017333300784230232,-0.03703370690345764
1761132662703475500,6.903475341796875,-0.012980886735022068,0.01992947794497013,-0.027870727702975273
1761132662713475300,6.913475341796875,-0.019089538604021072,0.01992947794497013,-0.01687515154480934
1761132662723475500,6.923475341796875,-0.022143865004181862,0.005879578180611134,-0.004046982154250145
1761132662733475300,6.933475341796875,-0.019089538604021072,0.008323038928210735,0.014278975315392017
1761132662743475500,6.943475341796875,-0.020311269909143448,0.015653422102332115,0.03443752974271774
1761132662753475300,6.953475341796875,-0.02580905705690384,0.023594669997692108,0.05032002553343773
1761132662763475500,6.963475341796875,-0.033139441162347794,0.027259862050414085,0.06253732740879059
1761132662773474600,6.973474609375,-0.039248090237379074,0.027870727702975273,0.06803511828184128
1761132662783474700,6.983474609375,-0.044135015457868576,0.022372938692569733,0.06559165567159653
1761132662793474600,6.993474609375,-0.04535674303770065,0.019318614155054092,0.057650405913591385
1761132662803474400,7.003474365234375,-0.04046982154250145,0.018707748502492905,0.039324451237916946
1761132662813474600,7.013474609375,-0.033139441162347794,0.015042556449770927,0.013057244941592216
1761132662823474400,7.023474365234375,-0.023365596309304237,0.010155634954571724,-0.016264287754893303
1761132662833474600,7.033474609375,-0.016035212203860283,0.002825251780450344,-0.04069889709353447
1761132662843474400,7.043474365234375,-0.014813481830060482,0.002825251780450344,-0.060246583074331284
1761132662853474600,7.053474609375,-0.019089538604021072,0.002825251780450344,-0.07063129544258118
1761132662863474400,7.063474365234375,-0.023976460099220276,0.002825251780450344,-0.07307475805282593
1761132662873475000,7.07347509765625,-0.02519819140434265,-0.008170322515070438,-0.060246583074331284
1761132662883475000,7.083474853515625,-0.024587325751781464,-0.012446379289031029,-0.04619668424129486
1761132662893475000,7.09347509765625,-0.022143865004181862,-0.0038942659739404917,-0.0339793786406517
1761132662903475200,7.10347509765625,-0.017867809161543846,0.0071013085544109344,-0.022372938692569733
1761132662913475000,7.11347509765625,-0.017867809161543846,0.018707748502492905,-0.009544769302010536
1761132662923475200,7.12347509765625,-0.024587325751781464,0.019318614155054092,-0.004046982154250145
1761132662933475000,7.13347509765625,-0.033139441162347794,0.008323038928210735,-0.004657847341150045
1761132662943475200,7.14347509765625,-0.035582900047302246,-0.0069485921412706375,-0.009544769302010536
1761132662953475000,7.15347509765625,-0.032528575509786606,-0.017333300784230232,-0.018707748502492905
1761132662963475200,7.16347509765625,-0.027030786499381065,-0.008781188167631626,-0.022372938692569733
1761132662973474300,7.173474365234375,-0.026419922709465027,0.015042556449770927,-0.015653422102332115
1761132662983474200,7.18347412109375,-0.03191770985722542,0.0290924571454525,-0.0016035212902352214
1761132662993474300,7.193474365234375,-0.038026362657547,0.029703322798013687,0.012446379289031029
1761132663003474200,7.20347412109375,-0.03741549700498581,0.02603813074529171,0.02038762718439102
1761132663013474300,7.213474365234375,-0.030085112899541855,0.024816401302814484,0.017333300784230232
1761132663023474200,7.22347412109375,-0.023365596309304237,0.015653422102332115,0.006337726954370737
1761132663033474300,7.233474365234375,-0.01970040425658226,0.009544769302010536,-0.0071013085544109344
1761132663043474400,7.243474365234375,-0.01542434748262167,0.016264287754893303,-0.02298380434513092
1761132663053474300,7.253474365234375,-0.01114829070866108,0.024205535650253296,-0.0443640872836113
1761132663063474200,7.26347412109375,-0.010537425056099892,0.019318614155054092,-0.07002042979001999
1761132663073475000,7.27347509765625,-0.01664607785642147,0.007712173741310835,-0.09750936180353165
1761132663083475200,7.28347509765625,-0.023365596309304237,-0.00022907447419129312,-0.12377656996250153
1761132663093475000,7.29347509765625,-0.024587325751781464,-0.0038942659739404917,-0.1506546437740326
1761132663103475200,7.30347509765625,-0.021532999351620674,-0.015500705689191818,-0.1854739636182785
1761132663113475000,7.31347509765625,-0.01664607785642147,0.021762074902653694,-0.16714800894260406
1761132663123475200,7.32347509765625,-0.02519819140434265,0.07368562370538712,-0.11644618958234787
1761132663133475000,7.33347509765625,-0.047189339995384216,0.09140071272850037,-0.04069889709353447
1761132663143475200,7.34347509765625,-0.07223481684923172,0.09934195876121521,0.04482223838567734
1761132663153475000,7.35347509765625,-0.08628471940755844,0.09873109310865402,0.12056952714920044
1761132663163475200,7.36347509765625,-0.0887281745672226,0.11033753305673599,0.17676913738250732
1761132663173474300,7.373474365234375,-0.08750644326210022,0.14149166643619537,0.2079232633113861
1761132663183474200,7.38347412109375,-0.08261952549219131,0.15370896458625793,0.20609065890312195
1761132663193474300,7.393474365234375,-0.07223481684923172,0.14821118116378784,0.1877647042274475
1761132663203474200,7.40347412109375,-0.056352317333221436,0.12072224169969559,0.16455182433128357
1761132663213474300,7.413474365234375,-0.047189339995384216,0.06818783283233643,0.14011721312999725
1761132663223474200,7.42347412109375,-0.033139441162347794,0.019318614155054092,0.12179125845432281
1761132663233474300,7.433474365234375,-0.023365596309304237,-0.0038942659739404917,0.11079568415880203
1761132663243474200,7.44347412109375,-0.01970040425658226,-0.005726861767470837,0.10529789328575134
1761132663253474300,7.453474365234375,-0.019089538604021072,0.010766499675810337,0.102243572473526
1761132663263474200,7.46347412109375,-0.01237002108246088,0.027259862050414085,0.0973566472530365
1761132663273475000,7.47347509765625,-0.00015271631127689034,0.024205535650253296,0.09552405029535294
1761132663283475000,7.483474853515625,0.009621127508580685,0.016264287754893303,0.09796751290559769
1761132663293475000,7.49347509765625,0.012675453908741474,0.002825251780450344,0.10041097551584244
1761132663303475200,7.50347509765625,0.016951510682702065,-0.011835514567792416,0.0973566472530365
1761132663313475000,7.51347509765625,0.02428189292550087,-0.01488984003663063,0.0869719386100769
1761132663323475200,7.52347509765625,0.031001411378383636,-0.0069485921412706375,0.07108944654464722
1761132663333475000,7.53347509765625,0.0377209298312664,-0.00022907447419129312,0.05398521572351456
1761132663343475200,7.54347509765625,0.040164388716220856,-0.005115996580570936,0.021609358489513397
1761132663353475000,7.55347509765625,0.04749477282166481,-0.019776761531829834,-0.00038179077091626823
1761132663363475200,7.56347509765625,0.054825156927108765,-0.036880988627672195,-0.01687515154480934
1761132663373474300,7.573474365234375,0.060933809727430344,-0.04054617881774902,-0.019318614155054092
1761132663383474200,7.58347412109375,0.057879481464624405,-0.039324451237916946,-0.009544769302010536
1761132663393474300,7.593474365234375,0.05054909735918045,-0.024663684889674187,0.011835514567792416
1761132663403474200,7.60347412109375,0.03894266113638878,0.004657847341150045,0.039935316890478134
1761132663413474300,7.613474365234375,0.020005837082862854,0.025427265092730522,0.05887213721871376
1761132663423474200,7.62347412109375,0.005345070734620094,0.025427265092730522,0.06314819306135178
1761132663433474300,7.633474365234375,-0.0019853119738399982,0.01748601719737053,0.05520694702863693
1761132663443474200,7.64347412109375,-0.0074830991216003895,0.014431691728532314,0.039935316890478134
1761132663453474300,7.653474365234375,-0.01542434748262167,0.01687515154480934,0.021609358489513397
1761132663463474200,7.66347412109375,-0.024587325751781464,0.018096882849931717,0.002672535367310047
1761132663473475000,7.67347509765625,-0.024587325751781464,0.013820826075971127,-0.01748601719737053
1761132663483475200,7.68347509765625,-0.019089538604021072,0.0034361169673502445,-0.02848159149289131
1761132663493475000,7.69347509765625,-0.017867809161543846,-0.008781188167631626,-0.036422841250896454
1761132663503475200,7.70347509765625,-0.01725694350898266,-0.027718011289834976,-0.039477165788412094
1761132663513475000,7.71347509765625,-0.009926560334861279,-0.033826664090156555,-0.033368512988090515
1761132663523475200,7.72347509765625,-0.004428773187100887,-0.016722436994314194,-0.02054034359753132
1761132663533475000,7.73347509765625,-0.0013744467869400978,-0.006337726954370737,-0.0034361169673502445
1761132663543475200,7.74347509765625,0.00045814894838258624,-0.007559457328170538,0.008781188167631626
1761132663553475000,7.75347509765625,0.0010690141934901476,-0.01488984003663063,0.01488984003663063
1761132663563475200,7.76347509765625,0.005955935921519995,-0.01366810966283083,0.011835514567792416
1761132663573474300,7.773474365234375,0.013897184282541275,-0.02038762718439102,-0.005879578180611134
1761132663583474400,7.783474365234375,0.012064588256180286,-0.008170322515070438,-0.014431691728532314
1761132663593474300,7.793474365234375,0.010842857882380486,0.007712173741310835,-0.021762074902653694
1761132663603474200,7.80347412109375,0.014508049935102463,0.015042556449770927,-0.027870727702975273
1761132663613474300,7.813474365234375,0.02122756652534008,0.01992947794497013,-0.02603813074529171
1761132663623474200,7.82347412109375,0.019394971430301666,0.014431691728532314,-0.019318614155054092
1761132663633474300,7.833474365234375,0.009621127508580685,-0.002672535367310047,-0.013209961354732513
1761132663643474200,7.84347412109375,0.0065668015740811825,-0.01488984003663063,-0.005879578180611134
1761132663653474300,7.853474365234375,0.007788531947880983,-0.011835514567792416,-0.00038179077091626823
1761132663663474200,7.86347412109375,0.012064588256180286,-0.0020616701804101467,0.0014508049935102463
1761132663673475000,7.87347509765625,0.015118914656341076,0.0009926559869199991,-0.0016035212902352214
1761132663683475200,7.88347509765625,0.014508049935102463,0.002825251780450344,-0.008323038928210735
1761132663693475000,7.89347509765625,0.015118914656341076,0.0034361169673502445,-0.021151209250092506
1761132663703475200,7.90347509765625,0.015118914656341076,-0.004505131393671036,-0.036422841250896454
1761132663713475000,7.91347509765625,0.01572977937757969,-0.005115996580570936,-0.04680754989385605
1761132663723475200,7.92347509765625,0.01572977937757969,-0.000839939690195024,-0.0443640872836113
1761132663733475000,7.93347509765625,0.008399397134780884,-0.0020616701804101467,-0.03459024429321289
1761132663743475200,7.94347509765625,-0.0013744467869400978,-0.011224648915231228,-0.02054034359753132
1761132663753475000,7.95347509765625,-0.01114829070866108,-0.014278975315392017,-0.011377365328371525
1761132663763475200,7.96347509765625,-0.016035212203860283,-0.016722436994314194,-0.010155634954571724
1761132663773474600,7.973474609375,-0.020922135561704636,-0.017333300784230232,-0.01992947794497013
1761132663783474700,7.983474609375,-0.02519819140434265,-0.022220224142074585,-0.041920628398656845
1761132663793474600,7.993474609375,-0.021532999351620674,-0.028939740732312202,-0.07063129544258118
1761132663803474700,8.003474609375,-0.0013744467869400978,-0.01061378326267004,-0.10239628702402115
1761132663813474600,8.013474609375,0.003512475173920393,-0.01488984003663063,-0.11094839870929718
1761132663823474700,8.023474609375,0.009010262787342072,-0.018555032089352608,-0.10239628702402115
1761132663833474600,8.033474609375,-0.006872233934700489,-0.02710714563727379,-0.01687515154480934
1761132663843474700,8.043474609375,-0.01664607785642147,-0.11690433323383331,0.039324451237916946
1761132663853474600,8.053474609375,0.010842857882380486,-0.13156510889530182,0.06742425262928009
1761132663863474700,8.063474609375,0.0328340083360672,-0.12851077318191528,0.072311170399189
1761132663873475300,8.073475341796875,0.023060163483023643,-0.08819366991519928,0.04604396969079971
1761132663883475500,8.083475341796875,0.01817324012517929,-0.04054617881774902,-0.03275764733552933
1761132663893475600,8.0934755859375,0.025503624230623245,0.012599095702171326,-0.1396590620279312
1761132663903475500,8.103475341796875,0.02428189292550087,0.059635721147060394,-0.2367866337299347
1761132663913475600,8.1134755859375,-0.010537425056099892,0.06391177326440811,-0.29909488558769226
1761132663923475500,8.123475341796874,-0.027030786499381065,0.08040513843297958,-0.301538348197937
