time,seconds_elapsed,z,y,x
1761131729898285800,0.114285888671875,-0.03153591975569725,-0.002672535367310047,0.02298380434513092
1761131729938283800,0.15428369140625,-0.03153591975569725,-0.002672535367310047,0.02298380434513092
1761131729948284000,0.164283935546875,-0.024205535650253296,0.010155634954571724,-0.030772335827350616
1761131729968284000,0.184283935546875,-0.015653422102332115,0.018096882849931717,-0.007559457328170538
1761131729978283800,0.19428369140625,-0.012599095702171326,0.027870727702975273,0.0009926559869199991
1761131729988284000,0.204283935546875,-0.010766499675810337,0.03459024429321289,0.004046982154250145
1761131729998283800,0.21428369140625,-0.008933904580771923,0.03153591975569725,0.007712173741310835
1761131730008284000,0.224283935546875,-0.010766499675810337,0.027259862050414085,0.005268712528049946
1761131730018283800,0.23428369140625,-0.00038179077091626823,0.019318614155054092,-0.0069485921412706375
1761131730028284000,0.244283935546875,0.00939205288887024,0.013209961354732513,-0.03199406713247299
1761131730038284000,0.254283935546875,0.015500705689191818,0.014431691728532314,-0.05948300287127495
1761131730048282000,0.2642822265625,0.024663684889674187,0.019318614155054092,-0.08269587904214859
1761131730058282200,0.2742822265625,0.03260493278503418,0.011377365328371525,-0.08452847599983215
1761131730068282000,0.2842822265625,0.03627012297511101,0.005879578180611134,-0.07475463300943375
1761131730078282200,0.2942822265625,0.03504839166998863,0.004046982154250145,-0.06620252132415771
1761131730098282200,0.3142822265625,0.024663684889674187,0.03214678168296814,-0.05337435007095337
1761131730108282000,0.3242822265625,0.019776761531829834,0.048029281198978424,-0.042989641427993774
1761131730118282200,0.3342822265625,0.02099849283695221,0.05841398984193802,-0.03199406713247299
1761131730128282000,0.3442822265625,0.024052819237113,0.060246583074331284,-0.02038762718439102
1761131730138282200,0.3542822265625,0.033826664090156555,0.06269004940986633,-0.00939205288887024
1761131730148282000,0.3642822265625,0.03749185428023338,0.06085744872689247,-0.0069485921412706375
1761131730158282200,0.3742822265625,0.03321579843759537,0.06085744872689247,-0.013057244941592216
1761131730168282000,0.3842822265625,0.02344195358455181,0.06513350456953049,-0.02038762718439102
1761131730178282200,0.3942822265625,0.02038762718439102,0.06391177326440811,-0.016111571341753006
1761131730188282000,0.4042822265625,0.02099849283695221,0.053527068346738815,-0.004505131393671036
1761131730198282200,0.4142822265625,0.025885414332151413,0.056581392884254456,-0.005115996580570936
1761131730208282000,0.4242822265625,0.03321579843759537,0.06696610152721405,-0.016111571341753006
1761131730218282200,0.4342822265625,0.04360050708055496,0.07857254147529602,-0.025885414332151413
1761131730228282000,0.4442822265625,0.05276348441839218,0.08407033234834671,-0.03199406713247299
1761131730238282200,0.4542822265625,0.05826127156615257,0.08162686973810196,-0.036880988627672195
1761131730248281300,0.46428125,0.06253732740879059,0.0797942727804184,-0.03627012297511101
1761131730258281500,0.474281494140625,0.06620252132415771,0.0749073475599289,-0.03810271993279457
1761131730268281300,0.48428125,0.06559165567159653,0.06879869848489761,-0.0417679101228714
1761131730278281500,0.494281494140625,0.06314819306135178,0.06574437022209167,-0.052152618765830994
1761131730288281300,0.50428125,0.06436992436647415,0.07185302674770355,-0.0668133869767189
1761131730298281500,0.514281494140625,0.06436992436647415,0.08162686973810196,-0.08025242388248444
1761131730308281300,0.52428125,0.06375905871391296,0.0846811980009079,-0.09369145333766937
1761131730318281500,0.534281494140625,0.06375905871391296,0.08895725011825562,-0.09674578160047531
1761131730328281300,0.54428125,0.06803511828184128,0.09017898142337799,-0.08941540122032166
1761131730338281500,0.554281494140625,0.07353290170431137,0.09750936180353165,-0.08086328953504562
1761131730348282000,0.5642822265625,0.08147415518760681,0.10178542137145996,-0.07170030474662781
1761131730358282200,0.5742822265625,0.08513934165239334,0.10422888398170471,-0.0668133869767189
1761131730368282400,0.584282470703125,0.08391761034727097,0.10239628702402115,-0.06925684958696365
1761131730378282200,0.5942822265625,0.07841982692480087,0.10056369006633759,-0.072311170399189
1761131730388282400,0.604282470703125,0.07597636431455612,0.09506590664386749,-0.072311170399189
1761131730398282200,0.6142822265625,0.0771980956196785,0.0895681157708168,-0.06498079001903534
1761131730418282200,0.6342822265625,0.08269587904214859,0.10056369006633759,-0.04970915988087654
1761131730428282400,0.644282470703125,0.08147415518760681,0.10056369006633759,-0.0417679101228714
1761131730438282200,0.6542822265625,0.07658722996711731,0.09812022745609283,-0.0417679101228714
1761131730448281300,0.66428125,0.06864598393440247,0.09201157838106155,-0.04360050708055496
1761131730458281500,0.674281494140625,0.06314819306135178,0.08590292185544968,-0.04787656292319298
1761131730468281300,0.68428125,0.0668133869767189,0.07735081017017365,-0.052152618765830994
1761131730478281500,0.694281494140625,0.06864598393440247,0.07002042979001999,-0.048487428575754166
1761131730488281300,0.70428125,0.06803511828184128,0.06574437022209167,-0.04115704447031021
1761131730498281500,0.714281494140625,0.06559165567159653,0.06330090761184692,-0.03260493278503418
1761131730508281300,0.72428125,0.06314819306135178,0.06269004940986633,-0.02099849283695221
1761131730518281500,0.734281494140625,0.057650405913591385,0.06146831437945366,-0.013057244941592216
1761131730528281300,0.74428125,0.05032002553343773,0.06269004940986633,-0.008170322515070438
1761131730538281500,0.754281494140625,0.052152618765830994,0.06269004940986633,-0.0038942659739404917
1761131730548282400,0.764282470703125,0.05520694702863693,0.056581392884254456,-0.00022907447419129312
1761131730558282200,0.7742822265625,0.04909829422831535,0.04558581858873367,-0.0038942659739404917
1761131730568282400,0.784282470703125,0.0417679101228714,0.03520110994577408,-0.0032834007870405912
1761131730578282200,0.7942822265625,0.03443752974271774,0.024816401302814484,-0.000839939690195024
1761131730588282400,0.804282470703125,0.028939740732312202,0.024816401302814484,0.002825251780450344
1761131730598282200,0.8142822265625,0.028939740732312202,0.025427265092730522,0.0034361169673502445
1761131730608282400,0.824282470703125,0.030772335827350616,0.02298380434513092,0.004046982154250145
1761131730618282200,0.8342822265625,0.02710714563727379,0.014431691728532314,0.004046982154250145
1761131730628282400,0.844282470703125,0.025274548679590225,0.0034361169673502445,0.00038179077091626823
1761131730638282200,0.8542822265625,0.02038762718439102,-0.00939205288887024,-0.01061378326267004
1761131730648281300,0.86428125,0.010002918541431427,-0.02344195358455181,-0.011835514567792416
1761131730658281500,0.874281494140625,0.005726861767470837,-0.03199406713247299,0.00038179077091626823
1761131730668281300,0.88428125,0.000839939690195024,-0.028328875079751015,0.010155634954571724
1761131730678281500,0.894281494140625,-0.0071013085544109344,-0.016111571341753006,0.011988230049610138
1761131730688281300,0.90428125,-0.01992947794497013,-0.008170322515070438,0.013820826075971127
1761131730698281500,0.914281494140625,-0.026648996397852898,-0.007559457328170538,0.015653422102332115
1761131730708281300,0.92428125,-0.030314188450574875,-0.011224648915231228,0.01687515154480934
1761131730718281500,0.934281494140625,-0.029703322798013687,-0.01366810966283083,0.01748601719737053
1761131730728281300,0.94428125,-0.025427265092730522,-0.016111571341753006,0.016264287754893303
1761131730738281500,0.954281494140625,-0.02298380434513092,-0.016111571341753006,0.01748601719737053
1761131730748282000,0.9642822265625,-0.027259862050414085,-0.024663684889674187,0.019318614155054092
1761131730758282200,0.9742822265625,-0.030314188450574875,-0.027718011289834976,0.025427265092730522
1761131730768282000,0.9842822265625,-0.02848159149289131,-0.030161472037434578,0.029703322798013687
1761131730778282200,0.9942822265625,-0.03275764733552933,-0.03443752974271774,0.0290924571454525
1761131730788282000,1.0042822265625,-0.041920628398656845,-0.03871358558535576,0.0290924571454525
1761131730798282200,1.0142822265625,-0.04986187443137169,-0.042989641427993774,0.03153591975569725
1761131730808282000,1.0242822265625,-0.048029281198978424,-0.0417679101228714,0.036422841250896454
1761131730818282200,1.0342822265625,-0.04375322163105011,-0.03443752974271774,0.04314235970377922
1761131730828282000,1.0442822265625,-0.03825543448328972,-0.028328875079751015,0.05169447138905525
1761131730838282200,1.0542822265625,-0.03153591975569725,-0.02710714563727379,0.056581392884254456
1761131730848281300,1.06428125,-0.0290924571454525,-0.03260493278503418,0.05291620269417763
1761131730858281200,1.07428125,-0.030925052240490913,-0.0417679101228714,0.041920628398656845
1761131730868281300,1.08428125,-0.03153591975569725,-0.0466548316180706,0.03275764733552933
1761131730878281200,1.09428125,-0.033368512988090515,-0.057039543986320496,0.019318614155054092
1761131730888281300,1.10428125,-0.03520110994577408,-0.05887213721871376,0.015042556449770927
1761131730898281200,1.11428125,-0.03764457255601883,-0.05398521572351456,0.015653422102332115
1761131730908281300,1.12428125,-0.03520110994577408,-0.04604396969079971,0.027259862050414085
1761131730918281200,1.13428125,-0.030314188450574875,-0.036880988627672195,0.038866300135850906
1761131730928281300,1.14428125,-0.029703322798013687,-0.027718011289834976,0.0492510087788105
1761131730938281200,1.15428125,-0.027870727702975273,-0.022220224142074585,0.05841398984193802
1761131730948282000,1.1642822265625,-0.021762074902653694,-0.022831087931990623,0.06330090761184692
1761131730958282200,1.1742822265625,-0.01992947794497013,-0.028939740732312202,0.05841398984193802
1761131730968282000,1.1842822265625,-0.018707748502492905,-0.028328875079751015,0.0492510087788105
1761131730978282200,1.1942822265625,-0.01748601719737053,-0.0264962799847126,0.04008803144097328
1761131730988282000,1.2042822265625,-0.013209961354732513,-0.025885414332151413,0.03520110994577408
1761131730998282200,1.2142822265625,-0.011988230049610138,-0.027718011289834976,0.039477165788412094
1761131731008282000,1.2242822265625,-0.011377365328371525,-0.02955060638487339,0.048029281198978424
1761131731018282200,1.2342822265625,-0.010766499675810337,-0.03260493278503418,0.056581392884254456
1761131731028281900,1.24428173828125,-0.006490443367511034,-0.028939740732312202,0.05902485549449921
1761131731038281700,1.25428173828125,-0.0034361169673502445,-0.02038762718439102,0.05291620269417763
1761131731048280800,1.26428076171875,-0.002825251780450344,-0.016722436994314194,0.04253149405121803
1761131731058281000,1.274281005859375,-0.004046982154250145,-0.01488984003663063,0.03275764733552933
1761131731068280800,1.28428076171875,-0.0022143865935504436,-0.016722436994314194,0.03153591975569725
1761131731078281000,1.294281005859375,0.0032834007870405912,-0.016111571341753006,0.0339793786406517
1761131731088280800,1.30428076171875,0.0069485921412706375,-0.015500705689191818,0.035811975598335266
1761131731098281000,1.314281005859375,0.005115996580570936,-0.008781188167631626,0.02848159149289131
1761131731108280800,1.32428076171875,0.008170322515070438,-0.002672535367310047,0.0071013085544109344
1761131731118281000,1.334281005859375,0.008170322515070438,-0.004505131393671036,-0.011224648915231228
1761131731128280800,1.34428076171875,0.011835514567792416,-0.005115996580570936,-0.019776761531829834
1761131731138281000,1.354281005859375,0.021609358489513397,-0.008170322515070438,-0.02038762718439102
1761131731148281900,1.36428173828125,0.028328875079751015,-0.0014508049935102463,-0.014278975315392017
1761131731158281700,1.37428173828125,0.03321579843759537,0.011377365328371525,-0.005726861767470837
1761131731168281900,1.38428173828125,0.03565925732254982,0.023594669997692108,0.006490443367511034
1761131731178281700,1.39428173828125,0.036880988627672195,0.027870727702975273,0.013209961354732513
1761131731188281900,1.40428173828125,0.03565925732254982,0.02848159149289131,0.008323038928210735
1761131731198281700,1.41428173828125,0.03565925732254982,0.024816401302814484,-0.005115996580570936
1761131731208281900,1.42428173828125,0.04054617881774902,0.018096882849931717,-0.02344195358455181
1761131731218281700,1.43428173828125,0.042989641427993774,0.010766499675810337,-0.04787656292319298
1761131731228281900,1.44428173828125,0.04237877577543259,0.005268712528049946,-0.07047858089208603
1761131731238281700,1.45428173828125,0.04115704447031021,-0.00022907447419129312,-0.08147415518760681
1761131731248280800,1.46428076171875,0.04237877577543259,-0.000839939690195024,-0.08758280426263809
1761131731258281000,1.474281005859375,0.03810271993279457,0.008933904580771923,-0.08513934165239334
1761131731268280800,1.48428076171875,0.03749185428023338,0.018096882849931717,-0.08391761034727097
1761131731278281000,1.494281005859375,0.03321579843759537,0.025427265092730522,-0.08330674469470978
1761131731288281000,1.504281005859375,0.033826664090156555,0.0290924571454525,-0.07597636431455612
1761131731298281000,1.514281005859375,0.04115704447031021,0.027259862050414085,-0.06375905871391296
1761131731308281000,1.524281005859375,0.051541756838560104,0.02054034359753132,-0.052152618765830994
1761131731318281000,1.534281005859375,0.05276348441839218,0.02054034359753132,-0.04726569727063179
1761131731328281300,1.54428125,0.04970915988087654,0.022372938692569733,-0.04787656292319298
1761131731338281200,1.55428125,0.04360050708055496,0.021151209250092506,-0.05398521572351456
1761131731348282000,1.5642822265625,0.04237877577543259,0.02298380434513092,-0.06131559982895851
1761131731361494300,1.577494384765625,0.04237877577543259,0.02298380434513092,-0.06498079001903534
1761131731371494400,1.587494384765625,0.04360050708055496,0.021151209250092506,-0.06436992436647415
1761131731381494300,1.597494384765625,0.04482223838567734,0.016264287754893303,-0.06131559982895851
1761131731391494400,1.607494384765625,0.039935316890478134,0.016264287754893303,-0.05826127156615257
1761131731401494300,1.617494384765625,0.03565925732254982,0.021151209250092506,-0.060093868523836136
1761131731411494400,1.627494384765625,0.03627012297511101,0.029703322798013687,-0.0619264654815197
1761131731421494300,1.637494384765625,0.0417679101228714,0.033368512988090515,-0.0619264654815197
1761131731431494400,1.647494384765625,0.045433104038238525,0.0290924571454525,-0.05826127156615257
1761131731441494300,1.657494384765625,0.04360050708055496,0.021151209250092506,-0.04970915988087654
1761131731451493400,1.667493408203125,0.0466548316180706,0.013209961354732513,-0.04360050708055496
1761131731461493500,1.677493408203125,0.04482223838567734,0.010155634954571724,-0.04360050708055496
1761131731471493400,1.687493408203125,0.033826664090156555,0.010766499675810337,-0.04909829422831535
1761131731481493500,1.697493408203125,0.024663684889674187,0.008323038928210735,-0.051541756838560104
1761131731491493400,1.707493408203125,0.02344195358455181,0.0034361169673502445,-0.04970915988087654
1761131731501493500,1.717493408203125,0.025274548679590225,0.0071013085544109344,-0.039324451237916946
1761131731511493400,1.727493408203125,0.0264962799847126,0.015042556449770927,-0.024663684889674187
1761131731521493500,1.737493408203125,0.028328875079751015,0.02298380434513092,-0.0014508049935102463
1761131731531493400,1.747493408203125,0.027718011289834976,0.029703322798013687,0.01748601719737053
1761131731541493500,1.757493408203125,0.025274548679590225,0.0339793786406517,0.022372938692569733
1761131731551494400,1.767494384765625,0.025274548679590225,0.027259862050414085,0.023594669997692108
1761131731561494300,1.777494384765625,0.027718011289834976,0.014431691728532314,0.022372938692569733
1761131731571494400,1.787494384765625,0.03260493278503418,0.008323038928210735,0.02298380434513092
1761131731581494300,1.797494384765625,0.03199406713247299,0.012599095702171326,0.027259862050414085
1761131731591494400,1.807494384765625,0.025885414332151413,0.016264287754893303,0.036422841250896454
1761131731601494300,1.817494384765625,0.022831087931990623,0.01748601719737053,0.0443640872836113
1761131731611494400,1.827494384765625,0.021609358489513397,0.021151209250092506,0.0443640872836113
1761131731621494300,1.837494384765625,0.018555032089352608,0.018096882849931717,0.03825543448328972
1761131731631494400,1.847494384765625,0.014278975315392017,0.006490443367511034,0.030314188450574875
1761131731641494300,1.857494384765625,0.014278975315392017,-0.007559457328170538,0.021151209250092506
1761131731651493400,1.867493408203125,0.015500705689191818,-0.01061378326267004,0.015042556449770927
1761131731661493500,1.877493408203125,0.015500705689191818,-0.012446379289031029,0.021151209250092506
1761131731671493400,1.887493408203125,0.014278975315392017,-0.01061378326267004,0.03214678168296814
1761131731681493500,1.897493408203125,0.015500705689191818,-0.0038942659739404917,0.04680754989385605
1761131731691493400,1.907493408203125,0.011835514567792416,0.008323038928210735,0.0541379339993
1761131731701493500,1.917493408203125,0.008170322515070438,0.015653422102332115,0.05169447138905525
1761131731711493400,1.927493408203125,0.0032834007870405912,0.015653422102332115,0.03764457255601883
1761131731721493500,1.937493408203125,-0.0009926559869199991,0.016264287754893303,0.025427265092730522
1761131731731493400,1.947493408203125,-0.0016035212902352214,0.009544769302010536,0.013820826075971127
1761131731741493500,1.957493408203125,-0.004046982154250145,-0.0014508049935102463,0.011988230049610138
1761131731751494100,1.967494140625,-0.002825251780450344,-0.004505131393671036,0.021151209250092506
1761131731761494300,1.977494384765625,0.00022907447419129312,0.00038179077091626823,0.03153591975569725
1761131731771494100,1.987494140625,0.00022907447419129312,0.01748601719737053,0.04375322163105011
1761131731781494300,1.997494384765625,-0.0034361169673502445,0.029703322798013687,0.05535966157913208
1761131731791494400,2.007494384765625,-0.0071013085544109344,0.03275764733552933,0.06513350456953049
1761131731801494300,2.017494384765625,-0.008323038928210735,0.027259862050414085,0.0645226389169693
1761131731811494400,2.027494384765625,-0.008933904580771923,0.0016035212902352214,0.04864014685153961
1761131731821494300,2.037494384765625,-0.008933904580771923,-0.018555032089352608,0.030314188450574875
1761131731831494400,2.047494384765625,-0.004657847341150045,-0.06436992436647415,0.04008803144097328
1761131731841494300,2.057494384765625,-0.023594669997692108,-0.04970915988087654,0.03275764733552933
1761131731851493400,2.067493408203125,-0.02603813074529171,-0.01366810966283083,0.007712173741310835
1761131731861493500,2.077493408203125,-0.019318614155054092,0.013209961354732513,-0.000839939690195024
1761131731871493400,2.087493408203125,-0.024205535650253296,0.01992947794497013,0.01992947794497013
1761131731881493500,2.097493408203125,-0.02848159149289131,0.014431691728532314,0.041920628398656845
1761131731891493400,2.107493408203125,-0.024205535650253296,0.012599095702171326,0.047418415546417236
1761131731901493500,2.117493408203125,-0.018096882849931717,0.014431691728532314,0.041920628398656845
1761131731911493400,2.127493408203125,-0.014431691728532314,0.011377365328371525,0.03825543448328972
1761131731921493500,2.137493408203125,-0.013820826075971127,0.0022143865935504436,0.03703370690345764
1761131731931493400,2.147493408203125,-0.012599095702171326,-0.000839939690195024,0.03459024429321289
1761131731941493500,2.157493408203125,-0.012599095702171326,0.005268712528049946,0.03520110994577408
1761131731951494100,2.167494140625,-0.013820826075971127,0.015653422102332115,0.03703370690345764
1761131731961494300,2.177494384765625,-0.019318614155054092,0.021151209250092506,0.041920628398656845
1761131731971494100,2.187494140625,-0.027259862050414085,0.01748601719737053,0.04008803144097328
1761131731981494300,2.197494384765625,-0.03520110994577408,0.008323038928210735,0.0339793786406517
1761131731991494100,2.207494140625,-0.033368512988090515,-0.00022907447419129312,0.027870727702975273
1761131732001494300,2.217494384765625,-0.027870727702975273,-0.0014508049935102463,0.025427265092730522
1761131732011494100,2.227494140625,-0.018707748502492905,0.007712173741310835,0.025427265092730522
1761131732021494300,2.237494384765625,-0.0071013085544109344,0.018707748502492905,0.029703322798013687
1761131732031494100,2.247494140625,-0.006490443367511034,0.024816401302814484,0.03520110994577408
1761131732041494300,2.257494384765625,-0.012599095702171326,0.01748601719737053,0.03764457255601883
1761131732051493400,2.267493408203125,-0.016264287754893303,0.008933904580771923,0.030314188450574875
1761131732061493500,2.277493408203125,-0.016264287754893303,-0.00022907447419129312,0.015653422102332115
1761131732071493400,2.287493408203125,-0.01748601719737053,-0.004505131393671036,-0.0020616701804101467
1761131732081493500,2.297493408203125,-0.021762074902653694,-0.0020616701804101467,-0.016722436994314194
1761131732091493400,2.307493408203125,-0.01992947794497013,0.004046982154250145,-0.02038762718439102
1761131732101493500,2.317493408203125,-0.021151209250092506,0.01687515154480934,-0.015500705689191818
1761131732111493400,2.327493408203125,-0.022372938692569733,0.024205535650253296,-0.007559457328170538
1761131732121493500,2.337493408203125,-0.02298380434513092,0.024205535650253296,-0.0020616701804101467
1761131732131493400,2.347493408203125,-0.021151209250092506,0.01687515154480934,0.0034361169673502445
1761131732141493500,2.357493408203125,-0.02054034359753132,0.018707748502492905,0.004657847341150045
1761131732151494100,2.367494140625,-0.016264287754893303,0.018096882849931717,0.006490443367511034
1761131732161494300,2.377494384765625,-0.014431691728532314,0.014431691728532314,0.004657847341150045
1761131732171494400,2.387494384765625,-0.015042556449770927,0.009544769302010536,0.002825251780450344
1761131732181494300,2.397494384765625,-0.018707748502492905,0.002825251780450344,0.0009926559869199991
1761131732191494400,2.407494384765625,-0.023594669997692108,-0.000839939690195024,0.0022143865935504436
1761131732201494300,2.417494384765625,-0.024816401302814484,-0.00022907447419129312,0.004657847341150045
1761131732211494000,2.427493896484375,-0.024816401302814484,0.004046982154250145,0.006490443367511034
1761131732221494000,2.437493896484375,-0.024205535650253296,0.007712173741310835,0.005879578180611134
1761131732231494000,2.447493896484375,-0.027870727702975273,0.007712173741310835,0.004657847341150045
1761131732241494000,2.457493896484375,-0.030314188450574875,0.010155634954571724,0.004657847341150045
1761131732251493000,2.4674931640625,-0.027870727702975273,0.010155634954571724,0.002825251780450344
1761131732261493200,2.4774931640625,-0.027870727702975273,0.005879578180611134,-0.0020616701804101467
1761131732271493000,2.4874931640625,-0.0290924571454525,-0.000839939690195024,-0.011224648915231228
1761131732281493000,2.497492919921875,-0.03275764733552933,-0.004505131393671036,-0.012446379289031029
1761131732291493000,2.5074931640625,-0.03275764733552933,-0.005115996580570936,-0.011224648915231228
1761131732301493200,2.5174931640625,-0.03520110994577408,0.00038179077091626823,-0.013057244941592216
1761131732311493000,2.5274931640625,-0.03764457255601883,0.0034361169673502445,-0.011835514567792416
1761131732321493200,2.5374931640625,-0.03459024429321289,0.005268712528049946,-0.0069485921412706375
1761131732331493000,2.5474931640625,-0.03153591975569725,0.007712173741310835,0.00038179077091626823
1761131732341493000,2.557492919921875,-0.027259862050414085,0.008933904580771923,0.0071013085544109344
1761131732351494000,2.567493896484375,-0.025427265092730522,0.007712173741310835,0.010766499675810337
1761131732361494000,2.577493896484375,-0.02603813074529171,0.004657847341150045,0.01748601719737053
1761131732371494000,2.587493896484375,-0.029703322798013687,0.0016035212902352214,0.021762074902653694
1761131732381494000,2.597493896484375,-0.024816401302814484,-0.01488984003663063,0.038866300135850906
1761131732391494000,2.607493896484375,-0.035811975598335266,-0.01366810966283083,0.047418415546417236
1761131732401494000,2.617493896484375,-0.0290924571454525,-0.0032834007870405912,0.04253149405121803
1761131732411494000,2.627493896484375,-0.01992947794497013,-0.000839939690195024,0.03214678168296814
1761131732421494000,2.637493896484375,-0.016264287754893303,-0.0069485921412706375,0.02298380434513092
1761131732431494000,2.647493896484375,-0.02054034359753132,-0.011224648915231228,0.019318614155054092
1761131732441494000,2.657493896484375,-0.024205535650253296,-0.02099849283695221,0.011988230049610138
1761131732451493000,2.6674931640625,-0.022372938692569733,-0.022831087931990623,0.013209961354732513
1761131732461493000,2.677492919921875,-0.01748601719737053,-0.02038762718439102,0.018707748502492905
1761131732471493000,2.6874931640625,-0.014431691728532314,-0.01794416643679142,0.025427265092730522
1761131732481493000,2.697492919921875,-0.014431691728532314,-0.01061378326267004,0.033368512988090515
1761131732491493000,2.7074931640625,-0.013209961354732513,-0.005726861767470837,0.04130976274609566
1761131732501493000,2.717492919921875,-0.011988230049610138,-0.006337726954370737,0.04864014685153961
1761131732511493400,2.727493408203125,-0.005268712528049946,-0.006337726954370737,0.04986187443137169
1761131732521493500,2.737493408203125,0.0038942659739404917,-0.0069485921412706375,0.04680754989385605
1761131732531493400,2.747493408203125,0.008781188167631626,-0.008170322515070438,0.038866300135850906
1761131732541493500,2.757493408203125,0.008781188167631626,-0.008170322515070438,0.02848159149289131
1761131732551494400,2.767494384765625,0.005726861767470837,-0.011835514567792416,0.01748601719737053
1761131732561494300,2.777494384765625,0.0014508049935102463,-0.018555032089352608,0.008933904580771923
1761131732571494400,2.787494384765625,-0.0016035212902352214,-0.025885414332151413,0.002825251780450344
1761131732581494300,2.797494384765625,-0.0022143865935504436,-0.03199406713247299,-0.0032834007870405912
1761131732591494100,2.807494140625,-0.00038179077091626823,-0.022831087931990623,-0.007559457328170538
1761131732601494300,2.817494384765625,0.0038942659739404917,-0.01488984003663063,-0.0014508049935102463
1761131732611494100,2.827494140625,0.007559457328170538,-0.007559457328170538,0.013820826075971127
1761131732621494300,2.837494384765625,0.012446379289031029,-0.0014508049935102463,0.02603813074529171
1761131732631494100,2.847494140625,0.01488984003663063,0.0009926559869199991,0.0290924571454525
1761131732641494300,2.857494384765625,0.01794416643679142,-0.004505131393671036,0.021762074902653694
1761131732651493400,2.867493408203125,0.018555032089352608,-0.014278975315392017,0.005879578180611134
1761131732661493500,2.877493408203125,0.018555032089352608,-0.022220224142074585,-0.014278975315392017
1761131732671493400,2.887493408203125,0.01488984003663063,-0.025274548679590225,-0.03443752974271774
1761131732681493500,2.897493408203125,0.01061378326267004,-0.021609358489513397,-0.04970915988087654
1761131732691493400,2.907493408203125,0.01061378326267004,-0.012446379289031029,-0.05520694702863693
1761131732701493500,2.917493408203125,0.014278975315392017,-0.004505131393671036,-0.04726569727063179
1761131732711493400,2.927493408203125,0.016722436994314194,-0.004505131393671036,-0.03260493278503418
1761131732721493500,2.937493408203125,0.02099849283695221,-0.0069485921412706375,-0.02038762718439102
1761131732731493400,2.947493408203125,0.02344195358455181,-0.0069485921412706375,-0.01488984003663063
1761131732741493500,2.957493408203125,0.0264962799847126,-0.0069485921412706375,-0.021609358489513397
1761131732751494100,2.967494140625,0.03504839166998863,-0.006337726954370737,-0.0264962799847126
1761131732761494300,2.977494384765625,0.03749185428023338,-0.0038942659739404917,-0.02710714563727379
1761131732771494100,2.987494140625,0.04054617881774902,-0.004505131393671036,-0.025885414332151413
1761131732781494300,2.997494384765625,0.039324451237916946,-0.0014508049935102463,-0.024663684889674187
1761131732791494100,3.007494140625,0.03565925732254982,0.00038179077091626823,-0.022220224142074585
1761131732801494300,3.017494384765625,0.03260493278503418,-0.002672535367310047,-0.017333300784230232
1761131732811494400,3.027494384765625,0.03565925732254982,-0.006337726954370737,-0.01488984003663063
1761131732821494300,3.037494384765625,0.033826664090156555,-0.005726861767470837,-0.016111571341753006
1761131732831494400,3.047494384765625,0.03565925732254982,-0.0069485921412706375,-0.015500705689191818
1761131732841494300,3.057494384765625,0.03810271993279457,-0.01061378326267004,-0.01061378326267004
1761131732851493400,3.067493408203125,0.04115704447031021,-0.017333300784230232,-0.008781188167631626
1761131732861493500,3.077493408203125,0.0417679101228714,-0.019165897741913795,-0.010002918541431427
1761131732871493400,3.087493408203125,0.03871358558535576,-0.02038762718439102,-0.008781188167631626
1761131732891493400,3.107493408203125,0.036880988627672195,-0.02038762718439102,-0.006337726954370737
1761131732901493500,3.117493408203125,0.03321579843759537,-0.014278975315392017,-0.0038942659739404917
1761131732911493400,3.127493408203125,0.0264962799847126,-0.0032834007870405912,-0.002672535367310047
1761131732921493500,3.137493408203125,0.022831087931990623,0.0022143865935504436,0.0022143865935504436
1761131732931493400,3.147493408203125,0.022831087931990623,0.004046982154250145,0.005879578180611134
1761131732941493500,3.157493408203125,0.025885414332151413,-0.00022907447419129312,0.0034361169673502445
1761131732951494100,3.167494140625,0.02344195358455181,-0.008170322515070438,-0.004505131393671036
1761131732961494300,3.177494384765625,0.02099849283695221,-0.018555032089352608,-0.010002918541431427
1761131732971494100,3.187494140625,0.016722436994314194,-0.025274548679590225,-0.00939205288887024
1761131732981494300,3.197494384765625,0.012446379289031029,-0.025274548679590225,-0.0069485921412706375
1761131732991494100,3.207494140625,0.011224648915231228,-0.02038762718439102,-0.008170322515070438
1761131733001494300,3.217494384765625,0.01061378326267004,-0.018555032089352608,-0.010002918541431427
1761131733011494100,3.227494140625,0.00939205288887024,-0.02344195358455181,-0.013057244941592216
1761131733021494300,3.237494384765625,0.007559457328170538,-0.027718011289834976,-0.021609358489513397
1761131733031494100,3.247494140625,0.0069485921412706375,-0.036880988627672195,-0.025885414332151413
1761131733041494300,3.257494384765625,0.006337726954370737,-0.04054617881774902,-0.0264962799847126
1761131733051493400,3.267493408203125,0.00022907447419129312,-0.039324451237916946,-0.02344195358455181
1761131733061493500,3.277493408203125,-0.005268712528049946,-0.03810271993279457,-0.02038762718439102
1761131733071493400,3.287493408203125,-0.010155634954571724,-0.03565925732254982,-0.015500705689191818
1761131733081493500,3.297493408203125,-0.01687515154480934,-0.036880988627672195,-0.00939205288887024
1761131733091493400,3.307493408203125,-0.01992947794497013,-0.04054617881774902,-0.011224648915231228
1761131733101493500,3.317493408203125,-0.02054034359753132,-0.045433104038238525,-0.016111571341753006
1761131733111493400,3.327493408203125,-0.023594669997692108,-0.051541756838560104,-0.02955060638487339
1761131733121493200,3.3374931640625,-0.02603813074529171,-0.057650405913591385,-0.0417679101228714
1761131733131493400,3.347493408203125,-0.03153591975569725,-0.06436992436647415,-0.05093089118599892
1761131733141493200,3.3574931640625,-0.03520110994577408,-0.0668133869767189,-0.05276348441839218
1761131733151494100,3.367494140625,-0.04130976274609566,-0.06742425262928009,-0.04909829422831535
1761131733161494300,3.377494384765625,-0.0492510087788105,-0.06742425262928009,-0.04360050708055496
1761131733171494100,3.387494140625,-0.05597052723169327,-0.06559165567159653,-0.042989641427993774
1761131733181494300,3.397494384765625,-0.06391177326440811,-0.06253732740879059,-0.045433104038238525
1761131733191494100,3.407494140625,-0.07124216109514236,-0.05948300287127495,-0.04726569727063179
1761131733201494300,3.417494384765625,-0.06635523587465286,-0.057039543986320496,-0.05032002553343773
1761131733211494100,3.427494140625,-0.059635721147060394,-0.057650405913591385,-0.048487428575754166
1761131733221494300,3.437494384765625,-0.056581392884254456,-0.06253732740879059,-0.04482223838567734
1761131733231494100,3.447494140625,-0.06391177326440811,-0.06375905871391296,-0.03871358558535576
1761131733241494300,3.457494384765625,-0.0742964819073677,-0.06375905871391296,-0.04054617881774902
1761131733251493400,3.467493408203125,-0.08773551881313324,-0.06253732740879059,-0.05276348441839218
1761131733261493500,3.477493408203125,-0.10117455571889877,-0.06436992436647415,-0.0668133869767189
1761131733271493400,3.487493408203125,-0.10850493609905243,-0.0668133869767189,-0.07658722996711731
1761131733281493500,3.497493408203125,-0.11155926436185837,-0.06314819306135178,-0.07353290170431137
1761131733291493400,3.507493408203125,-0.11217013001441956,-0.054596081376075745,-0.0619264654815197
1761131733301493500,3.517493408203125,-0.1097266674041748,-0.033826664090156555,-0.04604396969079971
1761131733311493400,3.527493408203125,-0.11278099566698074,-0.016722436994314194,-0.030772335827350616
1761131733321493500,3.537493408203125,-0.1146135926246643,-0.011224648915231228,-0.019776761531829834
1761131733331493400,3.547493408203125,-0.1152244582772255,-0.01488984003663063,-0.01488984003663063
1761131733341493500,3.557493408203125,-0.11583532392978668,-0.024052819237113,-0.019165897741913795
1761131733351494400,3.567494384765625,-0.11339186131954193,-0.024663684889674187,-0.030161472037434578
1761131733361494300,3.577494384765625,-0.10850493609905243,-0.027718011289834976,-0.036880988627672195
1761131733371494400,3.587494384765625,-0.10606148093938828,-0.03199406713247299,-0.039935316890478134
1761131733381494300,3.597494384765625,-0.10606148093938828,-0.03199406713247299,-0.03627012297511101
1761131733391494400,3.607494384765625,-0.10606148093938828,-0.02710714563727379,-0.025274548679590225
1761131733401494300,3.617494384765625,-0.10300715267658234,-0.02344195358455181,-0.014278975315392017
1761131733411494400,3.627494384765625,-0.10361801832914352,-0.01794416643679142,-0.008781188167631626
1761131733421494300,3.637494384765625,-0.10300715267658234,-0.017333300784230232,-0.006337726954370737
1761131733431494400,3.647494384765625,-0.09201157838106155,-0.02344195358455181,-0.014278975315392017
1761131733441494300,3.657494384765625,-0.0846811980009079,-0.022220224142074585,-0.01794416643679142
1761131733451493400,3.667493408203125,-0.07673994451761246,-0.022831087931990623,-0.02038762718439102
1761131733461493500,3.677493408203125,-0.07185302674770355,-0.024663684889674187,-0.021609358489513397
1761131733471493400,3.687493408203125,-0.07063129544258118,-0.024663684889674187,-0.016722436994314194
1761131733481493500,3.697493408203125,-0.06391177326440811,-0.022220224142074585,-0.013057244941592216
1761131733491493400,3.707493408203125,-0.05719225853681564,-0.01488984003663063,-0.011224648915231228
1761131733501493500,3.717493408203125,-0.053527068346738815,-0.008170322515070438,-0.01061378326267004
1761131733511493400,3.727493408203125,-0.051083605736494064,-0.005726861767470837,-0.011835514567792416
1761131733521493500,3.737493408203125,-0.0492510087788105,-0.0038942659739404917,-0.01366810966283083
1761131733531460000,3.747460205078125,-0.04619668424129486,-0.002672535367310047,-0.010002918541431427
1761131733541426700,3.7574267578125,-0.039477165788412094,0.004657847341150045,-0.000839939690195024
1761131733551394300,3.767394287109375,-0.03214678168296814,0.010155634954571724,0.014431691728532314
1761131733561361000,3.77736083984375,-0.027259862050414085,0.01748601719737053,0.023594669997692108
1761131733571327500,3.787327392578125,-0.022372938692569733,0.021151209250092506,0.024816401302814484
1761131733581294300,3.79729443359375,-0.01748601719737053,0.01748601719737053,0.01992947794497013
1761131733591261000,3.807260986328125,-0.006490443367511034,0.016264287754893303,0.010155634954571724
1761131733601227500,3.8172275390625,-0.00038179077091626823,0.011377365328371525,0.0009926559869199991
1761131733611194000,3.827194091796875,0.005726861767470837,0.002825251780450344,-0.007559457328170538
1761131733621161000,3.837160888671875,0.006337726954370737,0.0034361169673502445,-0.00939205288887024
1761131733631127600,3.84712744140625,0.010002918541431427,0.013209961354732513,-0.0069485921412706375
1761131733641094100,3.85709423828125,0.014278975315392017,0.02603813074529171,0.004657847341150045
1761131733651060000,3.86706005859375,0.015500705689191818,0.0339793786406517,0.021762074902653694
1761131733661026800,3.87702685546875,0.018555032089352608,0.04130976274609566,0.03825543448328972
1761131733670993400,3.886993408203125,0.0264962799847126,0.0443640872836113,0.0492510087788105
1761131733680960000,3.8969599609375,0.03565925732254982,0.04375322163105011,0.05474879592657089
1761131733690926600,3.906926513671875,0.042989641427993774,0.047418415546417236,0.05230533704161644
1761131733700893400,3.9168935546875,0.05337435007095337,0.0492510087788105,0.0492510087788105
1761131733710860000,3.926860107421875,0.06436992436647415,0.041920628398656845,0.05230533704161644
1761131733720826600,3.93682666015625,0.06436992436647415,0.035811975598335266,0.06574437022209167
1761131733730793200,3.946793212890625,0.06559165567159653,0.03214678168296814,0.07673994451761246
1761131733740760000,3.956760009765625,0.06925684958696365,0.035811975598335266,0.0797942727804184
1761131733750727400,3.9667275390625,0.07170030474662781,0.04008803144097328,0.08223773539066315
1761131733760694300,3.9766943359375,0.07658722996711731,0.04008803144097328,0.08040513843297958
1761131733770660900,3.986660888671875,0.08269587904214859,0.0443640872836113,0.07551821321249008
1761131733780627500,3.99662744140625,0.0869719386100769,0.0443640872836113,0.06391177326440811
1761131733790594300,4.00659423828125,0.08941540122032166,0.04069889709353447,0.0541379339993
1761131733800561000,4.016560791015625,0.0924697294831276,0.033368512988090515,0.047418415546417236
1761131733810527500,4.026527587890625,0.0924697294831276,0.026648996397852898,0.04619668424129486
1761131733820494300,4.036494384765625,0.09308059513568878,0.022372938692569733,0.04619668424129486
1761131733830494200,4.046494140625,0.09002626687288284,0.023594669997692108,0.04558581858873367
1761131733840494300,4.056494384765625,0.08452847599983215,0.0290924571454525,0.0443640872836113
1761131733850493400,4.066493408203125,0.07658722996711731,0.03825543448328972,0.041920628398656845
1761131733860493300,4.076493408203125,0.07108944654464722,0.04314235970377922,0.04130976274609566
1761131733870493400,4.086493408203125,0.06986771523952484,0.04130976274609566,0.04314235970377922
1761131733880493300,4.096493408203125,0.07108944654464722,0.038866300135850906,0.044974952936172485
1761131733890493400,4.106493408203125,0.07108944654464722,0.035811975598335266,0.0443640872836113
1761131733900493300,4.116493408203125,0.07108944654464722,0.035811975598335266,0.04069889709353447
1761131733910493400,4.126493408203125,0.06803511828184128,0.036422841250896454,0.04008803144097328
1761131733920493300,4.136493408203125,0.06253732740879059,0.03703370690345764,0.0443640872836113
1761131733930493400,4.146493408203125,0.05337435007095337,0.03703370690345764,0.04986187443137169
1761131733940493300,4.156493408203125,0.04054617881774902,0.03459024429321289,0.05719225853681564
1761131733950494200,4.166494140625,0.03810271993279457,0.04069889709353447,0.056581392884254456
1761131733960494300,4.176494384765625,0.03321579843759537,0.039477165788412094,0.05047274008393288
1761131733970494200,4.186494140625,0.02344195358455181,0.03153591975569725,0.038866300135850906
1761131733980494300,4.196494384765625,0.019776761531829834,0.02848159149289131,0.0290924571454525
1761131733990494200,4.206494140625,0.016722436994314194,0.024816401302814484,0.021762074902653694
1761131734000494300,4.216494384765625,0.01488984003663063,0.02298380434513092,0.01748601719737053
1761131734010494200,4.226494140625,0.017333300784230232,0.024205535650253296,0.019318614155054092
1761131734020494300,4.236494384765625,0.022220224142074585,0.02603813074529171,0.01687515154480934
1761131734030494200,4.246494140625,0.02099849283695221,0.0290924571454525,0.0071013085544109344
1761131734040494300,4.256494384765625,0.01488984003663063,0.029703322798013687,-0.005726861767470837
1761131734050493400,4.266493408203125,0.013057244941592216,0.030314188450574875,-0.018555032089352608
1761131734060493300,4.276493408203125,0.01061378326267004,0.027259862050414085,-0.031383201479911804
1761131734070493400,4.286493408203125,0.011224648915231228,0.021762074902653694,-0.04115704447031021
1761131734080493300,4.296493408203125,0.01061378326267004,0.014431691728532314,-0.04421137273311615
1761131734090493400,4.306493408203125,0.012446379289031029,0.009544769302010536,-0.04421137273311615
1761131734100493300,4.316493408203125,0.01366810966283083,0.0071013085544109344,-0.048487428575754166
1761131734110493400,4.326493408203125,0.01366810966283083,0.008323038928210735,-0.05520694702863693
1761131734120493300,4.336493408203125,0.008170322515070438,0.011377365328371525,-0.05887213721871376
1761131734130493400,4.346493408203125,0.0038942659739404917,0.012599095702171326,-0.05093089118599892
1761131734140493300,4.356493408203125,0.0020616701804101467,0.013209961354732513,-0.02955060638487339
1761131734150494200,4.366494140625,0.0020616701804101467,0.016264287754893303,-0.005726861767470837
1761131734160494300,4.376494384765625,0.002672535367310047,0.026648996397852898,0.012599095702171326
1761131734170494200,4.386494140625,-0.00038179077091626823,0.0339793786406517,0.030925052240490913
1761131734180494300,4.396494384765625,-0.002825251780450344,0.03214678168296814,0.0290924571454525
1761131734190494200,4.406494140625,-0.007712173741310835,0.024205535650253296,0.01748601719737053
1761131734200494300,4.416494384765625,-0.010766499675810337,0.015653422102332115,-0.000839939690195024
1761131734210494200,4.426494140625,-0.0071013085544109344,0.016264287754893303,-0.014278975315392017
1761131734220494300,4.436494384765625,0.0020616701804101467,0.013820826075971127,-0.02099849283695221
1761131734230494200,4.446494140625,0.016722436994314194,-0.0020616701804101467,-0.022831087931990623
1761131734240494300,4.456494384765625,0.030772335827350616,-0.03199406713247299,-0.024663684889674187
1761131734250493400,4.466493408203125,0.0466548316180706,-0.08941540122032166,-0.017333300784230232
1761131734260493600,4.47649365234375,0.05887213721871376,-0.11446087807416916,-0.039935316890478134
1761131734270493400,4.486493408203125,0.07841982692480087,-0.12606731057167053,-0.10163270682096481
1761131734280493300,4.496493408203125,0.09308059513568878,-0.1272890418767929,-0.17982345819473267
1761131734290493400,4.506493408203125,0.09308059513568878,-0.14928019046783447,-0.2433534413576126
1761131734300493300,4.516493408203125,0.0869719386100769,-0.17066048085689545,-0.2751184403896332
1761131734310493400,4.526493408203125,0.082085020840168,-0.18409951031208038,-0.28183794021606445
1761131734320493300,4.536493408203125,0.07841982692480087,-0.19020816683769226,-0.2683989107608795
1761131734330493400,4.546493408203125,0.07658722996711731,-0.18654297292232513,-0.24457517266273499
1761131734340493600,4.55649365234375,0.06498079001903534,-0.1731039434671402,-0.22197316586971283
1761131734350494200,4.566494140625,0.05032002553343773,-0.14622586965560913,-0.2030363380908966
1761131734360494300,4.576494384765625,0.02955060638487339,-0.11079568415880203,-0.18165604770183563
1761131734370494200,4.586494140625,0.011835514567792416,-0.07475463300943375,-0.15661057829856873
1761131734380494300,4.596494384765625,-0.0022143865935504436,-0.057650405913591385,-0.12606731057167053
1761131734390494200,4.606494140625,-0.014431691728532314,-0.06131559982895851,-0.09796751290559769
1761131734400494300,4.616494384765625,-0.024205535650253296,-0.060704734176397324,-0.07475463300943375
1761131734410494200,4.626494140625,-0.04008803144097328,-0.03871358558535576,-0.05948300287127495
1761131734420494300,4.636494384765625,-0.06146831437945366,-0.01488984003663063,-0.05398521572351456
1761131734430494200,4.646494140625,-0.08223773539066315,0.013820826075971127,-0.042989641427993774
1761131734440494300,4.656494384765625,-0.09628763794898987,0.029703322798013687,-0.022220224142074585
1761131734450493400,4.666493408203125,-0.10056369006633759,0.03275764733552933,0.009544769302010536
1761131734460493600,4.67649365234375,-0.0999528244137764,0.030314188450574875,0.04069889709353447
1761131734470493400,4.686493408203125,-0.09506590664386749,0.0290924571454525,0.06085744872689247
1761131734480493600,4.69649365234375,-0.09262244403362274,0.03214678168296814,0.06330090761184692
1761131734490493400,4.706493408203125,-0.09384417533874512,0.03703370690345764,0.05291620269417763
1761131734500493600,4.71649365234375,-0.09506590664386749,0.035811975598335266,0.04069889709353447
1761131734510493400,4.726493408203125,-0.0895681157708168,0.021762074902653694,0.036422841250896454
1761131734520493600,4.73649365234375,-0.08284860104322433,0.007712173741310835,0.04253149405121803
1761131734530493400,4.746493408203125,-0.07551821321249008,-0.0038942659739404917,0.056581392884254456
1761131734540493600,4.75649365234375,-0.07307475805282593,-0.004505131393671036,0.06696610152721405
1761131734550494200,4.766494140625,-0.0749073475599289,0.005268712528049946,0.06757696717977524
1761131734560494300,4.776494384765625,-0.07673994451761246,0.009544769302010536,0.06207918003201485
1761131734570494200,4.786494140625,-0.07551821321249008,0.007712173741310835,0.05169447138905525
1761131734580494300,4.796494384765625,-0.07307475805282593,-0.0032834007870405912,0.0443640872836113
1761131734590494200,4.806494140625,-0.06757696717977524,-0.013057244941592216,0.04314235970377922
1761131734600494300,4.816494384765625,-0.059635721147060394,-0.022831087931990623,0.04130976274609566
1761131734610494200,4.826494140625,-0.05474879592657089,-0.028939740732312202,0.0290924571454525
1761131734620494300,4.836494384765625,-0.0541379339993,-0.031383201479911804,0.006490443367511034
1761131734630494200,4.846494140625,-0.05535966157913208,-0.03504839166998863,-0.014278975315392017
1761131734640494000,4.856494140625,-0.05291620269417763,-0.04787656292319298,-0.022831087931990623
1761131734650493400,4.866493408203125,-0.0492510087788105,-0.052152618765830994,-0.013057244941592216
1761131734660493300,4.876493408203125,-0.044974952936172485,-0.05642867833375931,0.007712173741310835
1761131734670493400,4.886493408203125,-0.04314235970377922,-0.05581781268119812,0.03214678168296814
1761131734680493300,4.896493408203125,-0.04314235970377922,-0.04726569727063179,0.048029281198978424
1761131734690493400,4.906493408203125,-0.044974952936172485,-0.033826664090156555,0.05230533704161644
1761131734700493300,4.916493408203125,-0.0443640872836113,-0.019776761531829834,0.0443640872836113
1761131734710493200,4.9264931640625,-0.047418415546417236,-0.013057244941592216,0.03764457255601883
1761131734720493300,4.936493408203125,-0.04558581858873367,-0.016111571341753006,0.03520110994577408
1761131734730493200,4.9464931640625,-0.04008803144097328,-0.025885414332151413,0.03459024429321289
1761131734740493300,4.956493408203125,-0.033368512988090515,-0.03321579843759537,0.03214678168296814
1761131734750494200,4.966494140625,-0.024816401302814484,-0.036880988627672195,0.0290924571454525
1761131734760494000,4.976494140625,-0.021762074902653694,-0.03443752974271774,0.021151209250092506
1761131734770494200,4.986494140625,-0.024205535650253296,-0.027718011289834976,0.013209961354732513
1761131734780494000,4.996494140625,-0.027259862050414085,-0.019776761531829834,0.008323038928210735
1761131734790494200,5.006494140625,-0.027870727702975273,-0.019165897741913795,0.012599095702171326
1761131734800494000,5.016494140625,-0.03153591975569725,-0.02038762718439102,0.021151209250092506
1761131734810494200,5.026494140625,-0.03703370690345764,-0.02038762718439102,0.035811975598335266
1761131734820494000,5.036494140625,-0.04130976274609566,-0.019776761531829834,0.0492510087788105
1761131734830494200,5.046494140625,-0.044974952936172485,-0.01794416643679142,0.05597052723169327
1761131734840494000,5.056494140625,-0.04314235970377922,-0.011835514567792416,0.05291620269417763
1761131734850493400,5.066493408203125,-0.03520110994577408,-0.005115996580570936,0.04375322163105011
1761131734860493300,5.076493408203125,-0.02298380434513092,-0.000839939690195024,0.03459024429321289
1761131734870493400,5.086493408203125,-0.019318614155054092,-0.0038942659739404917,0.019318614155054092
1761131734880493300,5.096493408203125,-0.021762074902653694,-0.00939205288887024,0.0034361169673502445
1761131734890493400,5.106493408203125,-0.024205535650253296,-0.016111571341753006,-0.008781188167631626
1761131734900493300,5.116493408203125,-0.024816401302814484,-0.024663684889674187,-0.015500705689191818
1761131734910493400,5.126493408203125,-0.02298380434513092,-0.024052819237113,-0.01366810966283083
1761131734920493300,5.136493408203125,-0.021762074902653694,-0.016111571341753006,-0.008781188167631626
1761131734930493400,5.146493408203125,-0.021762074902653694,-0.0038942659739404917,-0.0014508049935102463
1761131734940493300,5.156493408203125,-0.02054034359753132,0.008323038928210735,0.006490443367511034
1761131734950494200,5.166494140625,-0.021762074902653694,0.011377365328371525,0.009544769302010536
1761131734960494300,5.176494384765625,-0.018707748502492905,0.004657847341150045,0.010155634954571724
1761131734970494200,5.186494140625,-0.009544769302010536,-0.011835514567792416,0.0016035212902352214
1761131734980494300,5.196494384765625,-0.004046982154250145,-0.022831087931990623,-0.014278975315392017
1761131734990494200,5.206494140625,-0.00038179077091626823,-0.02710714563727379,-0.03199406713247299
1761131735000494300,5.216494384765625,-0.0022143865935504436,-0.024663684889674187,-0.039935316890478134
1761131735010494200,5.226494140625,-0.005879578180611134,-0.016111571341753006,-0.036880988627672195
1761131735020494300,5.236494384765625,-0.011377365328371525,-0.008781188167631626,-0.028328875079751015
1761131735030494200,5.246494140625,-0.011377365328371525,0.0022143865935504436,-0.018555032089352608
1761131735040494300,5.256494384765625,-0.011377365328371525,0.010155634954571724,-0.013057244941592216
1761131735050493400,5.266493408203125,-0.009544769302010536,0.012599095702171326,-0.006337726954370737
1761131735060493300,5.276493408203125,-0.008933904580771923,0.011377365328371525,0.0009926559869199991
1761131735070493400,5.286493408203125,-0.005879578180611134,0.009544769302010536,0.005879578180611134
1761131735080493300,5.296493408203125,-0.002825251780450344,0.008323038928210735,0.009544769302010536
1761131735090493400,5.306493408203125,0.005726861767470837,0.007712173741310835,0.004657847341150045
1761131735100493300,5.316493408203125,0.013057244941592216,0.008933904580771923,-0.002672535367310047
1761131735110493400,5.326493408203125,0.015500705689191818,0.008933904580771923,-0.0032834007870405912
1761131735120493300,5.336493408203125,0.01488984003663063,0.008323038928210735,-0.0038942659739404917
1761131735130493400,5.346493408203125,0.011835514567792416,0.006490443367511034,-0.0038942659739404917
1761131735140493300,5.356493408203125,0.008781188167631626,0.0071013085544109344,-0.004505131393671036
1761131735150494200,5.366494140625,0.011835514567792416,0.0016035212902352214,-0.004505131393671036
1761131735160494000,5.376494140625,0.015500705689191818,0.0022143865935504436,-0.005726861767470837
1761131735170494200,5.386494140625,0.017333300784230232,0.007712173741310835,-0.008170322515070438
1761131735180494300,5.396494384765625,0.018555032089352608,0.007712173741310835,-0.006337726954370737
1761131735190494200,5.406494140625,0.019776761531829834,0.011377365328371525,-0.000839939690195024
1761131735200494300,5.416494384765625,0.01794416643679142,0.011377365328371525,0.00038179077091626823
1761131735210494200,5.426494140625,0.015500705689191818,0.004657847341150045,-0.0014508049935102463
1761131735220494300,5.436494384765625,0.018555032089352608,-0.002672535367310047,0.0009926559869199991
1761131735230494200,5.446494140625,0.02344195358455181,-0.004505131393671036,0.0009926559869199991
1761131735240494300,5.456494384765625,0.028939740732312202,0.0034361169673502445,-0.002672535367310047
1761131735250493400,5.466493408203125,0.028328875079751015,0.013820826075971127,-0.0032834007870405912
1761131735260493300,5.476493408203125,0.02344195358455181,0.021762074902653694,0.00038179077091626823
1761131735270493400,5.486493408203125,0.024052819237113,0.024816401302814484,0.004046982154250145
1761131735280493300,5.496493408203125,0.022831087931990623,0.024205535650253296,0.004046982154250145
1761131735290493400,5.506493408203125,0.022220224142074585,0.022372938692569733,-0.0014508049935102463
1761131735300493300,5.516493408203125,0.02099849283695221,0.013209961354732513,-0.012446379289031029
1761131735310493400,5.526493408203125,0.024052819237113,0.004657847341150045,-0.016722436994314194
1761131735320493300,5.536493408203125,0.02955060638487339,0.00038179077091626823,-0.015500705689191818
1761131735330493400,5.546493408203125,0.03871358558535576,0.004046982154250145,-0.011224648915231228
1761131735340493300,5.556493408203125,0.036880988627672195,0.008933904580771923,-0.008170322515070438
1761131735350494200,5.566494140625,0.030161472037434578,0.0071013085544109344,-0.011835514567792416
1761131735360494000,5.576494140625,0.019776761531829834,0.0034361169673502445,-0.014278975315392017
1761131735370494200,5.586494140625,0.014278975315392017,-0.0032834007870405912,-0.011835514567792416
1761131735380494300,5.596494384765625,0.016722436994314194,-0.00022907447419129312,-0.008170322515070438
1761131735390494200,5.606494140625,0.01488984003663063,0.009544769302010536,-0.005726861767470837
1761131735400494300,5.616494384765625,0.01366810966283083,0.019318614155054092,0.002825251780450344
1761131735410494200,5.626494140625,0.012446379289031029,0.027259862050414085,0.009544769302010536
1761131735420494300,5.636494384765625,0.011835514567792416,0.03153591975569725,0.008323038928210735
1761131735430494200,5.646494140625,0.012446379289031029,0.03153591975569725,0.0009926559869199991
1761131735440494300,5.656494384765625,0.01488984003663063,0.02298380434513092,-0.002672535367310047
1761131735450493400,5.666493408203125,0.02099849283695221,0.011988230049610138,-0.000839939690195024
1761131735460493300,5.676493408203125,0.024052819237113,0.006490443367511034,0.002825251780450344
1761131735470493400,5.686493408203125,0.021609358489513397,0.008933904580771923,0.0009926559869199991
1761131735480493300,5.696493408203125,0.011224648915231228,0.014431691728532314,-0.0032834007870405912
1761131735490493400,5.706493408203125,0.002672535367310047,0.019318614155054092,-0.004505131393671036
1761131735500493300,5.716493408203125,-0.0022143865935504436,0.01748601719737053,0.00038179077091626823
1761131735510493400,5.726493408203125,0.0014508049935102463,0.01687515154480934,0.0071013085544109344
1761131735520493300,5.736493408203125,0.005726861767470837,0.016264287754893303,0.011377365328371525
1761131735530493400,5.746493408203125,0.008781188167631626,0.018707748502492905,0.013820826075971127
1761131735540493300,5.756493408203125,0.0069485921412706375,0.014431691728532314,0.010766499675810337
1761131735550494200,5.766494140625,0.005726861767470837,0.011377365328371525,0.0009926559869199991
1761131735560494300,5.776494384765625,0.005726861767470837,0.004657847341150045,-0.011224648915231228
1761131735570494200,5.786494140625,0.007559457328170538,-0.0038942659739404917,-0.019165897741913795
1761131735580494300,5.796494384765625,0.004505131393671036,-0.0038942659739404917,-0.016722436994314194
1761131735590494200,5.806494140625,0.0014508049935102463,-0.00022907447419129312,-0.010002918541431427
1761131735600494300,5.816494384765625,-0.0034361169673502445,0.005268712528049946,-0.0014508049935102463
1761131735610494200,5.826494140625,-0.0071013085544109344,0.011377365328371525,0.002825251780450344
1761131735620494300,5.836494384765625,-0.006490443367511034,0.01992947794497013,0.0009926559869199991
1761131735630494200,5.846494140625,-0.010155634954571724,0.021151209250092506,0.0009926559869199991
1761131735640494300,5.856494384765625,-0.007712173741310835,0.02054034359753132,0.008323038928210735
1761131735650493400,5.866493408203125,-0.005268712528049946,0.018096882849931717,0.013820826075971127
1761131735660493300,5.876493408203125,-0.005879578180611134,0.01687515154480934,0.013820826075971127
1761131735670493400,5.886493408203125,-0.006490443367511034,0.019318614155054092,0.010155634954571724
1761131735680493300,5.896493408203125,-0.004657847341150045,0.018096882849931717,0.00038179077091626823
1761131735690493400,5.906493408203125,-0.008323038928210735,0.015653422102332115,-0.013057244941592216
1761131735700493300,5.916493408203125,-0.0071013085544109344,0.009544769302010536,-0.019776761531829834
1761131735710493400,5.926493408203125,-0.004046982154250145,0.0016035212902352214,-0.015500705689191818
1761131735720493300,5.936493408203125,-0.0016035212902352214,-0.000839939690195024,-0.002672535367310047
1761131735730493400,5.946493408203125,0.0032834007870405912,0.0034361169673502445,0.0071013085544109344
1761131735740493300,5.956493408203125,0.008170322515070438,0.011377365328371525,0.014431691728532314
1761131735750494200,5.966494140625,0.01488984003663063,0.015042556449770927,0.016264287754893303
1761131735760494000,5.976494140625,0.016111571341753006,0.010766499675810337,0.014431691728532314
1761131735770494200,5.986494140625,0.016722436994314194,-0.00939205288887024,0.011377365328371525
1761131735780494300,5.996494384765625,0.014278975315392017,-0.03504839166998863,0.006490443367511034
1761131735790494200,6.006494140625,0.007559457328170538,-0.054596081376075745,0.00038179077091626823
1761131735800494300,6.016494384765625,-0.013820826075971127,-0.031383201479911804,-0.02099849283695221
1761131735810494200,6.026494140625,-0.030925052240490913,0.023594669997692108,-0.04237877577543259
1761131735820494300,6.036494384765625,-0.05291620269417763,0.09934195876121521,-0.072311170399189
1761131735830494200,6.046494140625,-0.07246389240026474,0.17081318795681,-0.11385001242160797
1761131735840494300,6.056494384765625,-0.08590292185544968,0.21235203742980957,-0.15111279487609863
1761131735850493400,6.066493408203125,-0.08773551881313324,0.2166280895471573,-0.17982345819473267
1761131735860493300,6.076493408203125,-0.07551821321249008,0.18852828443050385,-0.19570595026016235
1761131735870493400,6.086493408203125,-0.05291620269417763,0.14332425594329834,-0.19081902503967285
1761131735880492500,6.096492431640625,-0.025427265092730522,0.09017898142337799,-0.16577355563640594
1761131735920492500,6.136492431640625,0.016722436994314194,-0.017333300784230232,0.08284860104322433
1761131735930492400,6.146492431640625,0.010002918541431427,-0.04360050708055496,0.13293954730033875
1761131735940492500,6.156492431640625,0.01061378326267004,-0.07047858089208603,0.17203491926193237
1761131735950493400,6.166493408203125,0.025885414332151413,-0.08880453556776047,0.20929770171642303
1761131735960493300,6.176493408203125,0.03810271993279457,-0.09980010986328125,0.23434318602085114
1761131735970493400,6.186493408203125,0.036880988627672195,-0.10285443812608719,0.23739750683307648
1761131735980493300,6.196493408203125,0.031383201479911804,-0.1071304902434349,0.22456933557987213
1761131735990493400,6.206493408203125,0.03260493278503418,-0.10957395285367966,0.21174116432666779
1761131736000493300,6.216493408203125,0.04237877577543259,-0.10896308720111847,0.1952477991580963
1761131736010493400,6.226493408203125,0.05581781268119812,-0.0918588638305664,0.1757001131772995
1761131736020493300,6.236493408203125,0.06436992436647415,-0.06742425262928009,0.14821118116378784
1761131736030493400,6.246493408203125,0.05948300287127495,-0.03199406713247299,0.0846811980009079
1761131736040493300,6.256493408203125,0.0466548316180706,-0.019165897741913795,0.03214678168296814
1761131736050459100,6.266459228515625,0.039935316890478134,-0.016111571341753006,0.0034361169673502445
1761131736060425700,6.27642578125,0.028328875079751015,-0.014278975315392017,-0.057650405913591385
1761131736070392600,6.286392578125,0.024663684889674187,-0.01488984003663063,-0.11018481850624084
1761131736080359200,6.296359130859375,0.016722436994314194,-0.01488984003663063,-0.14500413835048676
1761131736090325800,6.30632568359375,0.01488984003663063,-0.011224648915231228,-0.14133894443511963
1761131736100292400,6.316292236328125,0.006337726954370737,0.0009926559869199991,-0.13156510889530182
1761131736110259200,6.32625927734375,0.0014508049935102463,0.021151209250092506,-0.11873693019151688
1761131736120225800,6.336225830078125,0.004505131393671036,0.03153591975569725,-0.10285443812608719
1761131736130192400,6.3461923828125,0.010002918541431427,0.03520110994577408,-0.09063713252544403
1761131736140159000,6.356158935546875,0.012446379289031029,0.03275764733552933,-0.07780896127223969
1761131736150126600,6.366126708984375,0.014278975315392017,0.024816401302814484,-0.07353290170431137
1761131736160093200,6.37609326171875,0.016722436994314194,0.01748601719737053,-0.072311170399189
1761131736170060000,6.38606005859375,0.016722436994314194,0.011988230049610138,-0.07414376735687256
1761131736180027600,6.396027587890625,0.017333300784230232,0.005879578180611134,-0.07292203605175018
1761131736189994200,6.405994140625,0.018555032089352608,0.0009926559869199991,-0.07047858089208603
1761131736199960800,6.4159609375,0.01488984003663063,-0.0020616701804101467,-0.057039543986320496
1761131736209927400,6.425927490234375,0.01061378326267004,-0.007559457328170538,-0.03749185428023338
1761131736219894300,6.435894287109375,0.0069485921412706375,-0.013057244941592216,-0.017333300784230232
1761131736229860900,6.44586083984375,0.010002918541431427,-0.005115996580570936,-0.008781188167631626
1761131736239827500,6.455827392578125,0.014278975315392017,-0.0032834007870405912,-0.011835514567792416
1761131736249793500,6.46579345703125,0.00939205288887024,-0.014278975315392017,-0.00022907447419129312
1761131736259760000,6.475760009765625,0.010002918541431427,-0.031383201479911804,0.01687515154480934
1761131736269726700,6.485726806640625,0.008781188167631626,-0.04421137273311615,0.030925052240490913
1761131736279693600,6.495693603515625,0.010002918541431427,-0.0417679101228714,0.041920628398656845
1761131736289660200,6.50566015625,0.01061378326267004,-0.036880988627672195,0.044974952936172485
1761131736299626800,6.515626708984375,0.00939205288887024,-0.03443752974271774,0.051083605736494064
1761131736309593600,6.525593505859375,0.008170322515070438,-0.03443752974271774,0.053527068346738815
1761131736319560200,6.535560302734375,0.010002918541431427,-0.025274548679590225,0.0492510087788105
1761131736329526800,6.54552685546875,0.005115996580570936,-0.017333300784230232,0.03214678168296814
1761131736339493400,6.555493408203125,0.0014508049935102463,-0.019165897741913795,0.011988230049610138
1761131736349494300,6.565494384765625,0.00022907447419129312,-0.028328875079751015,-0.0032834007870405912
1761131736359494400,6.575494384765625,0.002672535367310047,-0.031383201479911804,-0.01794416643679142
1761131736369494300,6.585494384765625,0.006337726954370737,-0.031383201479911804,-0.02955060638487339
1761131736379494400,6.595494384765625,0.00939205288887024,-0.02099849283695221,-0.03627012297511101
1761131736389494300,6.605494384765625,0.011835514567792416,-0.008170322515070438,-0.03810271993279457
1761131736399494400,6.615494384765625,0.012446379289031029,0.00038179077091626823,-0.039324451237916946
1761131736409494300,6.625494384765625,0.008170322515070438,0.005879578180611134,-0.04054617881774902
1761131736419494400,6.635494384765625,0.002672535367310047,0.007712173741310835,-0.03871358558535576
1761131736429494300,6.645494384765625,-0.0016035212902352214,0.005879578180611134,-0.03749185428023338
1761131736439494400,6.655494384765625,-0.0016035212902352214,0.007712173741310835,-0.03565925732254982
1761131736449493500,6.665493408203125,-0.004046982154250145,0.010766499675810337,-0.03321579843759537
1761131736459493600,6.67549365234375,-0.005268712528049946,0.010766499675810337,-0.030161472037434578
1761131736469493500,6.685493408203125,-0.0016035212902352214,0.004657847341150045,-0.03321579843759537
1761131736479493600,6.69549365234375,0.000839939690195024,0.004046982154250145,-0.036880988627672195
1761131736489493500,6.705493408203125,0.005115996580570936,0.006490443367511034,-0.0466548316180706
1761131736499493600,6.71549365234375,0.010002918541431427,0.004657847341150045,-0.054596081376075745
1761131736509493500,6.725493408203125,0.005726861767470837,0.0009926559869199991,-0.05581781268119812
1761131736519493600,6.73549365234375,0.002672535367310047,-0.005726861767470837,-0.04909829422831535
1761131736529493500,6.745493408203125,-0.0022143865935504436,-0.00939205288887024,-0.03443752974271774
1761131736539493600,6.75549365234375,-0.009544769302010536,-0.01061378326267004,-0.016111571341753006
1761131736549494300,6.765494384765625,-0.015042556449770927,-0.005726861767470837,-0.013057244941592216
1761131736559494100,6.775494140625,-0.01992947794497013,-0.002672535367310047,-0.010002918541431427
1761131736569494300,6.785494384765625,-0.02298380434513092,-0.0038942659739404917,-0.005726861767470837
1761131736579494100,6.795494140625,-0.01748601719737053,-0.006337726954370737,-0.002672535367310047
1761131736589494300,6.805494384765625,-0.015653422102332115,-0.014278975315392017,-0.000839939690195024
1761131736599494100,6.815494140625,-0.015042556449770927,-0.019776761531829834,0.004657847341150045
1761131736609494300,6.825494384765625,-0.01687515154480934,-0.016722436994314194,0.01687515154480934
1761131736619494100,6.835494140625,-0.022372938692569733,-0.007559457328170538,0.036422841250896454
1761131736629494300,6.845494384765625,-0.025427265092730522,0.00038179077091626823,0.0694095641374588
1761131736639494100,6.855494140625,-0.0290924571454525,-0.000839939690195024,0.11339186131954193
1761131736649493500,6.865493408203125,-0.0339793786406517,-0.005726861767470837,0.1598176211118698
1761131736659493400,6.875493408203125,-0.039477165788412094,0.0022143865935504436,0.1952477991580963
1761131736669493500,6.885493408203125,-0.041920628398656845,0.030314188450574875,0.21968241035938263
1761131736679493400,6.895493408203125,-0.04375322163105011,0.051083605736494064,0.23312145471572876
1761131736689493200,6.9054931640625,-0.05169447138905525,0.051083605736494064,0.2361757755279541
1761131736699493400,6.915493408203125,-0.05597052723169327,0.041920628398656845,0.23251058161258698
1761131736709493200,6.9254931640625,-0.05719225853681564,0.021762074902653694,0.2264019250869751
1761131736719493400,6.935493408203125,-0.05474879592657089,0.006490443367511034,0.2160172164440155
1761131736729493000,6.945492919921875,-0.05535966157913208,0.006490443367511034,0.2111303061246872
1761131736739492900,6.955492919921875,-0.056581392884254456,0.016264287754893303,0.20502164959907532
1761131736749493800,6.96549365234375,-0.05474879592657089,0.03214678168296814,0.2007455974817276
1761131736759494000,6.975493896484375,-0.053527068346738815,0.0492510087788105,0.19952386617660522
1761131736769493800,6.98549365234375,-0.05719225853681564,0.0742964819073677,0.1757001131772995
1761131736779494000,6.995493896484375,-0.059635721147060394,0.08590292185544968,0.13782647252082825
1761131736789493800,7.00549365234375,-0.053527068346738815,0.09323330968618393,0.09262244403362274
1761131736799494000,7.015493896484375,-0.048029281198978424,0.10178542137145996,0.04864014685153961
1761131736809493800,7.02549365234375,-0.047418415546417236,0.10789407044649124,0.005879578180611134
1761131736819494000,7.035493896484375,-0.04008803144097328,0.10300715267658234,-0.025274548679590225
1761131736829493800,7.04549365234375,-0.027259862050414085,0.08773551881313324,-0.04726569727063179
1761131736839494000,7.055493896484375,-0.014431691728532314,0.07002042979001999,-0.060704734176397324
1761131736849493000,7.065492919921875,-0.0016035212902352214,0.059635721147060394,-0.06803511828184128
1761131736859492900,7.075492919921875,0.0069485921412706375,0.05169447138905525,-0.07903069257736206
1761131736869493000,7.085492919921875,0.01061378326267004,0.02298380434513092,-0.07658722996711731
1761131736879492900,7.095492919921875,0.011224648915231228,0.013820826075971127,-0.05337435007095337
1761131736889493000,7.105492919921875,0.015500705689191818,-0.008170322515070438,-0.04360050708055496
1761131736899492900,7.115492919921875,0.019165897741913795,-0.0032834007870405912,-0.04482223838567734
1761131736909493000,7.125492919921875,0.024663684889674187,0.004657847341150045,-0.05093089118599892
1761131736919492900,7.135492919921875,0.02955060638487339,0.010155634954571724,-0.054596081376075745
1761131736929493000,7.145492919921875,0.03321579843759537,0.010766499675810337,-0.048487428575754166
1761131736939492900,7.155492919921875,0.0417679101228714,0.005879578180611134,-0.025274548679590225
1761131736949493800,7.16549365234375,0.05520694702863693,-0.015500705689191818,0.005268712528049946
1761131736959494000,7.175493896484375,0.057039543986320496,-0.03260493278503418,0.02848159149289131
1761131736969493800,7.18549365234375,0.05398521572351456,-0.045433104038238525,0.03703370690345764
1761131736979494000,7.195493896484375,0.05337435007095337,-0.05093089118599892,0.033368512988090515
1761131736989493800,7.20549365234375,0.057650405913591385,-0.042989641427993774,0.02603813074529171
1761131736999494000,7.215493896484375,0.07414376735687256,-0.021609358489513397,0.02298380434513092
1761131737009493800,7.22549365234375,0.08941540122032166,-0.017333300784230232,0.027870727702975273
1761131737019494000,7.235493896484375,0.09857837855815887,-0.025274548679590225,0.03825543448328972
1761131737029494300,7.245494384765625,0.102243572473526,-0.033826664090156555,0.044974952936172485
1761131737039494100,7.255494140625,0.10590875893831253,-0.036880988627672195,0.04069889709353447
1761131737049493500,7.265493408203125,0.1077413558959961,-0.03321579843759537,0.027870727702975273
1761131737059493400,7.275493408203125,0.10896308720111847,-0.022220224142074585,0.015653422102332115
1761131737069493200,7.2854931640625,0.10835222154855728,-0.01794416643679142,0.010766499675810337
1761131737079493400,7.295493408203125,0.10407616943120956,-0.022220224142074585,0.007712173741310835
1761131737089493200,7.3054931640625,0.10041097551584244,-0.036880988627672195,0.004657847341150045
1761131737099493400,7.315493408203125,0.09857837855815887,-0.05032002553343773,-0.004505131393671036
1761131737109493200,7.3254931640625,0.09674578160047531,-0.05887213721871376,-0.01794416643679142
1761131737119493400,7.335493408203125,0.0924697294831276,-0.05826127156615257,-0.031383201479911804
1761131737129493200,7.3454931640625,0.08391761034727097,-0.0466548316180706,-0.04604396969079971
1761131737139493400,7.355493408203125,0.07658722996711731,-0.03627012297511101,-0.05642867833375931
1761131737149494300,7.365494384765625,0.07047858089208603,-0.028328875079751015,-0.060704734176397324
1761131737159494100,7.375494140625,0.06620252132415771,-0.025274548679590225,-0.057039543986320496
1761131737169494300,7.385494384765625,0.06436992436647415,-0.025274548679590225,-0.04604396969079971
1761131737179494100,7.395494140625,0.06253732740879059,-0.024663684889674187,-0.03810271993279457
1761131737189494300,7.405494384765625,0.05581781268119812,-0.02099849283695221,-0.03749185428023338
1761131737199494100,7.415494140625,0.04726569727063179,-0.017333300784230232,-0.0417679101228714
1761131737209494300,7.425494384765625,0.04115704447031021,-0.019165897741913795,-0.04787656292319298
1761131737219494100,7.435494140625,0.03810271993279457,-0.028328875079751015,-0.051541756838560104
1761131737229494300,7.445494384765625,0.03749185428023338,-0.033826664090156555,-0.051541756838560104
1761131737239494100,7.455494140625,0.03443752974271774,-0.03260493278503418,-0.04909829422831535
1761131737249493200,7.4654931640625,0.024663684889674187,-0.028328875079751015,-0.04421137273311615
1761131737259493400,7.475493408203125,0.014278975315392017,-0.02344195358455181,-0.033826664090156555
1761131737269493200,7.4854931640625,0.00939205288887024,-0.022220224142074585,-0.022831087931990623
1761131737279493400,7.495493408203125,0.004505131393671036,-0.016722436994314194,-0.013057244941592216
1761131737289493200,7.5054931640625,0.002672535367310047,-0.00939205288887024,-0.0038942659739404917
1761131737299493400,7.515493408203125,0.005115996580570936,-0.0038942659739404917,0.0009926559869199991
1761131737309493200,7.5254931640625,0.0038942659739404917,-0.006337726954370737,0.006490443367511034
1761131737319493400,7.535493408203125,0.000839939690195024,-0.015500705689191818,0.013209961354732513
1761131737329493200,7.5454931640625,-0.0009926559869199991,-0.025274548679590225,0.015653422102332115
1761131737339493400,7.555493408203125,0.0014508049935102463,-0.03199406713247299,0.007712173741310835
1761131737349494000,7.565493896484375,0.0038942659739404917,-0.03260493278503418,-0.004505131393671036
1761131737359494100,7.575494140625,0.00939205288887024,-0.02344195358455181,-0.0038942659739404917
1761131737369494000,7.585493896484375,0.01366810966283083,-0.022831087931990623,0.010766499675810337
1761131737379494100,7.595494140625,0.011835514567792416,-0.028328875079751015,0.019318614155054092
1761131737389494000,7.605493896484375,0.011835514567792416,-0.01794416643679142,0.02603813074529171
1761131737399494100,7.615494140625,0.012446379289031029,-0.004505131393671036,0.033368512988090515
1761131737409494300,7.625494384765625,0.004505131393671036,0.004046982154250145,0.04069889709353447
1761131737419494100,7.635494140625,-0.011377365328371525,0.004657847341150045,0.039477165788412094
1761131737429494300,7.645494384765625,-0.027259862050414085,0.005268712528049946,0.023594669997692108
1761131737439494100,7.655494140625,-0.038866300135850906,0.03764457255601883,0.04375322163105011
1761131737449493200,7.6654931640625,-0.06635523587465286,0.047418415546417236,0.10178542137145996
1761131737459493400,7.675493408203125,-0.03459024429321289,0.011377365328371525,0.06635523587465286
1761131737469493200,7.6854931640625,0.01488984003663063,-0.012446379289031029,-0.0032834007870405912
1761131737479493400,7.695493408203125,0.024663684889674187,-0.02710714563727379,-0.021609358489513397
1761131737489493500,7.705493408203125,0.013057244941592216,-0.03260493278503418,-0.030772335827350616
1761131737499493400,7.715493408203125,0.00022907447419129312,-0.01794416643679142,-0.042989641427993774
1761131737509493500,7.725493408203125,-0.01992947794497013,-0.01061378326267004,-0.04360050708055496
1761131737519493400,7.735493408203125,-0.04008803144097328,-0.01794416643679142,-0.030772335827350616
1761131737529493200,7.7454931640625,-0.0645226389169693,-0.024663684889674187,-0.006337726954370737
1761131737539493400,7.755493408203125,-0.06207918003201485,-0.0020616701804101467,0.030314188450574875
