time,seconds_elapsed,z,y,x
1761133586926652000,0.08365185546875,0.292548529613018,0.11519815854132175,0.3481438678458333
1761133586946498000,0.103498046875,-0.08054127117991447,0.025535423272848128,0.15738229960240424
1761133586966345000,0.123344970703125,-0.2811772407710552,0.05424246231913566,-0.0871089499992784
1761133586986192000,0.14319189453125,-0.3024748803436756,-0.00876812060624361,-0.15917632514601573
1761133587006039000,0.1630390625,-0.7106237195581198,-0.1423848561525345,-0.267144842961058
1761133587025885200,0.18288525390625,-1.2181003634870051,-0.20660919878184794,-0.3137196201965213
1761133587045732000,0.202732177734375,-1.3269921153604984,-0.12191694540232419,-0.17162691539097577
1761133587065579000,0.2225791015625,-0.9600164135336875,0.017082067704200742,0.058128035048209126
1761133587085425200,0.242425048828125,-0.49957683058977126,-0.05551262838542461,0.3926986835610121
1761133587105272000,0.26227197265625,-0.3379284710407257,-0.25117928513139487,0.33711686239689587
1761133587125119000,0.282118896484375,-0.5673001212507486,-0.4434285346493125,0.06475731699485332
1761133587144966100,0.301966064453125,-0.8638046950131654,-0.4305748982951045,-0.17115743471570313
1761133587164812000,0.32181201171875,-1.168812308704853,-0.3221989869892597,-0.04496584420148283
1761133587184659000,0.341658935546875,-1.2010568742275238,0.04552227250784635,-0.12285835443828254
1761133587204506000,0.361506103515625,-1.1334370439410208,-0.00445551810413599,-0.44476683404836803
1761133587224352000,0.38135205078125,-0.25188626435697076,-0.03318067732900381,-0.3564730855781585
1761133587244199000,0.401198974609375,1.258838032066822,0.1696916730120778,-0.4495861439635977
1761133587264046000,0.421046142578125,2.6353829906255006,0.5599843914099037,-0.25136896248459817
1761133587283893000,0.44089306640625,3.585346796700358,1.1238998386584222,-0.5827966002639383
1761133587303739000,0.46073876953125,4.269405165416002,1.4971991905488073,-1.0008391300484538
1761133587323585800,0.480585693359375,4.891982352730632,2.19708378168866,-0.9126505589857697
1761133587343433000,0.500432861328125,6.158106450152397,2.71787305778563,-0.44024924702607093
1761133587363280000,0.52027978515625,7.438253227707743,2.6782798830658194,0.2769807754619047
1761133587383125800,0.540125732421875,7.699746109321713,2.4984189904779193,0.7355033092707395
1761133587402972700,0.55997265625,7.118497542217374,2.373045036489516,1.013808574802056
1761133587422819800,0.57981982421875,6.869571881231665,1.9031527116760611,1.2868868994653224
1761133587442665700,0.599665771484375,6.231175778016448,0.9905328400894999,1.0036090331532062
1761133587462512600,0.6195126953125,5.08167490350306,0.2721571912303567,0.7553799761295318
1761133587482359800,0.63935986328125,4.017722314676642,-0.2537368606597185,0.7518489524591714
1761133587502206700,0.659206787109375,3.6954742278486488,-1.204637363062799,0.8420593847382813
1761133587522052900,0.679052978515625,3.387832174000144,-2.1735949156820773,0.7803223288800567
1761133587541899800,0.698899658203125,2.011117704093456,-3.0491850332960486,0.4632723952170461
1761133587561747000,0.718746826171875,0.08389175065159797,-3.495366666045785,0.4149729861460626
1761133587581593900,0.73859375,-1.6743471709161997,-3.6516172582045194,0.45004956022426484
1761133587601439700,0.758439697265625,-3.0805028393626213,-4.023139955811202,-0.059117374879121776
1761133587621287000,0.778286865234375,-4.6584863160669805,-4.446763135272264,-1.1619291250623762
1761133587641133800,0.7981337890625,-6.427797835791111,-4.672587322133779,-1.872520988177508
1761133587660979700,0.817979736328125,-8.547149120110273,-4.701112574872374,-2.2079989973261953
1761133587680827000,0.837826904296875,-9.739431151729821,-4.879680505040287,-2.508517190644145
1761133587700673800,0.857673828125,-9.69935340836346,-4.805246903085708,-2.883530652976036
1761133587720520700,0.877520751953125,-8.923731439194082,-4.716270396515727,-2.7728169463723895
1761133587740366600,0.89736669921875,-8.220993504449725,-4.537289793893694,-2.1994415968611833
1761133587760213800,0.9172138671875,-8.681613120135664,-4.448330238458514,-2.3420102851480245
1761133587780060700,0.937060791015625,-9.068923753982782,-4.394254364877939,-2.0346486556760968
1761133587799907600,0.956907470703125,-8.943156270632148,-3.9218852746874093,-1.1989030571945012
1761133587819754000,0.97675390625,-7.886593792057037,-3.478100473946333,-0.1253781187068671
1761133587839601000,0.996600830078125,-6.338486398178339,-3.091801062968373,0.7281158293679356
1761133587859447800,1.01644775390625,-4.370322869670391,-2.6935581162184477,0.8619114286124706
1761133587879293700,1.036293701171875,-3.0693139213502407,-2.1875129663974047,1.2254445887699723
1761133587899140900,1.056140869140625,-2.4950164885580537,-1.9590990553036332,1.512682152493298
1761133587918987800,1.07598779296875,-1.8216531168580055,-1.9248367202177643,0.9662099344115703
1761133587938835000,1.0958349609375,-1.016042252138257,-1.6188982554167508,0.15473536529019474
1761133587958680800,1.115680908203125,-0.1276928984552622,-1.586088457226753,-0.16720409398004413
1761133587978527700,1.13552783203125,-0.7843909665584564,-1.562384341034293,-0.40790458212979136
1761133587998374700,1.155374755859375,-0.5662842222064733,-1.5294348421126602,-0.30516495967786755
1761133588018221800,1.175221923828125,1.1155337229818105,-1.5696673376493155,-0.37771285748369987
1761133588038067700,1.195067626953125,2.153995896720886,-0.8767711440920829,-0.07218962242007256
1761133588057914600,1.21491455078125,2.6334248422950504,0.028343904822319743,0.061952141647320234
1761133588077761800,1.23476171875,3.6946278401523824,-0.6088021252665669,-0.900568491525948
1761133588097608000,1.25460791015625,5.134647199755907,-0.892879106067121,-1.2001618250839412
1761133588117454800,1.274454833984375,7.264273794373869,-0.6577187894530594,-0.1731069248156622
1761133588137301800,1.2943017578125,8.947934152558446,-0.6520471735574305,-0.24218117342786863
1761133588157149000,1.31414892578125,9.592052725073694,-0.6662815967455505,-0.6098586851147935
1761133588176994800,1.333994873046875,9.488768876209855,-0.3840276666536927,-0.21983186937784774
1761133588196841700,1.353841796875,8.854939642518758,-0.11844422779045999,-0.05085300711051095
1761133588216689000,1.37368896484375,7.989441003069281,0.020140140100568533,-0.15456888614948838
1761133588236534800,1.39353466796875,6.6134817354440685,0.1184983691304922,-0.3391098628450185
1761133588256381700,1.413381591796875,4.71852080579102,0.3713548667591065,-0.3211439249783754
1761133588276228600,1.433228515625,2.953596707370877,0.7007160004626959,-0.03366864350903779
1761133588296075500,1.453075439453125,1.6338947490185498,0.8581098443724214,0.2059257100297138
1761133588315921700,1.472921630859375,0.6493138030707836,0.705917733824253,0.06644578153844923
1761133588335768600,1.4927685546875,0.08901742310225963,0.43807920951060947,-0.02427124855592847
1761133588355615500,1.512615478515625,-0.5166828636914491,0.42874801166150717,0.18908146966937928
1761133588375462700,1.532462646484375,-0.9910042569935321,0.3606276845069602,0.21978852342646568
1761133588395308800,1.552308837890625,-1.0088222377568483,0.11927918077725916,0.1088230340188369
1761133588415155700,1.57215576171875,-0.6014712709218263,-0.37389402984790504,-0.05724792774543166
1761133588435002600,1.592002685546875,-0.3094160777837038,-0.6141174750704318,0.04757219077497721
1761133588454848800,1.611848876953125,-0.5217068293333054,-0.607466858074814,0.2521523314146325
1761133588474695700,1.63169580078125,-0.7518985637545585,-0.5443707157578319,0.42377036937940865
1761133588494542600,1.65154248046875,-0.968324223151803,-0.4263955667838454,0.3645134764317423
1761133588514389800,1.6713896484375,-1.0929314305514097,-0.4176228430677205,0.12746135472171008
1761133588534235600,1.691235595703125,-1.0027285970568656,-0.36907804440092296,0.1511071648556739
1761133588554082600,1.71108251953125,-0.7336831081062555,-0.20719788538999853,0.30306996015999466
1761133588573929500,1.730929443359375,-0.898341755387187,0.017419300301931798,0.46393560836613174
1761133588593776600,1.750776611328125,-0.9651952774763106,0.1576745970798656,0.3683532007250935
1761133588613622800,1.770622802734375,-0.8396154256522655,0.19794059302732347,0.06267576148044318
1761133588633469700,1.7904697265625,-0.44582828926742074,0.22204737173654138,-0.026885778435878454
1761133588653316900,1.81031689453125,0.010690320840477942,0.22929230136349796,0.05596515792589634
1761133588673162800,1.830162841796875,0.4579214626431465,0.12656539226267485,-0.03447250723782926
1761133588693009700,1.850009765625,0.7759650835186243,0.07023474375894292,-0.053742038516327736
1761133588712856800,1.86985693359375,0.9482786294668912,0.0848593535747379,-0.00838217176226899
1761133588732703700,1.889703857421875,0.6473866344004869,0.12879050269993023,-0.09731790793044492
1761133588752549600,1.909549560546875,0.3404091819405555,0.28477237918619064,0.06023014016030356
1761133588772396500,1.929396484375,0.10170505523979663,0.3825485705444589,0.14975005115829407
1761133588792243700,1.94924365234375,0.17469313456118105,0.40061606908943503,0.18844556465232742
1761133588812090600,1.969090576171875,0.639191637507081,0.31503589042685926,0.12826279816455208
1761133588831936500,1.9889365234375,0.9477151503652333,0.18204411837849765,-0.09745554456915706
1761133588851783700,2.00878369140625,0.9477975679516791,0.21527152092605828,-0.10320882913256063
1761133588871630600,2.028630615234375,1.028153545692563,0.4029779759151861,0.003033868395228637
1761133588891476700,2.048476806640625,1.0491390505760907,0.5674455210708081,0.023445001748681533
1761133588911323600,2.06832373046875,1.391383631250262,0.6641999681659042,-0.27053461326351386
1761133588931170800,2.0881708984375,2.2468279096752406,0.7988486040432006,-0.545461068277806
1761133588951017700,2.108017822265625,4.221153467944264,0.8484232937470078,-0.3698334293454885
1761133588970863600,2.127863525390625,5.897330776897072,0.9302930370517074,-0.2738827363813296
1761133588990710800,2.147710693359375,6.769156281280517,1.0244771952673792,-0.08341896377438679
1761133589010557700,2.1675576171875,7.179725625640153,0.8356634731560945,-0.01580821184348315
1761133589030404600,2.187404541015625,6.71963558678627,0.6890303849745542,-0.2966266475058161
1761133589050250800,2.207250732421875,6.678804394704103,0.4399392312288284,-0.4076520321408286
1761133589070097700,2.22709765625,6.851894770243764,-0.030909444461390375,-0.09792362787178717
1761133589089944600,2.246944580078125,6.691427144911885,-0.5269209107197821,0.1286521445420105
1761133589109790500,2.26679052734375,5.092060688439012,-1.0601841762036084,-0.37452867448963223
1761133589129637600,2.2866376953125,3.131063398298621,-1.2227645559057592,-0.025929605655628254
1761133589149484500,2.306484619140625,1.4593915840715168,-1.3339517252400517,0.3037600065170787
1761133589169331500,2.32633154296875,1.060744732695818,-2.0959102029770613,0.7857176120523363
1761133589189177900,2.346177734375,2.0104396587014195,-3.091557317340374,0.4837240854848176
1761133589209024800,2.366024658203125,0.22156652941703794,-3.817215816684067,-0.5152078957680613
1761133589228871700,2.38587158203125,-2.401851882648468,-3.516956858824193,-0.44613483446594326
1761133589248718800,2.40571875,-4.015926663431525,-3.2410756786346435,-0.07013860817439854
1761133589268564700,2.425564697265625,-4.632603102269768,-3.4077374824315307,-0.22394306755634025
1761133589288411600,2.44541162109375,-5.084001300624013,-3.365113561713695,-0.7365591019339859
1761133589308258800,2.4652587890625,-5.112662162441015,-3.3944308416128157,-0.6528697419866919
1761133589328105700,2.485105712890625,-4.9426411113440984,-3.578543546426296,-0.20661073315180836
1761133589347951600,2.50495166015625,-4.855931965184212,-3.867458687973022,0.022953590086102486
1761133589367798800,2.524798828125,-5.410555560213327,-3.9323271737247705,0.12413772672433405
1761133589387645700,2.544645751953125,-5.787922307673096,-4.014627855792641,-0.3162781090402976
1761133589407491600,2.56449169921875,-6.280474938714504,-4.383488056191802,-0.6086795218002051
1761133589427338500,2.58433837890625,-6.421137793380022,-4.4956157212466,-0.43050117547176775
1761133589447185700,2.604185546875,-6.526704784744978,-4.680204811400174,-0.3601748627055436
1761133589467032600,2.624032470703125,-7.207076573902368,-4.691027818709611,-0.16212105509471147
1761133589486878700,2.643878662109375,-7.89639797771275,-5.205863593229651,-0.12759681766964495
1761133589506726000,2.663725830078125,-6.882447144895791,-6.445276793858408,-0.19558321624621747
1761133589526572800,2.68357275390625,-5.996009177792072,-7.017355381557345,-1.324765233091265
1761133589546419700,2.703419677734375,-7.384853645953536,-6.718682231584191,-2.58805016156435
1761133589566265900,2.723265869140625,-9.48414998423755,-6.556227816349268,-2.5663366346672176
1761133589586112800,2.74311279296875,-10.17808092767,-6.241566239127517,-1.8425933212950825
1761133589605959700,2.762959716796875,-8.225973046427965,-5.409936551532149,-1.3667274750299752
1761133589625805600,2.7828056640625,-5.18025919637382,-4.905220604488253,-0.2540096131864935
1761133589645652700,2.80265283203125,-2.663610721722245,-4.18430813062787,0.8559672793857753
1761133589665499600,2.822499755859375,-1.6847598438590765,-3.0455878855869174,1.125552866562456
1761133589685346600,2.8423466796875,-0.018399580043554305,-0.8383943594247102,1.9636787843093275
1761133589705192700,2.862192626953125,0.6556283930450677,0.49261868201494213,2.9548087135091423
1761133589725039600,2.88203955078125,1.517643282032013,1.0103189060553908,2.0702502765417097
1761133589744886500,2.901886474609375,4.770737899762392,1.0371648274049163,0.791763102761656
1761133589764733700,2.921733642578125,7.874832627114653,0.7636264109492301,0.9459154074668884
1761133589784579800,2.941579833984375,11.255462322390079,0.42382725066579874,1.6779649230219422
1761133589804426800,2.9614267578125,14.359967968630789,0.3521474043987691,2.403926204704493
1761133589824274000,2.98127392578125,15.077780722910164,-0.24917773605063556,0.9092444038040935
1761133589844119800,3.001119873046875,13.696480678778887,-0.39483175006695087,0.1734789364658296
1761133589863966700,3.020966796875,12.402165675139427,-0.04405603588018566,0.3350662134774029
1761133589883813600,3.040813720703125,10.799079321360587,0.19047650422435253,0.7221987142786384
1761133589903660800,3.060660888671875,8.257263087704777,0.6019394364228472,1.2003661154843865
1761133589923506700,3.080506591796875,5.7794023166090245,0.9121262428507209,1.6420760096475482
1761133589943353600,3.100353515625,3.5502246299147604,0.9591922376692295,1.658644867132604
1761133589963200800,3.12020068359375,1.8624895696371793,0.8561728849604725,1.0952055129632352
1761133589983047700,3.140047607421875,0.6889490633666515,0.6169851394612341,0.6249114754810929
1761133590002893600,3.1598935546875,-0.49121407591402527,0.5539625373044982,0.8101973887924104
1761133590022740500,3.179740478515625,-1.386260881409049,0.5038181944865733,0.8898989212125539
1761133590042587600,3.199587646484375,-1.673560988974571,0.4720760985933244,0.7374521052509546
1761133590062433800,3.219433837890625,-1.6059738919138908,0.4044822795309126,0.24503164922185242
1761133590082280700,3.23928076171875,-1.3704840510845184,0.09589828692348673,-0.5129543081549928
1761133590102127900,3.2591279296875,-0.8495470370799303,-0.33823874256629494,-0.8152572294652461
1761133590121974800,3.278974853515625,-0.4378133251160383,-0.6878413943856955,-0.9262832168884575
1761133590141820700,3.298820556640625,-0.050641222956776616,-0.7961915136631578,-0.8830658603221178
1761133590161667800,3.318667724609375,-0.4734884496092796,-0.780540063283965,-0.8594446001075208
1761133590181514800,3.3385146484375,-1.2787532773703336,-0.5665229993984103,-0.7726008677825331
1761133590201361700,3.358361572265625,-1.6710867078155278,-0.36722434282563626,-0.5932751049846411
1761133590221207600,3.37820751953125,-1.6468009923428295,-0.24772355518694966,-0.37749998191799966
1761133590241054700,3.3980546875,-1.2329033803433178,-0.1595700919702649,-0.06271722600199282
1761133590260901600,3.417901611328125,-0.7103595156639814,-0.1421101308643818,0.07799341332800686
1761133590280747800,3.437747802734375,-0.37962124838829037,-0.14225019692219792,0.20289079931322485
1761133590300594700,3.4575947265625,-0.2542033091276884,-0.03220145703330636,0.4312624056352302
1761133590320441600,3.477441650390625,-0.06600304273962974,-0.01077927776556462,0.24515165887232868
1761133590340288500,3.49728857421875,0.30097675074040886,-0.0472258250227198,0.12815945652108637
1761133590360134700,3.517134765625,0.7981371678382158,-0.010212729923985898,0.18658428255878387
1761133590379981600,3.536981689453125,0.8891998330324887,0.048217466408573086,0.08753781553637235
1761133590399828500,3.556828369140625,0.9751566995203494,0.11890505023524164,-0.06560222512008622
1761133590419675600,3.576675537109375,1.0921107618182897,0.2752979734741151,-0.0026694932038895786
1761133590439521500,3.596521484375,1.814126813006401,0.35328097500596195,-0.07557435122122988
1761133590459368400,3.616368408203125,2.5429572203844786,0.5005590100275352,-0.14353050079001112
1761133590479215600,3.636215576171875,2.776206588810682,0.7508947935394942,-0.12989375123409552
1761133590499061500,3.6560615234375,3.357198550805449,0.7662623124107718,-0.058154868256207554
1761133590518908400,3.675908447265625,4.958906017446518,0.5907681636650115,-0.3149222374519333
1761133590538755600,3.695755615234375,6.8623612192004915,0.23127901820130645,-0.9620857671536505
1761133590558602500,3.7156025390625,7.699366754615307,-0.06475910709314048,-0.7169781300861388
1761133590578448600,3.73544873046875,7.54603789512217,0.10086933506801724,-0.34241197313033045
1761133590598295600,3.755295654296875,5.979681727847456,0.13488967809155583,0.019021328671090305
1761133590618142700,3.775142822265625,3.814121650061011,0.41552901259362696,0.49384497240688646
1761133590637989600,3.79498974609375,2.097989347338676,0.7717549184776842,0.7597842024378478
1761133590657835500,3.81483544921875,0.9698878192067145,1.0503159854009747,0.5791250721443444
1761133590677682700,3.8346826171875,0.44249476093053813,0.8299822126492857,0.1688910241536796
1761133590697529600,3.854529541015625,0.8019032423734664,0.4226907209165394,0.4925349127216264
1761133590717375500,3.87437548828125,1.8154630300462244,0.01273614745438099,0.9326884077556431
1761133590737222400,3.894222412109375,2.639668120598793,-0.2770302040942013,0.9074170422464609
1761133590757069600,3.914069580078125,2.270332703903317,-0.7983204154506325,0.6344825830332934
1761133590776916500,3.93391650390625,1.075420323780179,-1.3473515973001717,0.328101890890114
1761133590796762400,3.953762451171875,-0.747861855584383,-1.9024211825311184,0.1394064613962546
1761133590816609500,3.973609619140625,-2.848756861236691,-1.914747580140829,-0.29114922074172644
1761133590836456400,3.99345654296875,-3.4120699586778875,-2.2137667670726775,-0.14924089605975896
1761133590856301600,4.013301513671875,-2.933169420892,-2.5343299695536494,-0.40630328441299496
1761133590876148500,4.0331484375,-3.3495985971957443,-2.7788813609778877,-0.4481766059592366
1761133590895995600,4.05299560546875,-4.064903168046474,-2.899522879616916,-0.24453591986047102
1761133590915841500,4.072841552734375,-4.239166094496846,-2.819146735870838,-0.059415321212657725
1761133590935688400,4.0926884765625,-4.245674745738506,-2.8772897127598522,0.05865956637533381
1761133590955535600,4.11253564453125,-4.586438147944212,-3.1100498363643885,-0.18398040193701162
1761133590975382500,4.132382568359375,-4.779606265872717,-3.0831057153373953,-0.28586523419050497
1761133590995228400,4.152228515625,-5.032576233813167,-2.9114222839862105,-0.22720648979907854
1761133591015075300,4.172075439453125,-5.011137139943242,-2.6599767491340636,-0.2766494611483067
1761133591034922500,4.191922607421875,-4.996233585321903,-2.4563532881647347,-0.18588983402121811
1761133591054769400,4.211769287109375,-4.895671270376444,-2.3482751907616852,0.18238303147666154
1761133591074615600,4.231615478515625,-5.070199569764733,-2.2046470565497875,0.2518073904344812
1761133591094462700,4.251462646484375,-5.797727077850699,-2.135931247720122,0.13174538871645927
1761133591114309600,4.2713095703125,-6.486102725243568,-2.2108312981426717,-0.41655784418471153
1761133591134155500,4.291155517578125,-6.550953675338626,-2.455356678342819,-1.3055274486579
1761133591154002400,4.31100244140625,-6.753105310189723,-3.1792928839385506,-1.6150411415971815
1761133591173849600,4.330849609375,-7.435935013893246,-3.558018060269952,-1.4766899248749017
1761133591193696500,4.350696533203125,-8.100992329540848,-3.3176632437527176,-1.0807251521900296
1761133591213542400,4.37054248046875,-8.472247316122054,-3.0775773073047397,-0.07032185578681528
1761133591233389600,4.3903896484375,-8.050641029441357,-3.3153362621098754,1.5997364588290452
1761133591253236500,4.410236572265625,-4.579019980642199,-3.5482904469817873,1.655366283853352
1761133591273083400,4.43008349609375,-1.5897680225223303,-2.1596721887916326,0.3084372593468055
1761133591292930800,4.449930908203125,-2.700293561953306,-2.71349937274605,0.271187250219658
1761133591312776700,4.469776611328125,-3.112467418900132,-2.5826184919044373,0.09895290698744356
1761133591332623600,4.48962353515625,-0.2333013908743858,-1.591527141149342,-0.2880980530101806
1761133591352470800,4.509470703125,-0.15569675766825675,-0.4326090344712138,-0.023574060072004795
1761133591372317700,4.529317626953125,-0.3490291262477636,0.15389233859479426,-0.02337576102092862
1761133591392163800,4.549163818359375,4.12796665020287,-0.15956716936081647,-0.5796393783420324
1761133591412011000,4.569010986328125,6.539060408449172,0.6158866036348044,0.816417505416274
1761133591431858000,4.58885791015625,3.8045699778616426,1.4642024914845824,2.4682599990576506
1761133591451703800,4.608703857421875,4.871626962444186,1.3286179629966617,1.885366295094788
1761133591471551000,4.628551025390625,10.521333224081992,-0.8552954445388168,-0.33057913119122384
1761133591491398000,4.64839794921875,13.367944305461645,-1.7824089017063378,-0.4566429671399295
1761133591511244800,4.668244873046875,12.17283552598357,-1.3584494760282337,0.4307493780791759
1761133591531090700,4.688090576171875,10.785226152575015,-0.6285473477654159,0.6657156334258616
1761133591550937900,4.707937744140625,9.648674776005745,-0.30386582324542105,0.6228697405204177
1761133591570784800,4.72778466796875,8.134822702950238,-0.16311222155652938,0.5793148225627839
1761133591590631700,4.747631591796875,5.913249061518907,0.3092737467035651,0.6969396237291395
1761133591610477800,4.767477783203125,3.47394627687633,0.875233778456971,1.0356417094908654
1761133591630324700,4.78732470703125,1.5200784002244472,1.3048577327027917,1.3344589441098271
1761133591650171600,4.807171630859375,0.39673371123075485,1.1485603057276457,0.8125177214987576
1761133591670018800,4.827018798828125,-0.03843172972500324,0.8332930176977068,0.5055114813357592
1761133591689865000,4.846864990234375,0.03883738791644573,0.3802001077221706,0.08738799526952207
1761133591709712000,4.8667119140625,-0.31758652475774285,0.17162936307638882,-0.12667889910712837
1761133591729559000,4.88655908203125,-0.876116479575634,0.06669855072312057,-0.23154022642076014
1761133591749405000,4.906405029296875,-1.2377660179436205,-0.04821202304847538,-0.4206951631851494
1761133591769251800,4.926251953125,-0.6886708309471606,-0.3542874851673841,-0.38398397364243864
1761133591789098800,4.9460986328125,-0.2676443899810314,-0.7019144895322621,-0.48534869101196526
1761133591808946000,4.96594580078125,-0.7379431036382913,-0.6237141554553062,-0.48602447138167915
1761133591828791800,4.985791748046875,-1.0587684641867876,-0.39724805396106094,-0.15308416401706634
1761133591848638700,5.005638671875,-0.9958306542366743,-0.18431710481178015,-0.008999956600740551
1761133591868486000,5.02548583984375,-0.7069301257371902,-0.15171482102577574,0.16235248923040926
1761133591888331800,5.045331787109375,-0.41170507039129733,-0.34406478183865546,0.04087978046424687
1761133591908178700,5.0651787109375,0.015076573100686072,-0.5949807033261284,-0.04715279631912708
1761133591928025600,5.085025634765625,0.008656769186258316,-0.5684486702313646,-0.03126666040122509
1761133591947872800,5.104872802734375,-0.2771153981596231,-0.3597404168110341,0.08183890977501869
1761133591967719000,5.124718994140625,-0.6798351980626582,-0.08380122282393276,0.13015680435076354
1761133591987565800,5.14456591796875,-0.9900415494412184,0.06419979270994663,-0.025255656483396886
1761133592007413000,5.1644130859375,-0.944332522189617,-0.06643389930441043,-0.2960197128549218
1761133592027260000,5.184260009765625,-0.9024714025378227,0.025117508388031274,-0.1601073406521231
1761133592047105800,5.204105712890625,-1.5710346804797648,0.3528963230699301,-0.228953717058897
1761133592066953000,5.223952880859375,-1.646565430021286,0.5185769338097423,-0.17951463643349705
1761133592086800000,5.2437998046875,-0.6087970837652683,0.4745076731218025,0.03178016288131475
1761133592106645800,5.263645751953125,0.71302902713418,0.4156270661406219,0.22654804415665566
1761133592126492700,5.28349267578125,1.6021043570041655,0.6339777022510766,0.10049005342684686
1761133592146339800,5.30333984375,2.707333543592691,0.9375545524872839,-0.1883599869944155
1761133592166186800,5.323186767578125,4.6453228831112385,1.1214531030934303,-0.04344919256083667
1761133592186033000,5.343032958984375,6.649574208566546,1.050853599409014,0.1282613459929824
1761133592205879800,5.3628798828125,8.633917302981018,1.4245108248263596,0.6118574942491948
1761133592225726700,5.382726806640625,8.695307883489132,1.7749135775148868,0.5252260895006359
1761133592245573600,5.40257373046875,8.785870782467722,1.505446063759923,0.6824238263163716
1761133592265419800,5.422419677734375,7.764714548316597,1.1249262590967117,0.649184331472218
1761133592285266700,5.4422666015625,10.282960521292686,-0.3191808447444811,2.1204379105120896
1761133592305113600,5.462113525390625,9.670904727992415,-1.987859578102827,1.7161887090846895
1761133592324959700,5.481959716796875,6.440479038187861,-2.572941439759731,0.8420338849708437
1761133592344806700,5.501806640625,3.541528113240003,-2.3806506891876458,0.403545290941745
1761133592364653600,5.521653564453125,1.263185121360421,-1.967775113712251,0.9690443541198969
1761133592384500700,5.541500732421875,1.777102611991763,-2.425281127422303,1.8959644076071678
1761133592404346600,5.5613466796875,1.9399948341220616,-3.201797268952429,0.6241632874622941
1761133592424193500,5.581193603515625,-0.10096095887422561,-3.387226317061484,-0.14314341943487524
1761133592444040700,5.601040771484375,-1.7989520402282475,-3.1112092355325816,-0.25959216255918144
1761133592463886800,5.620886962890625,-3.1093706219285724,-2.934057601903379,-0.5118035672172904
1761133592483733800,5.640733642578125,-3.5797120056837795,-2.943134350067377,-1.208217121245712
1761133592503580700,5.66058056640625,-4.599190077489614,-3.0073376499086617,-1.3826112728603184
1761133592523427800,5.680427734375,-5.439224605336785,-3.0749446207135915,-1.1538842041641473
1761133592543273700,5.700273681640625,-6.128738901370763,-2.946661062888801,-1.0997744283139705
1761133592563120600,5.72012060546875,-6.2016866486817595,-3.1386402632936834,-1.3439505566850303
1761133592582967800,5.7399677734375,-5.933728954967856,-3.1692747632712126,-1.462216139972955
1761133592602814700,5.759814697265625,-6.4464440840721124,-3.2605683146119118,-1.0059956360287963
1761133592622660600,5.77966064453125,-7.312675713971257,-3.0591257048130034,-0.033286256595328446
1761133592642507500,5.799507568359375,-7.816479222345352,-2.8434640155255795,0.42487580987066026
1761133592662354700,5.819354736328125,-8.163126421892642,-2.7045003659933804,0.6308912805430591
1761133592682200600,5.83920068359375,-7.557360084125399,-2.731750191968679,0.22240173813216388
1761133592702047500,5.859047607421875,-6.376456940132379,-2.727014980140328,-0.6115547119103372
1761133592721894700,5.878894775390625,-6.230384335377812,-2.644537772461772,-0.7504939576536417
1761133592741741600,5.898741455078125,-6.190087396302819,-2.1831097630023955,-0.6410629843369126
1761133592761587700,5.918587646484375,-6.460257505369186,-1.9170669629991053,-0.14825988566577433
1761133592781435000,5.938434814453125,-6.6023085995227095,-2.27765734770298,0.1917244949914515
1761133592801281800,5.95828173828125,-5.263078933879733,-3.1946611334621906,-0.9910825098615139
1761133592821127700,5.978127685546875,-5.423257805398106,-3.6046395261913537,-2.354012126978487
1761133592840974600,5.997974609375,-7.789657266393303,-3.526491579888761,-2.5479239028811453
1761133592860821800,6.01782177734375,-9.540480358746647,-4.1431911073416465,-2.973815904057026
1761133592880668700,6.037668701171875,-8.101518983763455,-4.290434217180311,-2.1825432151608166
1761133592900514600,6.0575146484375,-5.69302342531681,-3.878378725916147,-0.7711404398411512
1761133592920361700,6.07736181640625,-4.818518472591042,-3.6563475015968083,0.9138744747575372
1761133592940208600,6.097208740234375,-3.1743571811020375,-3.207956960625946,1.729671583253145
1761133592960054500,6.117054443359375,-2.026967015132308,-2.4422373767897487,0.5485297351334244
1761133592979901400,6.1369013671875,-0.8331915300846099,-1.8638304628521203,-0.15055749508365987
1761133592999748600,6.15674853515625,2.1184856074005363,-1.1261661761552095,1.4807703260563314
1761133593019595500,6.176595458984375,5.970788811817765,-0.3486705951336771,2.431412031392753
1761133593039441700,6.196441650390625,10.899231301939487,-0.2837797148870304,2.1478730299264193
1761133593059288800,6.216288818359375,12.408900536352395,-0.17440260891569778,1.5585726737916468
1761133593079135700,6.2361357421875,10.176438421159983,0.5481194738321006,1.8246020297914742
1761133593098981600,6.255981689453125,9.944834481853245,0.5904783138729631,1.14099681167081
1761133593118828800,6.275828857421875,10.893884095692634,0.007824629211053253,0.1691894225783646
1761133593138675700,6.29567578125,10.640961474025248,-0.40724093058928845,0.6034522156059742
1761133593158522600,6.315522705078125,9.364989936327934,-0.2062673265416175,1.2189749543644488
1761133593178368500,6.335368408203125,6.983351989668607,0.2797931660015136,1.5377131333753467
1761133593198215700,6.355215576171875,4.904471831947565,0.8371225859232246,1.6490405879631638
1761133593218062600,6.3750625,4.310198948097229,1.0278989133443683,1.2148270409047603
1761133593237909500,6.394909423828125,4.138603195029497,0.6159625914804637,0.530173482774943
1761133593257755600,6.414755615234375,3.5158278547942636,0.2644726280771196,0.06969225264638662
1761133593277602600,6.4346025390625,1.8486229568481445,0.1674091150328517,-0.2544537767574191
1761133593297449200,6.45444921875,0.44988428665995595,0.37054647298566995,-0.14468458446227014
1761133593317295000,6.474295166015625,-0.5102203896790742,0.41796654193885624,-0.351101402477175
1761133593337142000,6.49414208984375,-0.966242740702629,0.3656037558864802,-0.4500899652998894
1761133593356989200,6.5139892578125,-1.0584873091578484,0.051750718568637964,-0.7391318750314414
1761133593376836000,6.533836181640625,-0.5977332534372806,-0.18265786636266856,-0.5482043756365775
1761133593396682000,6.553681884765625,-0.15432079313993452,-0.3716464701168239,-0.1977618023943156
1761133593416529000,6.57352880859375,-0.30398820751607414,-0.45641646490767596,-0.13287431968115268
1761133593436376000,6.5933759765625,-0.6387848102718592,-0.42896855907700954,-0.23433920948952436
1761133593456222000,6.613221923828125,-0.8448948273599147,-0.3663944313401356,-0.24839929902404545
1761133593476068900,6.63306884765625,-0.6716781950920819,-0.3844405948361382,-0.3299602686405182
1761133593495916000,6.652916015625,-0.003495440900325775,-0.6418738623283803,-0.2679987563766539
1761133593515763000,6.672762939453125,-0.198863699221611,-0.6752306268766523,-0.27805041398741304
1761133593535609000,6.692609130859375,-0.49659635347425934,-0.37300230517257005,0.019738062105700373
1761133593555456000,6.7124560546875,-0.7364625096917152,-0.04724929722985252,0.1994752552486956
1761133593575303200,6.73230322265625,-0.616966361695528,0.06519680439066142,0.16933284963704645
1761133593595149000,6.752149169921875,-0.4626981755256653,0.004835238136723637,0.07600717141423374
1761133593614996000,6.771995849609375,-0.12489420764744281,-0.1506197831975296,0.003348689373396337
1761133593634843100,6.791843017578125,0.26314064882099625,-0.11533088154289871,0.16645038953591137
1761133593654690000,6.81168994140625,0.1974514943361282,-0.03546741829300299,0.15794895704183726
1761133593674536000,6.831535888671875,-0.18621873718202114,0.066507914388692,0.07139525717198848
1761133593694383000,6.851383056640625,-0.15543898351490495,0.15659748763395473,0.11732947148159145
1761133593714230000,6.87122998046875,0.12134732882082462,0.14352672879719175,0.2242758979735896
1761133593734076000,6.891075927734375,0.30956103921234607,0.0766563560379669,0.1489704450879246
1761133593753922800,6.9109228515625,0.18976269339919088,0.09587667787987739,0.08469649116322397
1761133593773770000,6.93077001953125,0.3051151657193899,0.19555621864143757,0.20874591854959726
1761133593793617000,6.950616943359375,0.3564695053815842,0.27143622001204637,0.23706666169203816
1761133593813463000,6.970463134765625,0.48559389794468877,0.2755699222832918,0.11919837062600999
1761133593833310200,6.990310302734375,0.7469055777728557,0.16908110336568205,-0.0035523952519521114
1761133593853157000,7.0101572265625,0.8097533713519572,0.01555293104131706,-0.12135094555001705
1761133593873003000,7.0300029296875,0.40203123311698435,0.19722835310474038,-0.9031782356329262
1761133593892850000,7.049849853515625,0.06113046826720237,0.2651902200282551,-0.7357423056583852
1761133593912697000,7.069697021484375,0.7783569470912217,0.24879734016461297,-0.13949651429988444
1761133593932544000,7.0895439453125,1.7006465642988682,-0.024039065501559525,0.43082098201066255
1761133593952390000,7.109389892578125,1.4946575432419775,0.21082011274145915,0.564960207061097
1761133593972237000,7.129237060546875,0.6665501845538616,0.5326827256495132,0.6158688487824052
1761133593992084000,7.149083984375,1.0473509981155396,0.8487988490611315,0.3909790932267904
1761133594011931000,7.168930908203125,2.645478852704167,0.7204961481444537,0.09233684984855353
1761133594031777000,7.188777099609375,4.984429165759682,0.8836386917740106,0.2542879917364567
1761133594051624000,7.2086240234375,8.000811707389355,1.0566868356071413,-0.7748797724999487
1761133594071470800,7.228470947265625,9.530256486374139,0.6938658423069864,-1.4102899917721747
1761133594091317000,7.24831689453125,10.079583144038915,1.2418551869533956,-0.9431560988213866
1761133594111164200,7.2681640625,8.465062373054026,1.3898393244177103,-1.0962373402290047
1761133594131011000,7.288010986328125,5.516779554182291,1.346004566605389,-0.8221231697119772
1761133594150858000,7.30785791015625,3.8218998828470703,0.9588071838743984,0.6959732629150152
1761133594170704100,7.3277041015625,2.9644167920708653,0.1146915241934359,1.9562930579721927
1761133594190551000,7.347551025390625,2.7208792538642883,-1.2555420592613518,1.9955498403444885
1761133594210398000,7.36739794921875,1.4006974030405281,-2.328882361897081,1.3745871024891734
1761133594230243800,7.387243896484375,-0.9839356337815522,-2.54608733510375,1.0224318070448934
1761133594250091000,7.407091064453125,-2.0700679057121274,-2.8021801112398506,0.859834914599359
1761133594269938000,7.42693798828125,-1.1567489459455012,-3.4280461109668012,0.85403295032233
1761133594289785300,7.446785400390625,-1.864220923474431,-4.003000546362996,0.09580171294752508
1761133594309631200,7.46663134765625,-3.5768262211143966,-3.8226270280778407,-0.3150705598814413
1761133594329478400,7.486478515625,-5.288323265251517,-3.54606692571342,-0.3882637698534876
1761133594349325300,7.5063251953125,-5.632665110465884,-3.2736125051021574,-0.5585473078114912
1761133594369171500,7.52617138671875,-5.292482138496637,-3.0999393612384796,-0.783781894749403
1761133594389018400,7.546018310546875,-4.534060310453176,-2.975615062433481,-0.9947637556575238
1761133594408865500,7.565865478515625,-4.096880607065558,-2.9698002386748787,-1.0535709686089307
1761133594428712400,7.58571240234375,-4.2959588258206844,-2.7236539792746304,-0.8350338700156659
1761133594448558300,7.605558349609375,-4.493208075582981,-2.4581723202854393,-0.4844033729858696
1761133594468405500,7.625405517578125,-4.537140740811824,-2.336100768843293,-0.31790154552366584
1761133594488252400,7.64525244140625,-4.785727379101514,-2.312773084747791,-0.18299780237413943
1761133594508098300,7.665098388671875,-5.2488779745697975,-2.3521786279410124,-0.08071618935540319
1761133594527945500,7.684945556640625,-5.770002620100975,-2.4556594606816766,0.16220847764983773
1761133594547792400,7.70479248046875,-6.232948048385977,-2.56654677028656,0.37646285742260516
1761133594567639300,7.724639404296875,-6.230598270389438,-3.022033114737272,0.10800229222048073
1761133594587485400,7.7444853515625,-6.235482535299658,-3.6377982839494942,-0.4218590923979878
1761133594607332400,7.764332275390625,-6.9149828023195266,-3.956595353540778,-0.6525782116942107
1761133594627179300,7.78417919921875,-7.343806180772185,-3.815059807693958,-1.4631465526908636
1761133594647025400,7.804025390625,-7.5555235163480035,-4.070438005819916,-1.734648641013354
1761133594666872600,7.82387255859375,-7.6124886816293,-4.472120863890647,-1.0348166568435728
1761133594686719500,7.843719482421875,-6.369058646574616,-4.222199177604914,0.7767528728954494
1761133594706566400,7.86356640625,-4.038363536167145,-3.400897991800308,1.5281231749922035
1761133594726412300,7.883412353515625,-3.7950399329721924,-3.3968095534428953,0.7125785068877041
1761133594746259500,7.903259521484375,-4.388233789414167,-2.852056487303972,0.13640190928541124
1761133594766106400,7.9231064453125,-4.085026503142714,-2.3077017728328704,1.319889005357027
1761133594785952300,7.9429521484375,-1.6717396187663078,-1.8227514334887265,0.9790446468695998
1761133594805799400,7.96279931640625,1.043683707779646,-1.7274362254165112,-0.15689517367258668
1761133594825646300,7.982646240234375,2.4020348379999397,-1.234844869799912,0.827903214418143
1761133594845492500,8.002492431640626,3.5060943962872027,-0.5572194202085956,1.7022247734010219
1761133594865339400,8.02233935546875,6.037708384880423,-0.4649659012619406,0.7131621519945561
1761133594885186600,8.0421865234375,8.08677734170556,-0.8301535506282002,-0.21963095824457704
1761133594905032400,8.062032470703125,8.617634861221909,-0.393403909220919,0.7614088810302316
1761133594924879400,8.08187939453125,10.003670117181539,0.05533800247088074,1.2850175984621046
1761133594944726500,8.1017265625,12.288120778286457,-0.6434829049602151,0.343639396033436
1761133594964572400,8.121572509765626,13.432088568592071,-1.7218873591177164,-0.8373955576457083
1761133594984419300,8.14141943359375,12.009633507251738,-1.415246737396717,-0.7565724007844924
1761133595004266500,8.1612666015625,9.160289201515912,-0.47420185857564207,-0.22124606529101729
1761133595024113400,8.181113525390625,7.203519758203625,-0.07222279403731227,-0.2778767379209399
1761133595043959300,8.200959228515625,5.490971743708848,-0.2290643378265202,-0.5642531547702848
1761133595063806500,8.220806396484376,3.29835648573637,-0.2910496693573892,-0.6670245971325784
1761133595083653400,8.2406533203125,2.633890121719241,-0.08596841079518198,-0.193610016477108
1761133595103499500,8.26049951171875,0.9450555757671594,0.2469773033969104,0.6312992768220603
1761133595123346400,8.280346435546875,-0.497231144246459,0.7601655299056321,1.0444591491315514
1761133595143193600,8.300193603515625,-0.8172183004051446,0.6992271501444279,0.9691628659330308
1761133595163040500,8.32004052734375,-0.706013010892272,0.4316429659180343,0.7469991743404418
1761133595182886400,8.339886474609376,-1.0523492447942495,0.12348835943751037,0.7365251996643841
1761133595202733600,8.359733642578124,-1.6539233915686606,0.09537691166419535,0.3605258315676823
1761133595222580500,8.37958056640625,-1.767507100650668,0.20053822657139972,0.1920356067672372
1761133595242427400,8.399427490234375,-1.4672931509763,0.09982196317324414,-0.02294858511742204
1761133595262274600,8.419274658203125,-1.1398790596872568,-0.11704460839191451,-0.07109031940866262
1761133595282121500,8.43912158203125,-0.9646230305463075,-0.18820512522626667,0.1129409907316789
1761133595301968100,8.458968017578124,-0.6524082619547844,-0.28280767325079065,0.24272929056361317
1761133595321814000,8.47881396484375,-0.6499860032439232,-0.32080541373901067,0.05704334508404135
1761133595341661000,8.498660888671875,-0.6801239518761635,-0.3174596835076809,-0.06803334299083799
1761133595361508000,8.518508056640625,-0.8260656237274407,-0.2394344502693042,0.0018104104228317736
1761133595381354000,8.53835400390625,-0.8057581642359495,-0.20115407518111167,-0.08695457228831946
1761133595401201000,8.558200927734376,-0.6051356386482716,-0.2769585270974785,-0.298754581178911
1761133595421047800,8.5780478515625,-0.41621874842345713,-0.3201188562469557,-0.3472008513746783
1761133595440895000,8.59789501953125,-0.2789981431663036,-0.25203736326545473,-0.19264508043508977
1761133595460741000,8.6177412109375,-0.1733013879418373,-0.07310417084856889,0.06465254144612699
1761133595480588000,8.637588134765625,-0.4860638535439968,0.144681771450676,0.25851233143322166
1761133595500435200,8.657435302734376,-0.8329431082814931,0.28880389972459525,0.13930347594581544
1761133595520281000,8.677281005859374,-0.39864860494136806,0.27002136651175096,0.16129567365385591
1761133595540128000,8.6971279296875,0.12626257339119912,0.21004629709105938,0.2021114489711821
1761133595559975200,8.71697509765625,0.394264106246829,0.008782862659293459,0.11653170870002358
1761133595579822000,8.736822021484375,0.5894336271256209,-0.004557065653559403,0.1423322857150808
1761133595599668000,8.75666796875,0.4465145179659128,0.051067293748585506,0.1796607303733006
1761133595619515000,8.776514892578126,0.0053583121627569195,0.1501694182146806,0.19276812229286877
1761133595639362000,8.796362060546874,-0.2847673742175102,0.22536562943905591,0.1971319800581783
1761133595659208000,8.8162080078125,-0.39015842449367044,0.06649302734681405,-0.050833494125865394
1761133595679054800,8.836054931640625,-0.2273673246502876,-0.0010726250670384616,-0.09441749204751104
1761133595698902000,8.855902099609375,-0.194755094859004,0.14929919298510066,0.17118253262434155
1761133595718749000,8.8757490234375,0.1781809766769409,0.13227595192920416,0.3096625268254429
1761133595738595000,8.895594970703126,0.6818348474472761,-0.1468202447840944,0.05479330113492906
1761133595758442000,8.91544189453125,0.7005839715808629,-0.36137934312447906,-0.2851470942500979
