time,seconds_elapsed,z,y,x
1761132304840110000,0.073110107421875,0.04300205782055855,-0.013534476049244404,0.11507545411586761
1761132304859958000,0.0929580078125,0.05747309699654579,-0.007379700429737568,0.11374951153993607
1761132304879806000,0.112805908203125,0.05945723503828049,0.0013958283234387636,0.05050711706280708
1761132304899652900,0.13265283203125,0.04428897425532341,-0.0027295760810375214,0.0031148374546319246
1761132304919501000,0.1525009765625,0.04007326066493988,-0.002395872725173831,0.031563811004161835
1761132304939349000,0.172348876953125,0.03401859104633331,0.005947763100266457,0.03396029770374298
1761132304959196000,0.19219580078125,0.02264835312962532,0.007065698504447937,0.025745579972863197
1761132304979043800,0.2120439453125,0.0076489802449941635,0.009237387217581272,0.04538687691092491
1761132304998892300,0.231892333984375,0.007355756592005491,0.007713126949965954,0.052985478192567825
1761132305018740500,0.251740478515625,0.0029439565259963274,0.011839568614959717,0.03374128416180611
1761132305038588200,0.271588134765625,0.011153792962431908,0.005298680625855923,0.013414996676146984
1761132305058435300,0.291435302734375,0.020931130275130272,-0.0015798108652234077,0.014661891385912895
1761132305078283300,0.311283203125,0.03000224009156227,-0.011852359399199486,0.044565167278051376
1761132305098131500,0.33113134765625,0.03311251848936081,-0.009135095402598381,0.05673760920763016
1761132305117979400,0.3509794921875,0.02620660327374935,0.0008104655425995588,0.03346635028719902
1761132305137826600,0.37082666015625,0.03056349791586399,-0.006841685622930527,0.005906092934310436
1761132305157674200,0.39067431640625,0.026168933138251305,-0.005870575550943613,-0.02058059349656105
1761132305177522400,0.4105224609375,0.013952682726085186,-0.007153037935495377,-0.0053037311881780624
1761132305197370400,0.430370361328125,0.0015048747882246971,-0.00045437621884047985,0.008833149448037148
1761132305217217300,0.45021728515625,-0.0006982297636568546,-0.0011716305743902922,0.0008393083699047565
1761132305237065200,0.470065185546875,-0.002374680247157812,-0.002887106966227293,-0.023050915449857712
1761132305256913400,0.489913330078125,-0.010648065246641636,-0.003605227218940854,-0.003248377703130245
1761132305276761300,0.50976123046875,-0.006283484864979982,-0.00005338410846889019,0.026227999478578568
1761132305296608300,0.529608154296875,-0.0032277782447636127,-0.0032294183038175106,0.018324322998523712
1761132305316456200,0.549456298828125,-0.0015753426123410463,-0.0031664902344346046,0.00046395277604460716
1761132305336304400,0.569304443359375,-0.002198323607444763,0.011248872615396976,0.00515210535377264
1761132305356152300,0.58915234375,0.002407227410003543,0.01013410184532404,0.001959820743650198
1761132305375999200,0.608999267578125,0.004898945335298777,0.025297392159700394,-0.016021501272916794
1761132305395847400,0.628847412109375,0.017634199932217598,0.025493495166301727,-0.027782943099737167
1761132305415695400,0.6486953125,0.027088232338428497,0.020600397139787674,-0.018480248749256134
1761132305435543300,0.668543212890625,0.04236934334039688,0.006494810804724693,0.003989561460912228
1761132305455390200,0.68839013671875,0.05004071816802025,-0.01147373765707016,0.008571893908083439
1761132305475238400,0.70823828125,0.05822911113500595,-0.01362633053213358,0.019096367061138153
1761132305495086300,0.72808642578125,0.06346891075372696,-0.012012762017548084,0.02251673862338066
1761132305514934300,0.747934326171875,0.052930641919374466,0.00011946982704102993,0.009232526645064354
1761132305534781200,0.76778125,0.0582418330013752,0.002610383555293083,-0.0018031280487775803
1761132305554629400,0.78762939453125,0.06248273700475693,-0.007506377063691616,-0.028216160833835602
1761132305574477300,0.807477294921875,0.058132339268922806,-0.003478861413896084,-0.029100287705659866
1761132305594325200,0.8273251953125,0.05503474548459053,-0.012816611677408218,-0.018376801162958145
1761132305614172200,0.847172119140625,0.05559787526726723,-0.009291856549680233,0.02112622931599617
1761132305634020400,0.867020263671875,0.0537315309047699,0.005804538726806641,0.03936914727091789
1761132305653868500,0.88686865234375,0.039488017559051514,0.0044413283467292786,0.012969860807061195
1761132305673716200,0.90671630859375,0.029578708112239838,0.0012537529692053795,-0.010587731376290321
1761132305693563100,0.926563232421875,0.01687362790107727,-0.013797490857541561,-0.01853824034333229
1761132305713411300,0.946411376953125,0.010735124349594116,-0.014149682596325874,-0.008204422891139984
1761132305733259500,0.966259521484375,-0.008984839543700218,-0.010086417198181152,0.023186642676591873
1761132305753107200,0.986107177734375,-0.00882020965218544,-0.0216631218791008,0.02352135255932808
1761132305772954000,1.0059541015625,-0.00948010478168726,-0.015094079077243805,0.013398945331573486
1761132305792802300,1.02580224609375,-0.020329024642705917,0.006604557856917381,-0.006998737342655659
1761132305812650500,1.045650390625,-0.03274897485971451,0.010973651893436909,-0.026735160499811172
1761132305832498400,1.06549853515625,-0.039980754256248474,0.009893296286463737,-0.03214643523097038
1761132305852345300,1.085345458984375,-0.035891834646463394,0.006254225037992001,-0.02718450501561165
1761132305872193300,1.105193359375,-0.028379686176776886,-0.00242007989436388,-0.0026593590155243874
1761132305892041500,1.12504150390625,-0.017377745360136032,-0.01920022815465927,0.013161124661564827
1761132305911889400,1.144889404296875,-0.013216459192335606,-0.02092343382537365,0.03498563542962074
1761132305931736300,1.164736328125,-0.004835294093936682,-0.021606968715786934,0.029869602993130684
1761132305951584300,1.184584228515625,-0.011038990691304207,-0.01950194127857685,-0.0008661071769893169
1761132305971432200,1.20443212890625,-0.02018267661333084,-0.008915212005376816,-0.0036001806147396564
1761132305991280400,1.2242802734375,-0.024965420365333557,-0.002257082611322403,0.00638195313513279
1761132306011126500,1.24412646484375,-0.0172894187271595,0.006293567828834057,-0.0012789689935743809
1761132306030974700,1.263974609375,-0.01209927722811699,0.015737658366560936,-0.02737756259739399
1761132306050822400,1.283822509765625,-0.006735661532729864,0.005107249598950148,-0.03640255331993103
1761132306070670600,1.303670654296875,0.0059056589379906654,0.0018704631365835667,-0.01256631501019001
1761132306090517500,1.323517578125,0.01721847429871559,0.0005999079439789057,0.011893149465322495
1761132306110365700,1.34336572265625,0.01878650300204754,0.0048432908952236176,0.011764515191316605
1761132306130213400,1.36321337890625,0.011390062980353832,0.00904314685612917,0.004112261347472668
1761132306150061600,1.3830615234375,0.004469927866011858,0.008076155558228493,-0.0062816450372338295
1761132306169908500,1.402908447265625,-0.008703581988811493,0.0035052516032010317,-0.01119655929505825
1761132306189756700,1.422756591796875,-0.02085498534142971,0.005280674435198307,-0.022994529455900192
1761132306209604600,1.4426044921875,-0.027534883469343185,-0.0013399384915828705,-0.016975782811641693
1761132306229452500,1.46245263671875,-0.03410285338759422,-0.004413273185491562,0.011364847421646118
1761132306249299500,1.482299560546875,-0.04405204579234123,0.005890598986297846,0.02275174856185913
1761132306269147600,1.502147705078125,-0.043983712792396545,0.01634703017771244,0.02069840580224991
1761132306288995600,1.52199560546875,-0.024485299363732338,0.018234390765428543,0.002280490007251501
1761132306308843500,1.541843505859375,-0.011419781483709812,0.01802539825439453,-0.016993384808301926
1761132306328690400,1.5616904296875,-0.004244568757712841,0.029811039566993713,-0.017155427485704422
1761132306348538600,1.58153857421875,0.0013759227003902197,0.024076614528894424,-0.008469020947813988
1761132306368386600,1.601386474609375,0.019901219755411148,0.021433038637042046,0.01564585417509079
1761132306388234500,1.621234375,0.027271289378404617,0.02526232972741127,0.027058323845267296
1761132306408081400,1.641081298828125,0.016830679029226303,0.03477775305509567,0.008624382317066193
1761132306427929600,1.6609296875,0.0022349576465785503,0.03657378628849983,-0.001201882492750883
1761132306447777500,1.680777587890625,-0.004436848685145378,0.04236438125371933,0.01715034618973732
1761132306467625700,1.700625732421875,-0.010477917268872261,0.03917396813631058,0.019839292392134666
1761132306487472600,1.72047265625,-0.025980977341532707,0.031140275299549103,-0.011373753659427166
1761132306507320600,1.740320556640625,-0.03491124138236046,0.013779502362012863,-0.02431030198931694
1761132306527168500,1.76016845703125,-0.042579539120197296,0.0068107848055660725,0.00004239566624164581
1761132306547016700,1.7800166015625,-0.05206260457634926,0.0012523590121418238,0.017676565796136856
1761132306566863600,1.799863525390625,-0.061382945626974106,0.003407898359000683,0.010757114738225937
1761132306586711600,1.819711669921875,-0.0606759674847126,-0.008387360721826553,0.021047132089734077
1761132306606559500,1.8395595703125,-0.05180351808667183,-0.026624219492077827,0.04764775186777115
1761132306626407700,1.85940771484375,-0.039111748337745667,-0.04332748427987099,0.05879560112953186
1761132306646254600,1.879254638671875,-0.04017417132854462,-0.04078960046172142,0.03750532120466232
1761132306666102500,1.8991025390625,-0.050995029509067535,-0.04073689877986908,0.027879156172275543
1761132306685950500,1.918950439453125,-0.05765221640467644,-0.03340189903974533,0.04223550856113434
1761132306705798700,1.938798583984375,-0.05204140394926071,-0.011386822909116745,0.031746722757816315
1761132306725645600,1.9586455078125,-0.038607530295848846,0.013023017905652523,0.011941760778427124
1761132306745493800,1.97849365234375,-0.01753488928079605,0.022409966215491295,-0.008207958191633224
1761132306765341400,1.998341552734375,0.015277375467121601,0.015314378775656223,-0.007374582812190056
1761132306785189600,2.018189697265625,0.05046555772423744,-0.00258128484711051,0.00668514147400856
1761132306805036500,2.03803662109375,0.06367088109254837,-0.013882591389119625,0.023215115070343018
1761132306824884700,2.057884765625,0.06181946396827698,-0.019755924120545387,0.03431982174515724
1761132306844732400,2.077732421875,0.05032402649521828,-0.02078433521091938,0.018428640440106392
1761132306864579600,2.09757958984375,0.03217926621437073,-0.01658889651298523,-0.009573190473020077
1761132306884427500,2.117427490234375,0.028339961543679237,-0.008227475918829441,-0.00026268186047673225
1761132306904275700,2.137275634765625,0.016977600753307343,-0.013926548883318901,0.019465893507003784
1761132306924123600,2.15712353515625,0.003829403081908822,-0.022631872445344925,0.02353561669588089
1761132306943970600,2.176970458984375,0.007113326340913773,-0.0331585519015789,0.018877092748880386
1761132306963818500,2.196818603515625,0.02000068500638008,-0.032760489732027054,0.011253672651946545
1761132306983666700,2.216666748046875,0.032868463546037674,-0.007121850736439228,-0.02436073310673237
1761132307003515100,2.23651513671875,0.038295287638902664,0.004725637845695019,-0.04840953275561333
1761132307023362000,2.256362060546875,0.04998769611120224,-0.025419874116778374,-0.0008214148692786694
1761132307043210200,2.276210205078125,0.05933432653546333,-0.03732979670166969,0.04911578446626663
1761132307063058200,2.29605810546875,0.04403237625956535,-0.02916993573307991,0.0486963614821434
1761132307082906400,2.31590625,0.029248887673020363,-0.02447049506008625,0.026557553559541702
1761132307102753300,2.335753173828125,0.006716386880725622,-0.004215518478304148,-0.0026568653993308544
1761132307122601200,2.355601318359375,-0.0037549412809312344,-0.008216704241931438,-0.022642774507403374
1761132307142449200,2.37544921875,-0.014575690031051636,0.010357381775975227,-0.02345166727900505
1761132307162297300,2.39529736328125,-0.019694024696946144,0.012060018256306648,-0.023684676736593246
1761132307182144300,2.415144287109375,-0.026109853759407997,0.008671721443533897,-0.0225040465593338
1761132307201992200,2.4349921875,-0.01791078969836235,-0.012135426513850689,-0.0049060736782848835
1761132307221840100,2.454840087890625,-0.004543062765151262,-0.027082549408078194,0.009770679287612438
1761132307241688300,2.474688232421875,-0.0022840676829218864,-0.011866866610944271,-0.004374870099127293
1761132307261535200,2.49453515625,-0.004633883945643902,0.0019244763534516096,-0.01269327662885189
1761132307281383200,2.514383056640625,0.0007937475456856191,0.00631133746355772,-0.008236986584961414
1761132307301231000,2.534231201171875,0.009169911965727806,-0.0012972792610526085,-0.00020537571981549263
1761132307321079300,2.554079345703125,0.004092714283615351,-0.000753392931073904,-0.001981463748961687
1761132307340926200,2.57392626953125,-0.004183260723948479,0.007787414826452732,-0.02279132977128029
1761132307360774400,2.5937744140625,-0.013339170254766941,0.0068360622972249985,-0.023936733603477478
1761132307380622000,2.6136220703125,-0.01576084829866886,0.00043180398643016815,-0.01284316647797823
1761132307400470300,2.63347021484375,-0.02869783155620098,0.004977893084287643,-0.010749946348369122
1761132307420317200,2.653317138671875,-0.03258010745048523,0.0035401962231844664,-0.005708630662411451
1761132307440165400,2.673165283203125,-0.04482773691415787,-0.0030389740131795406,-0.0047843921929597855
1761132307460013000,2.693012939453125,-0.04803193360567093,-0.013125186786055565,0.002569349016994238
1761132307479861200,2.712861328125,-0.0577675923705101,-0.007628671824932098,0.0048126960173249245
1761132307499708200,2.732708251953125,-0.06113323196768761,0.0004117239732295275,0.005857793148607016
1761132307519556400,2.752556396484375,-0.05829627066850662,0.009658778086304665,-0.015910981222987175
1761132307539404000,2.772404052734375,-0.040882453322410583,0.0024993515107780695,-0.025172198191285133
1761132307559252200,2.792252197265625,-0.016435932368040085,0.002395313000306487,-0.017408283427357674
1761132307579099100,2.81209912109375,-0.005454888101667166,0.004059596918523312,-0.02292225882411003
1761132307598947300,2.831947265625,0.013681618496775627,-0.012521917931735516,-0.01245170645415783
1761132307618795300,2.851795166015625,0.04103679582476616,-0.02830832079052925,0.0067700729705393314
1761132307638643200,2.871643310546875,0.04382341355085373,-0.017818879336118698,0.023452330380678177
1761132307658490000,2.891489990234375,0.04474736005067825,-0.002129910048097372,0.00035301921889185905
1761132307678338300,2.91133837890625,0.04216625541448593,0.004028297029435635,-0.04152516648173332
1761132307698186200,2.931186279296875,0.03796929121017456,-0.0034748984035104513,-0.05402512848377228
1761132307718034200,2.9510341796875,0.0397973395884037,-0.005802316591143608,-0.025050323456525803
1761132307737881000,2.970881103515625,0.0320240780711174,-0.004832352977246046,0.005833486095070839
1761132307757729300,2.990729248046875,0.022778894752264023,-0.007315317168831825,-0.010932856239378452
1761132307777577200,3.0105771484375,0.004103049170225859,-0.006380393169820309,-0.0345398373901844
1761132307797425200,3.030425048828125,-0.0021166568621993065,-0.011191466823220253,-0.03051522746682167
1761132307817272000,3.05027197265625,-0.008047414012253284,-0.013340127654373646,-0.007387437857687473
1761132307837120300,3.070120361328125,-0.01816616952419281,-0.010151277296245098,0.0008289222605526447
1761132307856968200,3.08996826171875,-0.017716452479362488,-0.013117078691720963,-0.008905631490051746
1761132307876816400,3.10981640625,-0.007119439542293549,-0.00952228158712387,-0.029992710798978806
1761132307896663300,3.129663330078125,-0.004127977415919304,-0.0001779401209205389,-0.02810516208410263
1761132307916511200,3.14951123046875,-0.003955477382987738,-0.0013052687281742692,-0.03357531502842903
1761132307936359200,3.169359130859375,0.004214291926473379,-0.0032841304782778025,-0.01245078630745411
1761132307956207400,3.189207275390625,0.010784173384308815,-0.008891480043530464,0.007971301674842834
1761132307976054300,3.20905419921875,0.013983694836497307,-0.005075437016785145,0.02491726167500019
1761132307995902200,3.228902099609375,0.013213030993938446,-0.002261621877551079,0.01925126649439335
1761132308015749600,3.24874951171875,0.010059411637485027,0.01657157763838768,-0.008704297244548798
1761132308035597800,3.268597900390625,0.0003780086408369243,0.020251289010047913,-0.03430335223674774
1761132308055444700,3.28844482421875,0.0037876730784773827,0.018928062170743942,-0.03702176362276077
1761132308075292700,3.308292724609375,0.008786085993051529,0.010733764618635178,-0.02340025082230568
1761132308095140600,3.328140625,0.020287517458200455,-0.006235006731003523,0.002967707347124815
1761132308114988800,3.34798876953125,0.023761115968227386,-0.012810691259801388,0.02382347732782364
1761132308134835700,3.367835693359375,0.024849144741892815,-0.015635669231414795,0.03839138522744179
1761132308154683600,3.38768359375,0.020921550691127777,-0.012515590526163578,0.031079962849617004
1761132308174531600,3.407531494140625,0.015251250937581062,-0.012518542818725109,0.005423165392130613
1761132308194379800,3.4273798828125,0.008047601208090782,-0.017172835767269135,-0.013198550790548325
1761132308214226700,3.447226806640625,-0.0038004990201443434,-0.0044315471313893795,0.00018678558990359306
1761132308234074600,3.46707470703125,-0.009923758916556835,0.0017541034612804651,0.011343058198690414
1761132308253922800,3.4869228515625,-0.017840098589658737,-0.0028933866415172815,0.008583078160881996
1761132308273770800,3.506770751953125,-0.019879665225744247,0.007276087999343872,0.028725655749440193
1761132308293617700,3.52661767578125,-0.022059792652726173,0.005948451813310385,0.009050148539245129
1761132308313465600,3.546465576171875,-0.008668817579746246,0.006839446723461151,-0.006416592746973038
1761132308333313800,3.566313720703125,0.0050962851382792,0.00517880916595459,-0.013003608211874962
1761132308353161700,3.58616162109375,0.017170635983347893,0.004530970007181168,-0.006304668262600899
1761132308373008600,3.606008544921875,0.021751876920461655,0.012805155478417873,0.0005324883386492729
1761132308392856600,3.625856689453125,0.032401081174612045,0.00679875910282135,-0.007867775857448578
1761132308412704800,3.645704833984375,0.04160565137863159,0.0003109285607933998,-0.012876140885055065
1761132308432552700,3.665552734375,0.04581712931394577,-0.005867130123078823,-0.014609545469284058
1761132308452399600,3.685399658203125,0.04470234364271164,-0.002808245597407222,-0.012546438723802567
1761132308472247600,3.70524755859375,0.023383138701319695,-0.009423168376088142,-0.00899068545550108
1761132308492095700,3.725095703125,0.021284759044647217,-0.010968616232275963,0.03208002820611
1761132308511944000,3.74494384765625,0.017389142885804176,-0.002425275044515729,0.024426782503724098
1761132308531790800,3.764790771484375,0.002058141864836216,0.004507027566432953,-0.010783526115119457
1761132308551638500,3.784638427734375,0.003153124125674367,0.004776434972882271,-0.025798184797167778
1761132308571486700,3.80448681640625,0.003396068001165986,-0.0012007137993350625,-0.014491927810013294
1761132308591335000,3.8243349609375,0.010621640831232071,-0.004648766480386257,0.005143320187926292
1761132308611181800,3.844181884765625,0.014466076157987118,-0.0022643255069851875,-0.007442589849233627
1761132308631029500,3.864029541015625,0.014137129299342632,-0.003906751982867718,-0.005088306963443756
1761132308650877700,3.883877685546875,0.013026924803853035,0.0029821055941283703,-0.0025885887444019318
1761132308670725600,3.9037255859375,0.022982003167271614,-0.009281530976295471,0.02028004638850689
1761132308690572800,3.92357275390625,0.02950509451329708,-0.023025330156087875,0.032643336802721024
1761132308710420700,3.943420654296875,0.029044734314084053,-0.020570723339915276,0.022709043696522713
1761132308730268700,3.9632685546875,0.028689606115221977,-0.010522015392780304,0.0039061573334038258
1761132308750116600,3.98311669921875,0.04151932895183563,0.0000012780074030160904,-0.01208813488483429
1761132308769963800,4.0029638671875,0.047906044870615005,0.007753975689411163,-0.024794800207018852
1761132308789810700,4.022810791015625,0.05110864341259003,-0.001058647409081459,-0.02159826084971428
1761132308809657900,4.042657958984375,0.05173954740166664,-0.010317659936845303,-0.002024292014539242
1761132308829505800,4.062505859375,0.05527953431010246,-0.027787622064352036,0.02454795502126217
1761132308849353700,4.082353759765625,0.04435419291257858,-0.019505489617586136,0.02052653394639492
1761132308869201700,4.10220166015625,0.03307459503412247,-0.011876392178237438,0.003965447656810284
1761132308889048800,4.122048828125,0.028926802799105644,-0.0027386751025915146,0.0009616203606128693
1761132308908896800,4.141896728515625,0.013271069154143333,0.004246782045811415,0.008006456308066845
1761132308928744700,4.16174462890625,0.008015614934265614,0.0035774901043623686,-0.0046410891227424145
1761132308948592600,4.181592529296875,-0.0037274654023349285,0.018372880294919014,-0.031033912673592567
1761132308968439800,4.201439697265625,-0.006342956330627203,0.0224326029419899,-0.01799587532877922
1761132308988287700,4.221287841796875,-0.0031175189651548862,0.016077648848295212,0.004869978874921799
1761132309008136000,4.241135986328125,0.004024612717330456,0.0032815823797136545,-0.00018487032502889633
1761132309027984000,4.26098388671875,0.012592789717018604,0.0023303318303078413,-0.0021901815198361874
1761132309047831000,4.2808310546875,0.02291957288980484,0.0026364366058260202,0.00230632396414876
1761132309067679000,4.300678955078125,0.03802895545959473,-0.006791473366320133,0.0018913298845291138
1761132309087527000,4.32052685546875,0.03923632949590683,-0.015587869100272655,0.0010419506579637527
1761132309107374800,4.340374755859375,0.04043000563979149,-0.0142122907564044,0.00439535453915596
1761132309127223000,4.36022314453125,0.04206814616918564,-0.015766898170113564,0.02095121704041958
1761132309147070000,4.380070068359375,0.03457524627447128,-0.013813761994242668,0.028964783996343613
1761132309166918100,4.399918212890625,0.023415157571434975,-0.009777524508535862,0.012666535563766956
1761132309186765800,4.419765869140625,0.014387760311365128,-0.0030093062669038773,-0.004959336947649717
1761132309206615000,4.439614990234375,0.0026223009917885065,-0.007166162598878145,-0.01884188875555992
1761132309226462700,4.459462646484375,0.009947353042662144,-0.017339743673801422,-0.017315026372671127
1761132309246310000,4.479309814453125,0.018684782087802887,-0.006816325709223747,-0.0006357436068356037
1761132309266157800,4.49915771484375,0.018324008211493492,-0.0007165705319494009,0.007538760546594858
1761132309286006000,4.519006103515625,0.015242919325828552,-0.006515263579785824,-0.009551280178129673
1761132309305854000,4.53885400390625,0.010047202929854393,0.00029028370045125484,-0.022780776023864746
1761132309325702000,4.558701904296875,0.01610731892287731,-0.005353204905986786,-0.016860153526067734
1761132309345548800,4.578548828125,0.014232011511921883,-0.004552554339170456,0.0038266489282250404
1761132309365397000,4.59839697265625,0.00930577889084816,-0.00592899601906538,0.012257102876901627
1761132309385245000,4.618244873046875,0.0088723786175251,-0.004584816750138998,0.012883969582617283
1761132309405092900,4.6380927734375,0.0004284986644051969,0.017286287620663643,0.0014841803349554539
1761132309424939800,4.657939697265625,-0.00495121581479907,0.015635192394256592,-0.002528840210288763
1761132309444788000,4.6777880859375,0.0016498989425599575,-0.007578030228614807,0.017120156437158585
1761132309464636000,4.697635986328125,0.0013777969870716333,-0.018904540687799454,0.029391737654805183
1761132309484483800,4.71748388671875,-0.0016619630623608828,-0.031517233699560165,0.020365677773952484
1761132309504330800,4.737330810546875,-0.011156858876347542,-0.0192890502512455,0.0072752004489302635
1761132309524179000,4.757178955078125,-0.012255283072590828,0.007717467844486237,0.0038827690295875072
1761132309544027000,4.77702685546875,-0.009133055806159973,-0.003455600468441844,0.027115581557154655
1761132309563875000,4.796875,-0.007264371495693922,-0.01475381851196289,0.030889378860592842
1761132309583722000,4.816721923828125,-0.009905511513352394,-0.05044032633304596,0.013824156485497952
1761132309603570000,4.83656982421875,0.009168202988803387,-0.014080027118325233,0.013196690008044243
1761132309623417900,4.85641796875,0.013172156177461147,-0.024205738678574562,0.009281819686293602
1761132309643266000,4.87626611328125,0.01089014858007431,-0.018824102357029915,0.0031716080848127604
1761132309663113000,4.896113037109375,0.005534613970667124,-0.008866396732628345,0.010481404140591621
1761132309682961000,4.9159609375,0.00960508268326521,-0.0075682587921619415,-0.0066132573410868645
1761132309702808800,4.935808837890625,0.018534928560256958,-0.02103479951620102,-0.02799045294523239
1761132309722657000,4.955656982421875,0.017353905364871025,-0.024778131395578384,-0.04706945642828941
1761132309742504000,4.97550390625,0.012719731777906418,-0.015309657901525497,-0.02425914630293846
1761132309762351900,4.995351806640625,-0.003974312916398048,-0.003326062811538577,0.005517513956874609
1761132309782199800,5.01519970703125,-0.007821349427103996,-0.0016463802894577384,-0.0033833994530141354
1761132309802048000,5.035048095703125,-0.0019459284376353025,-0.006150801666080952,0.02853359468281269
1761132309821895000,5.05489501953125,-0.00688581820577383,0.005859380587935448,0.08505645394325256
1761132309841743000,5.0747431640625,-0.014737971127033234,0.011795032769441605,0.07435199618339539
1761132309861590800,5.0945908203125,-0.009852542541921139,-0.00275825010612607,-0.0021876399405300617
1761132309881439000,5.11443896484375,0.002052412135526538,-0.0065374309197068214,-0.062006860971450806
1761132309901286000,5.134285888671875,-0.0013809542870149016,0.0024410525802522898,-0.06316681206226349
1761132309921134000,5.154134033203125,-0.004748043604195118,-0.0037634994369000196,-0.04152131825685501
1761132309940981800,5.173981689453125,-0.008625584654510021,-0.018329385668039322,-0.020465709269046783
1761132309960830000,5.193829833984375,-0.01660088077187538,-0.01611778326332569,-0.014950258657336235
1761132309980676900,5.2136767578125,-0.025486325845122337,-0.011872459203004837,-0.021098989993333817
1761132310000525000,5.233525146484375,-0.02163841761648655,-0.009600630030035973,-0.0317576639354229
1761132310020373000,5.253373046875,-0.021356260403990746,-0.01266599539667368,-0.020187657326459885
1761132310040221000,5.273220947265625,-0.01820489577949047,-0.01508541963994503,-0.0027834144420921803
1761132310060067800,5.29306787109375,-0.013491412624716759,-0.0040101888589560986,-0.014583300799131393
1761132310079916000,5.312916015625,-0.009563415311276913,-0.0013435897417366505,-0.03670927509665489
1761132310099764000,5.332763916015625,0.004374780226498842,0.003668077290058136,-0.04170650616288185
1761132310119612000,5.35261181640625,0.005102878902107477,0.012243591248989105,-0.0330202654004097
1761132310139458800,5.372458740234375,0.0048502059653401375,0.008316067978739738,-0.002254236489534378
1761132310159307000,5.39230712890625,0.005308705847710371,-0.0023874694015830755,0.013112052343785763
1761132310179155000,5.412155029296875,0.002560911700129509,-0.005564599297940731,-0.00644976319745183
1761132310199003000,5.4320029296875,-0.005003585480153561,-0.005306189879775047,-0.009250488132238388
1761132310218849800,5.451849853515625,-0.0069342670030891895,-0.013286879286170006,0.008186561055481434
1761132310238698000,5.471697998046875,-0.005052028223872185,-0.01482606865465641,0.020307186990976334
1761132310258546000,5.4915458984375,-0.006842260714620352,-0.003906763158738613,0.005802934058010578
1761132310278393900,5.511393798828125,-0.009175099432468414,0.011698402464389801,-0.013910681940615177
1761132310298241000,5.531240966796875,-0.0017662859754636884,0.014291013590991497,-0.03422830253839493
1761132310318089000,5.5510888671875,0.005508294329047203,0.005194881930947304,-0.04785811901092529
1761132310337937000,5.57093701171875,0.014622090384364128,0.00725535536184907,-0.026362966746091843
1761132310357785000,5.59078515625,0.019653573632240295,0.004731250926852226,-0.005829270929098129
1761132310377632800,5.6106328125,0.01908627524971962,0.0067709144204854965,0.011452563107013702
1761132310397480000,5.63047998046875,0.02353277988731861,0.003220495069399476,0.009014341048896313
1761132310417327900,5.650327880859375,0.023371843621134758,0.0015390969347208738,-0.013875480741262436
1761132310437176000,5.670176025390625,0.02213382162153721,-0.0020624175667762756,-0.014459026046097279
1761132310457023000,5.69002294921875,0.016230393201112747,-0.006364754401147366,0.006044650450348854
1761132310476871000,5.709870849609375,0.014189844019711018,-0.00861174613237381,0.022800462320446968
1761132310496718800,5.72971875,0.007183872628957033,-0.004172665998339653,0.03063380904495716
1761132310516567000,5.749567138671875,-0.004364548716694117,0.00401719193905592,0.010007118806242943
1761132310536415000,5.7694150390625,-0.0014254290144890547,0.013192765414714813,0.00006142305210232735
1761132310556262100,5.78926220703125,0.0008740269695408642,0.01727420836687088,-0.01428161095827818
1761132310576109800,5.80910986328125,-0.0014872143510729074,0.018046909943223,-0.006005790550261736
1761132310595958000,5.8289580078125,0.011737804859876633,0.003660740563645959,0.024465370923280716
1761132310615806000,5.848805908203125,0.022330887615680695,-0.002404225757345557,0.03603804111480713
1761132310635653000,5.868653076171875,0.02085314877331257,-0.002503230469301343,0.01740598864853382
1761132310655500800,5.888500732421875,0.012863165698945522,-0.006718137301504612,-0.021448999643325806
1761132310675349000,5.908348876953125,0.0070372074842453,-0.014656978659331799,-0.022429917007684708
1761132310695197000,5.928197021484375,0.0010512478183954954,-0.010740576311945915,0.012186190113425255
1761132310715044000,5.948044189453125,-0.00791835319250822,-0.011407449841499329,0.02064037136733532
1761132310734891800,5.967891845703125,-0.01107181515544653,-0.01707383245229721,0.011482707224786282
1761132310754740000,5.987739990234375,-0.01775633729994297,-0.014345182105898857,-0.001121915876865387
1761132310774588000,6.007587890625,-0.02663782238960266,0.008194909431040287,-0.011601212434470654
1761132310794435000,6.02743505859375,-0.029578760266304016,0.023290274664759636,-0.019400496035814285
1761132310814283000,6.047282958984375,-0.0335286408662796,0.02600357122719288,-0.02923504263162613
1761132310834131000,6.067130859375,-0.029571285471320152,0.018283626064658165,-0.03400619328022003
1761132310853979000,6.086978759765625,-0.03145779296755791,0.005428828299045563,0.009026252664625645
1761132310873826000,6.106825927734375,-0.026456357911229134,-0.0021964991465210915,0.06015509366989136
1761132310893674000,6.126674072265625,-0.034881506115198135,-0.025587882846593857,0.08719503879547119
1761132310913522000,6.14652197265625,-0.03437725454568863,-0.056360211223363876,0.06515094637870789
1761132310933369900,6.166369873046875,-0.03733232244849205,-0.057824645191431046,0.043051961809396744
1761132310953217000,6.186217041015625,-0.02834545075893402,-0.04348369315266609,0.039992257952690125
1761132310973065000,6.20606494140625,-0.021635809913277626,0.00484203826636076,0.019896598532795906
1761132310992913000,6.225912841796875,-0.021677875891327858,0.0024275886826217175,-0.01612083800137043
1761132311012761300,6.24576123046875,-0.019332442432641983,0.02149265445768833,-0.08654621988534927
1761132311032608300,6.265608154296875,-0.018628310412168503,0.027035361155867577,-0.0783233717083931
