time,seconds_elapsed,z,y,x
1761132133394454300,0.120454345703125,0.00022907447419129312,0.0006108652451075613,0.0007635815418325365
1761132133404454400,0.130454345703125,0.00022907447419129312,0.0006108652451075613,0.0007635815418325365
1761132133414433300,0.140433349609375,0.00022907447419129312,0.0006108652451075613,0.0007635815418325365
1761132133424433400,0.150433349609375,0.00022907447419129312,0.0006108652451075613,0.0007635815418325365
1761132133434433300,0.160433349609375,0.000839939690195024,-0.001832595793530345,0.00015271631127689034
1761132133444433400,0.170433349609375,-0.00038179077091626823,-0.0006108652451075613,0.0007635815418325365
1761132133454433300,0.180433349609375,0.00022907447419129312,-0.0006108652451075613,-0.0010690141934901476
1761132133464433400,0.190433349609375,-0.00038179077091626823,0.0012217304902151227,0.0007635815418325365
1761132133474433300,0.200433349609375,-0.00038179077091626823,0.0006108652451075613,-0.00045814894838258624
1761132133484433400,0.210433349609375,0.00022907447419129312,0,-0.00045814894838258624
1761132133494433300,0.220433349609375,-0.00038179077091626823,0,0.00015271631127689034
1761132133504433400,0.230433349609375,0.000839939690195024,-0.0012217304902151227,0.0013744467869400978
1761132133514433300,0.240433349609375,-0.00038179077091626823,0.0006108652451075613,0.00015271631127689034
1761132133524433400,0.250433349609375,0.00022907447419129312,0,0.0007635815418325365
1761132133534433300,0.260433349609375,0.00022907447419129312,0.0012217304902151227,0.0007635815418325365
1761132133544433400,0.270433349609375,-0.00038179077091626823,-0.0006108652451075613,0.00015271631127689034
1761132133554433300,0.280433349609375,-0.0009926559869199991,-0.0012217304902151227,-0.00045814894838258624
1761132133564433400,0.290433349609375,-0.0016035212902352214,-0.0006108652451075613,-0.00045814894838258624
1761132133574433500,0.30043359375,0.00022907447419129312,0,-0.00045814894838258624
1761132133584433400,0.310433349609375,0.000839939690195024,0.0012217304902151227,0.00015271631127689034
1761132133594433500,0.32043359375,0.000839939690195024,0,0.00015271631127689034
1761132133604433400,0.330433349609375,0.00022907447419129312,0,0.00015271631127689034
1761132133614432300,0.340432373046875,0.00022907447419129312,0,-0.00045814894838258624
1761132133624432400,0.350432373046875,-0.0009926559869199991,-0.0006108652451075613,-0.00045814894838258624
1761132133634432300,0.360432373046875,0.00022907447419129312,0.0012217304902151227,0.00015271631127689034
1761132133644432400,0.370432373046875,-0.00038179077091626823,0.0006108652451075613,-0.00045814894838258624
1761132133654432300,0.380432373046875,0.000839939690195024,-0.0012217304902151227,0.00015271631127689034
1761132133664432400,0.390432373046875,-0.00038179077091626823,0,0.0007635815418325365
1761132133674432300,0.400432373046875,0.00022907447419129312,0.0012217304902151227,0.00015271631127689034
1761132133684432400,0.410432373046875,-0.00038179077091626823,0,-0.00045814894838258624
1761132133694432300,0.420432373046875,-0.0009926559869199991,0,0.00015271631127689034
1761132133704432400,0.430432373046875,-0.00038179077091626823,0,-0.00045814894838258624
1761132133714433000,0.44043310546875,-0.0009926559869199991,0,-0.0010690141934901476
1761132133724433000,0.450432861328125,0.00022907447419129312,0,-0.00045814894838258624
1761132133734433000,0.46043310546875,0.00022907447419129312,-0.0006108652451075613,0.0007635815418325365
1761132133744433000,0.470432861328125,0.00022907447419129312,0.0006108652451075613,0.0007635815418325365
1761132133754433000,0.48043310546875,0.000839939690195024,0,0.0007635815418325365
1761132133764433000,0.490432861328125,0.000839939690195024,0.0006108652451075613,0.0007635815418325365
1761132133774433000,0.50043310546875,-0.00038179077091626823,0,-0.00045814894838258624
1761132133784433200,0.51043310546875,-0.0009926559869199991,0,-0.001679879380390048
1761132133794433000,0.52043310546875,0.00022907447419129312,0,-0.0022907445672899485
1761132133804433000,0.530432861328125,0.00022907447419129312,-0.0006108652451075613,0.0007635815418325365
1761132133814432300,0.540432373046875,-0.0009926559869199991,-0.0006108652451075613,0.0007635815418325365
1761132133824432000,0.55043212890625,0.00022907447419129312,0.0006108652451075613,0.0019853119738399982
1761132133834432300,0.560432373046875,0.00022907447419129312,-0.0012217304902151227,-0.0010690141934901476
1761132133844432100,0.57043212890625,0.00022907447419129312,-0.001832595793530345,-0.00045814894838258624
1761132133854432300,0.580432373046875,-0.00038179077091626823,0,0.00015271631127689034
1761132133864432000,0.59043212890625,-0.00038179077091626823,0,-0.00045814894838258624
1761132133874432300,0.600432373046875,0.00022907447419129312,0.0006108652451075613,0.0013744467869400978
1761132133884432100,0.61043212890625,0.00022907447419129312,0,0.0007635815418325365
1761132133894432300,0.620432373046875,-0.00038179077091626823,-0.0006108652451075613,0.00015271631127689034
1761132133904432000,0.63043212890625,0.0014508049935102463,-0.0012217304902151227,0.0007635815418325365
1761132133914433000,0.64043310546875,0.0014508049935102463,-0.0006108652451075613,-0.00045814894838258624
1761132133924433000,0.650432861328125,0.00022907447419129312,-0.0012217304902151227,-0.0010690141934901476
1761132133934433000,0.66043310546875,-0.00038179077091626823,0.0006108652451075613,0.00015271631127689034
1761132133944433000,0.670432861328125,-0.00038179077091626823,0,-0.00045814894838258624
1761132133954433000,0.68043310546875,0.00022907447419129312,0,-0.001679879380390048
1761132133964433000,0.690432861328125,0.000839939690195024,-0.0006108652451075613,-0.00045814894838258624
1761132133974433000,0.70043310546875,0.00022907447419129312,-0.0006108652451075613,0.00015271631127689034
1761132133984433000,0.710432861328125,-0.0009926559869199991,0,0.00015271631127689034
1761132133994433000,0.72043310546875,-0.0009926559869199991,0,0.00015271631127689034
1761132134004433200,0.73043310546875,0.000839939690195024,0.0006108652451075613,0.0007635815418325365
1761132134014432300,0.740432373046875,-0.00038179077091626823,0.0006108652451075613,-0.00045814894838258624
1761132134024432000,0.75043212890625,-0.00038179077091626823,0.0006108652451075613,0.00015271631127689034
1761132134034432300,0.760432373046875,0.00022907447419129312,0.0012217304902151227,-0.00045814894838258624
1761132134044432100,0.77043212890625,-0.00038179077091626823,-0.0006108652451075613,-0.0010690141934901476
1761132134054432300,0.780432373046875,0.00022907447419129312,-0.0006108652451075613,0.00015271631127689034
1761132134064432000,0.79043212890625,0.00022907447419129312,0.0006108652451075613,0.0013744467869400978
1761132134074432000,0.800431884765625,0.00022907447419129312,0,-0.00045814894838258624
1761132134084432100,0.81043212890625,0.00022907447419129312,-0.0006108652451075613,0.00015271631127689034
1761132134094432300,0.820432373046875,-0.00038179077091626823,0,0.0007635815418325365
1761132134104432000,0.83043212890625,-0.00038179077091626823,0,0.00015271631127689034
1761132134114433000,0.84043310546875,0.0014508049935102463,0,0.00015271631127689034
1761132134124433000,0.850432861328125,0.00022907447419129312,0,0.00015271631127689034
1761132134134433000,0.86043310546875,0.000839939690195024,0.0006108652451075613,0.00015271631127689034
1761132134144433000,0.870432861328125,-0.00038179077091626823,-0.0006108652451075613,0.00015271631127689034
1761132134154433000,0.88043310546875,-0.0009926559869199991,0,0.0007635815418325365
1761132134164433000,0.890432861328125,0.00022907447419129312,0,0.00015271631127689034
1761132134174433000,0.90043310546875,-0.00038179077091626823,0.0006108652451075613,0.0007635815418325365
1761132134184433000,0.910432861328125,-0.00038179077091626823,0.0012217304902151227,-0.00045814894838258624
1761132134194433000,0.92043310546875,-0.0009926559869199991,0,-0.00045814894838258624
1761132134204433000,0.930432861328125,-0.0009926559869199991,0,-0.00045814894838258624
1761132134214432000,0.940431884765625,0.00022907447419129312,0.0006108652451075613,0.0007635815418325365
1761132134224432000,0.95043212890625,-0.0009926559869199991,-0.0012217304902151227,-0.0010690141934901476
1761132134234432000,0.960431884765625,-0.0009926559869199991,-0.0012217304902151227,0.00015271631127689034
1761132134244432100,0.97043212890625,-0.0009926559869199991,-0.001832595793530345,0.00015271631127689034
1761132134254432000,0.980431884765625,-0.00038179077091626823,-0.0006108652451075613,-0.00045814894838258624
1761132134264432000,0.99043212890625,-0.0009926559869199991,-0.0006108652451075613,-0.0010690141934901476
1761132134274432000,1.000431884765625,-0.0016035212902352214,-0.0012217304902151227,-0.00045814894838258624
1761132134284432100,1.01043212890625,0.00022907447419129312,0,-0.0010690141934901476
1761132134294432000,1.020431884765625,-0.00038179077091626823,-0.0012217304902151227,0.0007635815418325365
1761132134304432000,1.03043212890625,0.000839939690195024,0.0012217304902151227,0.00015271631127689034
1761132134314433000,1.04043310546875,-0.0009926559869199991,-0.0006108652451075613,0.0007635815418325365
1761132134324433000,1.050432861328125,-0.0009926559869199991,0.0006108652451075613,0.0007635815418325365
1761132134334433000,1.06043310546875,0.000839939690195024,-0.0006108652451075613,-0.00045814894838258624
1761132134344433000,1.070432861328125,-0.00038179077091626823,0.0006108652451075613,0.00015271631127689034
1761132134354433000,1.08043310546875,0.00022907447419129312,0.0024434609804302454,0.00015271631127689034
1761132134364433000,1.090432861328125,-0.00038179077091626823,-0.0006108652451075613,0.00015271631127689034
1761132134374433000,1.10043310546875,0.00022907447419129312,-0.0012217304902151227,-0.0010690141934901476
1761132134384433000,1.110432861328125,-0.00038179077091626823,-0.0012217304902151227,-0.00045814894838258624
1761132134394433000,1.12043310546875,0.000839939690195024,-0.0006108652451075613,0.00015271631127689034
1761132134404433000,1.130432861328125,0.000839939690195024,-0.0006108652451075613,0.0007635815418325365
1761132134414432000,1.140431884765625,0.00022907447419129312,0,0.0025961773935705423
1761132134434432000,1.160431884765625,0.00022907447419129312,-0.0012217304902151227,-0.00045814894838258624
1761132134444432100,1.17043212890625,0.00022907447419129312,0.001832595793530345,0.0019853119738399982
1761132134454432000,1.180431884765625,-0.0009926559869199991,-0.0006108652451075613,0.00015271631127689034
1761132134464432000,1.19043212890625,0.00022907447419129312,-0.0012217304902151227,0.00015271631127689034
1761132134474432000,1.200431884765625,-0.00038179077091626823,0,0.0007635815418325365
1761132134484432100,1.21043212890625,0.00022907447419129312,-0.001832595793530345,0.0013744467869400978
1761132134494432000,1.220431884765625,-0.00038179077091626823,-0.0006108652451075613,0.00015271631127689034
1761132134504432000,1.23043212890625,0.000839939690195024,-0.0006108652451075613,0.00015271631127689034
1761132134514433000,1.24043310546875,0.00022907447419129312,-0.0006108652451075613,0.00015271631127689034
1761132134524433000,1.250432861328125,0.00022907447419129312,-0.001832595793530345,-0.001679879380390048
1761132134534433000,1.26043310546875,-0.0016035212902352214,-0.001832595793530345,-0.001679879380390048
1761132134544433000,1.270432861328125,-0.00038179077091626823,-0.003054326167330146,-0.0010690141934901476
1761132134554433000,1.28043310546875,0.00022907447419129312,-0.0012217304902151227,-0.0010690141934901476
1761132134564433000,1.290432861328125,0.000839939690195024,-0.0012217304902151227,-0.001679879380390048
1761132134574433000,1.30043310546875,0.000839939690195024,-0.001832595793530345,-0.0010690141934901476
1761132134584433000,1.310432861328125,0.0014508049935102463,-0.0006108652451075613,0.00015271631127689034
1761132134594433000,1.32043310546875,0.00022907447419129312,-0.0006108652451075613,0.00015271631127689034
1761132134604433000,1.330432861328125,-0.0009926559869199991,0,-0.00045814894838258624
1761132134614432000,1.340431884765625,0.0014508049935102463,0,-0.001679879380390048
1761132134624432000,1.35043212890625,0.00022907447419129312,-0.0006108652451075613,-0.001679879380390048
1761132134634432000,1.360431884765625,-0.00038179077091626823,-0.0012217304902151227,-0.001679879380390048
1761132134644431600,1.370431640625,0.00022907447419129312,0.0006108652451075613,-0.001679879380390048
1761132134654431700,1.380431640625,-0.00038179077091626823,0,-0.00045814894838258624
1761132134664431600,1.390431640625,0.0014508049935102463,0.0006108652451075613,-0.00045814894838258624
1761132134674431700,1.400431640625,0.000839939690195024,0.0006108652451075613,0.0007635815418325365
1761132134684431600,1.410431640625,0.000839939690195024,0.0006108652451075613,-0.0010690141934901476
1761132134694431700,1.420431640625,0.00022907447419129312,0.0012217304902151227,-0.00045814894838258624
1761132134704431600,1.430431640625,0.00022907447419129312,0.0012217304902151227,0.00015271631127689034
1761132134714432500,1.4404326171875,0.00022907447419129312,0.0012217304902151227,0.00015271631127689034
1761132134724432600,1.4504326171875,-0.00038179077091626823,0.0012217304902151227,0.0019853119738399982
1761132134734432500,1.4604326171875,0.00022907447419129312,0.0012217304902151227,0.0032070425804704428
1761132134744432600,1.4704326171875,0.00022907447419129312,0.003054326167330146,0.004428773187100887
1761132134754432500,1.4804326171875,0.00022907447419129312,0.006719517521560192,0.005650503560900688
1761132134764432600,1.4904326171875,0.0014508049935102463,0.01466076634824276,0.01542434748262167
1761132134774432800,1.500432861328125,-0.002825251780450344,-0.01710422709584236,-0.02122756652534008
1761132134784432600,1.5104326171875,-0.00038179077091626823,-0.00733038317412138,-0.026114489883184433
1761132134794432800,1.520432861328125,0.0020616701804101467,0.00427605677396059,0.013591751456260681
1761132134804432600,1.5304326171875,0.000839939690195024,0.006108652334660292,0.0007635815418325365
1761132134814431700,1.540431640625,-0.0009926559869199991,0.0006108652451075613,-0.004734205547720194
1761132134824431600,1.550431640625,-0.0016035212902352214,-0.005497787147760391,0.004428773187100887
1761132134834431700,1.560431640625,-0.00038179077091626823,-0.005497787147760391,0.00015271631127689034
1761132134844431600,1.570431640625,-0.0016035212902352214,0.00427605677396059,-0.0010690141934901476
1761132134854431700,1.580431640625,0.000839939690195024,0.003054326167330146,-0.0022907445672899485
1761132134864431400,1.590431396484375,0.000839939690195024,-0.0006108652451075613,-0.001679879380390048
1761132134877860900,1.60386083984375,0.00022907447419129312,-0.005497787147760391,0.004428773187100887
1761132134887861000,1.613861083984375,-0.00038179077091626823,-0.0006108652451075613,0.0019853119738399982
1761132134897860900,1.62386083984375,-0.00038179077091626823,0.0024434609804302454,-0.001679879380390048
1761132134907860700,1.63386083984375,-0.0009926559869199991,-0.0006108652451075613,-0.001679879380390048
1761132134917861600,1.643861572265625,-0.0009926559869199991,-0.0012217304902151227,0.0025961773935705423
1761132134927861800,1.65386181640625,0.00022907447419129312,0,0.0007635815418325365
1761132134937861600,1.663861572265625,0.0014508049935102463,0.003054326167330146,0.00015271631127689034
1761132134947862000,1.673862060546875,0.000839939690195024,-0.0012217304902151227,-0.0010690141934901476
1761132134957862100,1.683862060546875,-0.0009926559869199991,-0.0024434609804302454,0.0019853119738399982
1761132134967862000,1.693862060546875,-0.0009926559869199991,0,0.003817907767370343
1761132134977862100,1.703862060546875,0.000839939690195024,0.00366519158706069,0.0019853119738399982
1761132134987862000,1.713862060546875,-0.0009926559869199991,0.0012217304902151227,0.0019853119738399982
1761132134997862100,1.723862060546875,0.00022907447419129312,0.0006108652451075613,0.004428773187100887
1761132135007862000,1.733862060546875,-0.0016035212902352214,0.00366519158706069,0.0032070425804704428
1761132135017861400,1.743861328125,-0.00038179077091626823,0.001832595793530345,0.0019853119738399982
1761132135027861200,1.753861328125,0.00022907447419129312,-0.00855211354792118,-0.012064588256180286
1761132135037861400,1.763861328125,0.000839939690195024,-0.004886921960860491,-0.005345070734620094
1761132135047861200,1.773861328125,-0.00038179077091626823,0,0.0025961773935705423
1761132135057861000,1.783861083984375,0.00022907447419129312,0.001832595793530345,0.00015271631127689034
1761132135067861200,1.793861328125,0.00022907447419129312,-0.0006108652451075613,-0.0010690141934901476
1761132135077861000,1.803861083984375,0.00022907447419129312,-0.0024434609804302454,0.0019853119738399982
1761132135087861200,1.813861328125,0.00022907447419129312,-0.0024434609804302454,0.00015271631127689034
1761132135097861000,1.823861083984375,0.000839939690195024,0.0024434609804302454,-0.001679879380390048
1761132135107861200,1.833861328125,0.000839939690195024,0.001832595793530345,-0.0029016099870204926
1761132135117862100,1.843862060546875,0.0020616701804101467,-0.003054326167330146,-0.001679879380390048
1761132135127862000,1.853862060546875,-0.00038179077091626823,-0.003054326167330146,0.0019853119738399982
1761132135137862100,1.863862060546875,-0.00038179077091626823,0.001832595793530345,0.0019853119738399982
1761132135147862000,1.873862060546875,-0.00038179077091626823,0.0012217304902151227,0.0007635815418325365
1761132135157862100,1.883862060546875,-0.00038179077091626823,0.0006108652451075613,-0.00045814894838258624
1761132135167862500,1.893862548828125,0.00022907447419129312,-0.0012217304902151227,0.00015271631127689034
1761132135177862700,1.903862548828125,-0.00038179077091626823,0,-0.00045814894838258624
1761132135187862500,1.913862548828125,-0.00038179077091626823,0.0006108652451075613,0.00015271631127689034
1761132135197862700,1.923862548828125,0.00022907447419129312,0,0.0019853119738399982
1761132135207862500,1.933862548828125,-0.0016035212902352214,0.0006108652451075613,0.005039638374000788
1761132135217862000,1.94386181640625,0.00022907447419129312,0.001832595793530345,0.004428773187100887
1761132135227861800,1.95386181640625,-0.00038179077091626823,0.00366519158706069,0.0025961773935705423
1761132135237862000,1.96386181640625,-0.00038179077091626823,0.004886921960860491,0.006872233934700489
1761132135247861800,1.97386181640625,-0.0009926559869199991,-0.00427605677396059,-0.0010690141934901476
1761132135257862000,1.98386181640625,0.00022907447419129312,-0.009773843921720982,-0.019394971430301666
1761132135267861800,1.99386181640625,0.000839939690195024,0.001832595793530345,0.0019853119738399982
1761132135277862000,2.00386181640625,0.00022907447419129312,0.001832595793530345,0.0007635815418325365
1761132135287861800,2.01386181640625,-0.0009926559869199991,0.001832595793530345,-0.001679879380390048
1761132135297862000,2.02386181640625,-0.00038179077091626823,-0.001832595793530345,0.0007635815418325365
1761132135307861800,2.03386181640625,-0.00038179077091626823,-0.0024434609804302454,0.0019853119738399982
1761132135317862700,2.043862548828125,0.00022907447419129312,-0.001832595793530345,-0.0029016099870204926
1761132135337862700,2.063862548828125,0.000839939690195024,-0.0006108652451075613,-0.001679879380390048
1761132135347862500,2.073862548828125,-0.0009926559869199991,-0.001832595793530345,-0.0010690141934901476
1761132135357862700,2.083862548828125,-0.00038179077091626823,-0.0012217304902151227,0.0025961773935705423
1761132135367862500,2.093862548828125,-0.0016035212902352214,0.0012217304902151227,0.00015271631127689034
1761132135377862700,2.103862548828125,0.00022907447419129312,-0.0006108652451075613,-0.0010690141934901476
1761132135387862500,2.113862548828125,0.00022907447419129312,0,0.0007635815418325365
1761132135397862700,2.123862548828125,-0.00038179077091626823,0,0.0013744467869400978
1761132135407862500,2.133862548828125,0.00022907447419129312,0.0006108652451075613,-0.001679879380390048
1761132135417862000,2.14386181640625,0.00022907447419129312,0,0.00015271631127689034
1761132135427861800,2.15386181640625,-0.00038179077091626823,0,0.0025961773935705423
1761132135437861600,2.163861572265625,0.00022907447419129312,0.0024434609804302454,0.005039638374000788
1761132135447861800,2.17386181640625,-0.00038179077091626823,0.00366519158706069,0.0025961773935705423
1761132135457861600,2.183861572265625,-0.00038179077091626823,0.0024434609804302454,0.0019853119738399982
1761132135467861800,2.19386181640625,-0.0009926559869199991,-0.006108652334660292,-0.005345070734620094
1761132135477861600,2.203861572265625,0.000839939690195024,-0.005497787147760391,-0.008399397134780884
1761132135487861800,2.21386181640625,0.00022907447419129312,0.0006108652451075613,0.0013744467869400978
1761132135497861600,2.223861572265625,-0.00038179077091626823,0.0024434609804302454,0.0013744467869400978
1761132135507861800,2.23386181640625,-0.0022143865935504436,-0.0006108652451075613,0.0007635815418325365
1761132135517862400,2.2438623046875,-0.0009926559869199991,-0.0024434609804302454,0.0013744467869400978
1761132135527862500,2.253862548828125,0.000839939690195024,-0.0006108652451075613,-0.00045814894838258624
1761132135537862400,2.2638623046875,0.000839939690195024,0.0006108652451075613,-0.0022907445672899485
1761132135547862500,2.273862548828125,-0.00038179077091626823,0.0006108652451075613,-0.004123340360820293
1761132135557862400,2.2838623046875,0.00022907447419129312,-0.0012217304902151227,-0.001679879380390048
1761132135567862500,2.293862548828125,-0.0009926559869199991,-0.0012217304902151227,-0.00045814894838258624
1761132135577862400,2.3038623046875,-0.0009926559869199991,0.0006108652451075613,0.0013744467869400978
1761132135587862500,2.313862548828125,-0.00038179077091626823,0.0006108652451075613,0.00015271631127689034
1761132135597862400,2.3238623046875,0.00022907447419129312,0,-0.001679879380390048
1761132135607862500,2.333862548828125,-0.0016035212902352214,-0.0006108652451075613,-0.00045814894838258624
1761132135617861600,2.343861572265625,0.00022907447419129312,0,0.0007635815418325365
1761132135627861800,2.35386181640625,0.00022907447419129312,0.0012217304902151227,-0.0010690141934901476
1761132135637861600,2.363861572265625,0.000839939690195024,0,0.00015271631127689034
1761132135647861800,2.37386181640625,0.00022907447419129312,0.0012217304902151227,0.003817907767370343
1761132135657861600,2.383861572265625,-0.00038179077091626823,0.001832595793530345,0.003817907767370343
1761132135667861800,2.39386181640625,-0.0009926559869199991,0.006719517521560192,0.003817907767370343
1761132135677861600,2.403861572265625,-0.00038179077091626823,0.005497787147760391,0.01725694350898266
1761132135687861800,2.41386181640625,0.00022907447419129312,-0.015271631069481373,-0.026114489883184433
1761132135697861600,2.423861572265625,0.0014508049935102463,0.003054326167330146,0.0032070425804704428
1761132135707861500,2.433861572265625,0.0020616701804101467,0.005497787147760391,0.0007635815418325365
1761132135717862400,2.4438623046875,0.000839939690195024,0.0024434609804302454,-0.0010690141934901476
1761132135727862500,2.453862548828125,-0.0009926559869199991,-0.00366519158706069,0.0019853119738399982
1761132135737862400,2.4638623046875,0.000839939690195024,-0.00427605677396059,0.004428773187100887
1761132135747862500,2.473862548828125,0.00022907447419129312,-0.0012217304902151227,-0.0010690141934901476
1761132135757862400,2.4838623046875,0.000839939690195024,0.004886921960860491,-0.0029016099870204926
1761132135767862500,2.493862548828125,0.00022907447419129312,0,-0.00045814894838258624
1761132135777862400,2.5038623046875,-0.0009926559869199991,-0.0024434609804302454,0.00015271631127689034
1761132135787862500,2.513862548828125,0.000839939690195024,-0.0006108652451075613,0.0013744467869400978
1761132135797862400,2.5238623046875,0.00022907447419129312,0.00366519158706069,-0.00045814894838258624
1761132135807862500,2.533862548828125,-0.00038179077091626823,0,-0.001679879380390048
1761132135817861600,2.543861572265625,0.000839939690195024,-0.0012217304902151227,0.00015271631127689034
1761132135827861500,2.553861572265625,-0.00038179077091626823,-0.001832595793530345,0.0013744467869400978
1761132135837861600,2.563861572265625,0.00022907447419129312,0.0024434609804302454,0.00015271631127689034
1761132135847861500,2.573861572265625,0.00022907447419129312,0.0006108652451075613,-0.00045814894838258624
1761132135857861600,2.583861572265625,-0.00038179077091626823,-0.0012217304902151227,0.0007635815418325365
1761132135867861500,2.593861572265625,-0.0009926559869199991,0,0.003817907767370343
1761132135877861600,2.603861572265625,-0.00038179077091626823,0.00366519158706069,0.003817907767370343
1761132135887861500,2.613861572265625,-0.00038179077091626823,0.009773843921720982,0.0074830991216003895
1761132135897861600,2.623861572265625,-0.0016035212902352214,0.0006108652451075613,0.01237002108246088
1761132135907861500,2.633861572265625,-0.00038179077091626823,-0.013439035043120384,-0.021838432177901268
1761132135917862400,2.6438623046875,0.0014508049935102463,0.003054326167330146,0.0032070425804704428
1761132135927862500,2.653862548828125,0.0014508049935102463,0.004886921960860491,0.00015271631127689034
1761132135937862400,2.6638623046875,-0.00038179077091626823,0.0012217304902151227,-0.001679879380390048
1761132135947862500,2.673862548828125,-0.00038179077091626823,-0.0024434609804302454,0.0025961773935705423
1761132135957862400,2.6838623046875,0.000839939690195024,-0.00366519158706069,0.0019853119738399982
1761132135967862500,2.693862548828125,0.00022907447419129312,0.0012217304902151227,-0.00045814894838258624
1761132135977862400,2.7038623046875,0.000839939690195024,0.003054326167330146,-0.00045814894838258624
1761132135987862500,2.713862548828125,0.00022907447419129312,-0.001832595793530345,-0.00045814894838258624
1761132135997862700,2.723862548828125,-0.0009926559869199991,-0.001832595793530345,0.0032070425804704428
1761132136007862500,2.733862548828125,0.000839939690195024,0.0012217304902151227,-0.00045814894838258624
1761132136017861600,2.743861572265625,-0.00038179077091626823,0.0024434609804302454,-0.00045814894838258624
1761132136027861800,2.75386181640625,0.00022907447419129312,-0.0006108652451075613,-0.001679879380390048
1761132136037861600,2.763861572265625,-0.00038179077091626823,-0.0024434609804302454,0.00015271631127689034
1761132136047861800,2.77386181640625,0.00022907447419129312,-0.0006108652451075613,0.0007635815418325365
1761132136057861600,2.783861572265625,0.000839939690195024,0.003054326167330146,0.00015271631127689034
1761132136067861800,2.79386181640625,0.000839939690195024,0,-0.001679879380390048
1761132136077861600,2.803861572265625,-0.0009926559869199991,-0.001832595793530345,0.00015271631127689034
1761132136087861800,2.81386181640625,0.000839939690195024,0.0006108652451075613,0.0025961773935705423
1761132136097861600,2.823861572265625,-0.00038179077091626823,0.0024434609804302454,0.0019853119738399982
1761132136107861800,2.83386181640625,0.00022907447419129312,0.003054326167330146,0.0025961773935705423
1761132136117862400,2.8438623046875,-0.00038179077091626823,0.007941247895359993,0.014202617108821869
1761132136127862500,2.853862548828125,-0.0016035212902352214,-0.00427605677396059,0.005650503560900688
1761132136137862700,2.863862548828125,-0.00038179077091626823,-0.013439035043120384,-0.02367102913558483
1761132136147862500,2.873862548828125,0.0014508049935102463,0.0024434609804302454,0.0025961773935705423
1761132136157862700,2.883862548828125,0.00022907447419129312,0.004886921960860491,0.0007635815418325365
1761132136167862500,2.893862548828125,-0.00038179077091626823,0.0006108652451075613,-0.00045814894838258624
1761132136177862700,2.903862548828125,-0.0009926559869199991,-0.00366519158706069,0.003817907767370343
1761132136187862500,2.913862548828125,0.00022907447419129312,-0.00366519158706069,0.0007635815418325365
1761132136197862400,2.9238623046875,0.0014508049935102463,0.001832595793530345,0.0007635815418325365
1761132136207862500,2.933862548828125,0.0014508049935102463,0.00366519158706069,-0.0029016099870204926
1761132136217861600,2.943861572265625,0.000839939690195024,-0.0012217304902151227,-0.00045814894838258624
1761132136227861800,2.95386181640625,0.000839939690195024,-0.0006108652451075613,0.0019853119738399982
1761132136237861600,2.963861572265625,-0.0009926559869199991,0.0012217304902151227,0.0007635815418325365
1761132136247861800,2.97386181640625,0.00022907447419129312,0.0024434609804302454,-0.00045814894838258624
1761132136257861600,2.983861572265625,0.000839939690195024,-0.0006108652451075613,0.00015271631127689034
1761132136267861800,2.99386181640625,-0.00038179077091626823,-0.001832595793530345,-0.00045814894838258624
1761132136277861600,3.003861572265625,0.00022907447419129312,0,0.0007635815418325365
1761132136287861800,3.01386181640625,0.00022907447419129312,0.0006108652451075613,-0.00045814894838258624
1761132136297861600,3.023861572265625,0.00022907447419129312,-0.0006108652451075613,-0.0010690141934901476
1761132136307861800,3.03386181640625,-0.00038179077091626823,-0.0012217304902151227,0.0013744467869400978
1761132136317862400,3.0438623046875,0.000839939690195024,0.00733038317412138,0.0074830991216003895
1761132136327862500,3.053862548828125,-0.00038179077091626823,0.006108652334660292,0.016035212203860283
1761132136337862400,3.0638623046875,-0.0009926559869199991,-0.010995574295520782,-0.019394971430301666
1761132136347862500,3.073862548828125,0.00022907447419129312,-0.007941247895359993,-0.009010262787342072
1761132136357862400,3.0838623046875,0.000839939690195024,0.003054326167330146,0.0025961773935705423
1761132136367862500,3.093862548828125,0.00022907447419129312,0.004886921960860491,-0.001679879380390048
1761132136377862400,3.1038623046875,-0.0009926559869199991,-0.0024434609804302454,0.0032070425804704428
1761132136387862500,3.113862548828125,-0.00038179077091626823,-0.00366519158706069,0.0032070425804704428
1761132136397862400,3.1238623046875,0.0014508049935102463,-0.001832595793530345,-0.00045814894838258624
1761132136407862500,3.133862548828125,0.0014508049935102463,0.00427605677396059,-0.001679879380390048
1761132136417861600,3.143861572265625,0.0020616701804101467,0.0012217304902151227,-0.00045814894838258624
1761132136427861800,3.15386181640625,-0.0009926559869199991,-0.003054326167330146,0.0013744467869400978
1761132136437861600,3.163861572265625,-0.0009926559869199991,-0.0012217304902151227,0.0025961773935705423
1761132136447861500,3.173861572265625,0.000839939690195024,0.001832595793530345,-0.00045814894838258624
1761132136457861600,3.183861572265625,0.00022907447419129312,0,-0.0010690141934901476
1761132136467861500,3.193861572265625,0.00022907447419129312,-0.001832595793530345,0.00015271631127689034
1761132136477861600,3.203861572265625,-0.00038179077091626823,-0.00366519158706069,0.00015271631127689034
1761132136487861800,3.21386181640625,-0.00038179077091626823,0.0024434609804302454,0.0007635815418325365
1761132136497861600,3.223861572265625,0.000839939690195024,-0.0012217304902151227,-0.001679879380390048
1761132136507861800,3.23386181640625,0.000839939690195024,-0.001832595793530345,-0.0010690141934901476
1761132136517862400,3.2438623046875,-0.0016035212902352214,-0.0012217304902151227,0.00015271631127689034
1761132136527862500,3.253862548828125,-0.00038179077091626823,0.001832595793530345,0.0013744467869400978
1761132136537862400,3.2638623046875,0.00022907447419129312,0.001832595793530345,0.0007635815418325365
1761132136547862500,3.273862548828125,-0.00038179077091626823,0.001832595793530345,0.0025961773935705423
1761132136557862400,3.2838623046875,-0.0009926559869199991,0.01160643994808197,0.00931569468230009
1761132136567862500,3.293862548828125,0.000839939690195024,0,0.01970040425658226
1761132136577862400,3.3038623046875,-0.0009926559869199991,-0.015882495790719986,-0.03039054572582245
1761132136587862500,3.313862548828125,0.002672535367310047,-0.0012217304902151227,-0.005345070734620094
1761132136597862400,3.3238623046875,0.00022907447419129312,0.00366519158706069,0.0019853119738399982
1761132136607862500,3.333862548828125,-0.00038179077091626823,0.003054326167330146,-0.004734205547720194
1761132136617861600,3.343861572265625,0.000839939690195024,-0.00427605677396059,0.0013744467869400978
1761132136627861800,3.35386181640625,0.000839939690195024,-0.006108652334660292,0.0019853119738399982
1761132136637861600,3.363861572265625,0.00022907447419129312,0.0024434609804302454,0.0013744467869400978
1761132136647861800,3.37386181640625,0.00022907447419129312,0.005497787147760391,-0.00045814894838258624
1761132136657861600,3.383861572265625,-0.00038179077091626823,-0.0006108652451075613,-0.001679879380390048
1761132136667861800,3.39386181640625,-0.00038179077091626823,-0.00366519158706069,0.0013744467869400978
1761132136677861600,3.403861572265625,0.000839939690195024,0.001832595793530345,0.0025961773935705423
1761132136687861800,3.41386181640625,0.000839939690195024,0.004886921960860491,-0.00045814894838258624
1761132136697861600,3.423861572265625,0.00022907447419129312,0,-0.0010690141934901476
1761132136707861800,3.43386181640625,-0.00038179077091626823,-0.00366519158706069,0.0007635815418325365
1761132136717862400,3.4438623046875,0.000839939690195024,-0.0006108652451075613,0.0007635815418325365
1761132136727862500,3.453862548828125,-0.00038179077091626823,0.001832595793530345,0.0007635815418325365
1761132136737862400,3.4638623046875,0.000839939690195024,0.0006108652451075613,-0.001679879380390048
1761132136747862500,3.473862548828125,-0.0009926559869199991,0.0012217304902151227,-0.00045814894838258624
1761132136757862400,3.4838623046875,-0.0009926559869199991,0.01038470957428217,0.02519819140434265
1761132136767862500,3.493862548828125,-0.0022143865935504436,-0.009773843921720982,-0.013897184282541275
1761132136777862700,3.503862548828125,0.000839939690195024,-0.012828170321881771,-0.024892758578062057
1761132136787862500,3.513862548828125,0.0014508049935102463,0.005497787147760391,0.009926560334861279
1761132136797862700,3.523862548828125,0.00022907447419129312,0.0024434609804302454,0.00015271631127689034
1761132136807862500,3.533862548828125,-0.0009926559869199991,0.006719517521560192,-0.003512475173920393
1761132136817861600,3.543861572265625,-0.0009926559869199991,0.0006108652451075613,0.008704829961061478
1761132136827861800,3.55386181640625,-0.00038179077091626823,-0.006719517521560192,0.0025961773935705423
1761132136837861600,3.563861572265625,-0.0016035212902352214,0.00427605677396059,-0.003512475173920393
1761132136847861800,3.57386181640625,0.000839939690195024,0.0024434609804302454,-0.004123340360820293
1761132136857861600,3.583861572265625,-0.0009926559869199991,-0.0012217304902151227,0.00015271631127689034
1761132136867861800,3.59386181640625,0.000839939690195024,-0.00366519158706069,0.0025961773935705423
1761132136877861600,3.603861572265625,-0.0009926559869199991,0.0012217304902151227,-0.00045814894838258624
1761132136887861500,3.613861572265625,-0.00038179077091626823,0.001832595793530345,-0.0010690141934901476
1761132136897861600,3.623861572265625,0.000839939690195024,0,0.00015271631127689034
1761132136907861500,3.633861572265625,-0.0009926559869199991,-0.0024434609804302454,0.00015271631127689034
1761132136917862400,3.6438623046875,0.00022907447419129312,0.0012217304902151227,0.00015271631127689034
1761132136927862500,3.653862548828125,0.00022907447419129312,0.0012217304902151227,-0.001679879380390048
1761132136937862400,3.6638623046875,-0.0009926559869199991,-0.0012217304902151227,0.00015271631127689034
1761132136947862500,3.673862548828125,0.000839939690195024,-0.0012217304902151227,0.0013744467869400978
1761132136957862400,3.6838623046875,0.00022907447419129312,0.0006108652451075613,0.00015271631127689034
1761132136967862500,3.693862548828125,-0.00038179077091626823,0.0006108652451075613,-0.001679879380390048
1761132136977862400,3.7038623046875,0.00022907447419129312,0,-0.0010690141934901476
1761132136987862500,3.713862548828125,-0.00038179077091626823,-0.0006108652451075613,0.0025961773935705423
1761132136997862400,3.7238623046875,-0.00038179077091626823,0,-0.00045814894838258624
1761132137007862500,3.733862548828125,0.000839939690195024,0.0012217304902151227,-0.0010690141934901476
1761132137017861600,3.743861572265625,-0.00038179077091626823,0,0.0013744467869400978
1761132137027861800,3.75386181640625,-0.0016035212902352214,-0.0012217304902151227,0.0013744467869400978
1761132137037861600,3.763861572265625,-0.0009926559869199991,-0.0006108652451075613,-0.00045814894838258624
1761132137047861800,3.77386181640625,0.000839939690195024,0.0012217304902151227,0.00015271631127689034
1761132137057861600,3.783861572265625,0.000839939690195024,0.0006108652451075613,0.0013744467869400978
1761132137067861800,3.79386181640625,0.00022907447419129312,0,0.00015271631127689034
1761132137077861600,3.803861572265625,-0.00038179077091626823,0,0.0007635815418325365
1761132137087861500,3.813861572265625,0.000839939690195024,0.0006108652451075613,0.0007635815418325365
1761132137097861600,3.823861572265625,0.000839939690195024,0,0.00015271631127689034
1761132137107861500,3.833861572265625,0.00022907447419129312,0,0.00015271631127689034
1761132137117862400,3.8438623046875,0.000839939690195024,0.0006108652451075613,-0.00045814894838258624
1761132137127862500,3.853862548828125,-0.00038179077091626823,0,0.00015271631127689034
1761132137137862400,3.8638623046875,0.0014508049935102463,0,0.0007635815418325365
1761132137147862500,3.873862548828125,0.000839939690195024,0,0.00015271631127689034
1761132137157862400,3.8838623046875,0.000839939690195024,0,0.00015271631127689034
1761132137167862500,3.893862548828125,-0.00038179077091626823,0,0.00015271631127689034
1761132137177862400,3.9038623046875,-0.0009926559869199991,0.0012217304902151227,0.00015271631127689034
1761132137187862500,3.913862548828125,0.00022907447419129312,-0.0006108652451075613,0.00015271631127689034
1761132137197862400,3.9238623046875,0.00022907447419129312,0,0.00015271631127689034
1761132137207862500,3.933862548828125,0.00022907447419129312,0.0012217304902151227,0.0013744467869400978
1761132137217861600,3.943861572265625,0.00022907447419129312,0,0.00015271631127689034
1761132137227861800,3.95386181640625,0.0014508049935102463,0.0006108652451075613,0.00015271631127689034
1761132137237861600,3.963861572265625,-0.0009926559869199991,0,-0.00045814894838258624
1761132137247861800,3.97386181640625,-0.0009926559869199991,0.0006108652451075613,-0.001679879380390048
1761132137257861600,3.983861572265625,-0.00038179077091626823,0,-0.0010690141934901476
1761132137267861800,3.99386181640625,0.000839939690195024,0.0006108652451075613,-0.00045814894838258624
1761132137277861600,4.003861572265625,0.00022907447419129312,0,0.00015271631127689034
1761132137287861800,4.01386181640625,-0.00038179077091626823,-0.0012217304902151227,0.0007635815418325365
1761132137297861600,4.023861572265625,0.00022907447419129312,-0.0006108652451075613,0.00015271631127689034
1761132137307861500,4.033861572265625,-0.00038179077091626823,0,0.0007635815418325365
1761132137317862400,4.0438623046875,-0.00038179077091626823,0,0.0007635815418325365
1761132137327862500,4.053862548828125,0.00022907447419129312,-0.0006108652451075613,0.00015271631127689034
1761132137337862400,4.0638623046875,-0.0009926559869199991,-0.0006108652451075613,-0.00045814894838258624
1761132137347862500,4.073862548828125,-0.00038179077091626823,-0.0006108652451075613,-0.00045814894838258624
1761132137357862400,4.0838623046875,0.00022907447419129312,0,0.0007635815418325365
1761132137367862500,4.093862548828125,0.00022907447419129312,0.0012217304902151227,0.0007635815418325365
1761132137377862400,4.1038623046875,0.00022907447419129312,-0.0006108652451075613,0.0007635815418325365
1761132137387862500,4.113862548828125,-0.0009926559869199991,-0.0012217304902151227,0.0007635815418325365
1761132137397862400,4.1238623046875,0.000839939690195024,-0.0006108652451075613,-0.00045814894838258624
1761132137407862500,4.133862548828125,0.00022907447419129312,0.0006108652451075613,0.0007635815418325365
1761132137417861600,4.143861572265625,0.0014508049935102463,0.0012217304902151227,0.00015271631127689034
1761132137427861800,4.15386181640625,0.00022907447419129312,0.0012217304902151227,0.00015271631127689034
1761132137437861600,4.163861572265625,0.00022907447419129312,0,0.00015271631127689034
1761132137447861800,4.17386181640625,0.00022907447419129312,0,-0.00045814894838258624
1761132137457861600,4.183861572265625,-0.00038179077091626823,0,-0.00045814894838258624
1761132137467861500,4.193861572265625,0.00022907447419129312,0,-0.00045814894838258624
1761132137477861600,4.203861572265625,-0.00038179077091626823,-0.0012217304902151227,-0.00045814894838258624
1761132137487861800,4.21386181640625,0.00022907447419129312,0,0.00015271631127689034
1761132137497861600,4.223861572265625,0.00022907447419129312,-0.0006108652451075613,0.00015271631127689034
1761132137507861800,4.23386181640625,-0.00038179077091626823,-0.0006108652451075613,0.0007635815418325365
1761132137517862700,4.243862548828125,-0.0009926559869199991,0,0.0007635815418325365
1761132137527862500,4.253862548828125,-0.00038179077091626823,0.0012217304902151227,0.00015271631127689034
1761132137537862700,4.263862548828125,-0.00038179077091626823,0,-0.00045814894838258624
1761132137547862500,4.273862548828125,0.00022907447419129312,0,0.00015271631127689034
1761132137557862400,4.2838623046875,-0.0009926559869199991,0,-0.00045814894838258624
1761132137567862500,4.293862548828125,0.000839939690195024,0.0012217304902151227,0.00015271631127689034
1761132137577862700,4.303862548828125,0.0014508049935102463,-0.0006108652451075613,0.00015271631127689034
1761132137587862500,4.313862548828125,0.000839939690195024,-0.0006108652451075613,0.00015271631127689034
1761132137597862700,4.323862548828125,0.000839939690195024,0,-0.00045814894838258624
1761132137607862500,4.333862548828125,-0.00038179077091626823,-0.0012217304902151227,0.00015271631127689034
1761132137617861600,4.343861572265625,-0.00038179077091626823,0.0006108652451075613,-0.0010690141934901476
1761132137627861800,4.35386181640625,0.00022907447419129312,-0.0006108652451075613,-0.00045814894838258624
1761132137637861600,4.363861572265625,-0.00038179077091626823,0.0006108652451075613,-0.00045814894838258624
1761132137647861800,4.37386181640625,-0.0009926559869199991,0,0.00015271631127689034
1761132137657861600,4.383861572265625,-0.00038179077091626823,0,-0.00045814894838258624
1761132137667861800,4.39386181640625,-0.00038179077091626823,0,0.00015271631127689034
1761132137677861600,4.403861572265625,0.00022907447419129312,0,-0.00045814894838258624
1761132137687861800,4.41386181640625,0.000839939690195024,0,-0.00045814894838258624
1761132137697861600,4.423861572265625,0.00022907447419129312,0,-0.0010690141934901476
1761132137707861800,4.43386181640625,-0.00038179077091626823,0,0.0013744467869400978
1761132137717862400,4.4438623046875,0.00022907447419129312,0,0.00015271631127689034
1761132137727862500,4.453862548828125,-0.00038179077091626823,0.0006108652451075613,0.00015271631127689034
1761132137737862400,4.4638623046875,0.00022907447419129312,0,-0.00045814894838258624
1761132137747862500,4.473862548828125,0.0014508049935102463,0,-0.00045814894838258624
1761132137757862700,4.483862548828125,0.000839939690195024,0,-0.00045814894838258624
1761132137767862500,4.493862548828125,-0.00038179077091626823,0,-0.00045814894838258624
1761132137777862700,4.503862548828125,0.00022907447419129312,0,0.00015271631127689034
1761132137787862500,4.513862548828125,0.00022907447419129312,0.0006108652451075613,-0.00045814894838258624
1761132137797862700,4.523862548828125,0.00022907447419129312,0,0.00015271631127689034
1761132137807862500,4.533862548828125,-0.0009926559869199991,-0.0006108652451075613,0.00015271631127689034
1761132137817861600,4.543861572265625,0.00022907447419129312,0,-0.00045814894838258624
1761132137827861500,4.553861572265625,0.00022907447419129312,-0.0006108652451075613,-0.00045814894838258624
1761132137837861600,4.563861572265625,-0.0009926559869199991,-0.0006108652451075613,0.00015271631127689034
1761132137847861500,4.573861572265625,0.00022907447419129312,-0.0006108652451075613,-0.00045814894838258624
1761132137857861600,4.583861572265625,-0.00038179077091626823,0,0.0007635815418325365
1761132137867861500,4.593861572265625,-0.00038179077091626823,-0.0006108652451075613,-0.0010690141934901476
1761132137877861600,4.603861572265625,-0.0009926559869199991,0.0006108652451075613,-0.00045814894838258624
1761132137887861500,4.613861572265625,-0.00038179077091626823,0.0006108652451075613,-0.00045814894838258624
1761132137897861600,4.623861572265625,0.00022907447419129312,-0.0006108652451075613,-0.00045814894838258624
1761132137907861500,4.633861572265625,-0.00038179077091626823,0.0006108652451075613,-0.00045814894838258624
1761132137917862400,4.6438623046875,-0.00038179077091626823,0,0.00015271631127689034
1761132137927862500,4.653862548828125,-0.0016035212902352214,-0.0006108652451075613,0.0013744467869400978
1761132137937862400,4.6638623046875,-0.0009926559869199991,0,0.00015271631127689034
1761132137947862500,4.673862548828125,0.000839939690195024,0.0006108652451075613,0.00015271631127689034
1761132137957862400,4.6838623046875,-0.00038179077091626823,0,-0.00045814894838258624
1761132137967862500,4.693862548828125,0.00022907447419129312,-0.0006108652451075613,0.00015271631127689034
1761132137977862400,4.7038623046875,0.00022907447419129312,0,0.00015271631127689034
1761132137987862500,4.713862548828125,0.00022907447419129312,0.0006108652451075613,-0.0010690141934901476
1761132137997862400,4.7238623046875,-0.00038179077091626823,0.0006108652451075613,0.00015271631127689034
1761132138007862500,4.733862548828125,-0.0009926559869199991,0,0.00015271631127689034
1761132138017861600,4.743861572265625,-0.00038179077091626823,0,-0.00045814894838258624
1761132138027861800,4.75386181640625,-0.0009926559869199991,-0.0006108652451075613,-0.00045814894838258624
1761132138037861600,4.763861572265625,-0.00038179077091626823,0,-0.0010690141934901476
1761132138047861800,4.77386181640625,0.00022907447419129312,-0.0006108652451075613,0.00015271631127689034
1761132138057861600,4.783861572265625,-0.00038179077091626823,-0.0006108652451075613,0.00015271631127689034
1761132138067861500,4.793861572265625,-0.00038179077091626823,0,0.0013744467869400978
1761132138077861600,4.803861572265625,0.00022907447419129312,0,0.00015271631127689034
1761132138087861500,4.813861572265625,-0.0016035212902352214,-0.0006108652451075613,0.00015271631127689034
1761132138097861600,4.823861572265625,0.00022907447419129312,0,0.0007635815418325365
1761132138107861500,4.833861572265625,-0.00038179077091626823,0.0006108652451075613,0.00015271631127689034
1761132138117862400,4.8438623046875,-0.00038179077091626823,-0.0006108652451075613,0.00015271631127689034
1761132138127862500,4.853862548828125,-0.00038179077091626823,0,-0.0010690141934901476
1761132138137862400,4.8638623046875,-0.0009926559869199991,0.0006108652451075613,0.00015271631127689034
1761132138147862500,4.873862548828125,-0.0009926559869199991,0,-0.00045814894838258624
1761132138157862400,4.8838623046875,0.00022907447419129312,0.0006108652451075613,0.0007635815418325365
1761132138167862500,4.893862548828125,0.0014508049935102463,0,-0.00045814894838258624
1761132138177862400,4.9038623046875,-0.0009926559869199991,-0.001832595793530345,-0.0010690141934901476
1761132138187862500,4.913862548828125,0.00022907447419129312,0,-0.00045814894838258624
1761132138197862400,4.9238623046875,-0.00038179077091626823,0.0006108652451075613,-0.00045814894838258624
1761132138207862500,4.933862548828125,0.00022907447419129312,-0.0006108652451075613,-0.0010690141934901476
1761132138217861600,4.943861572265625,0.00022907447419129312,-0.0006108652451075613,0.00015271631127689034
1761132138227861800,4.95386181640625,0.00022907447419129312,0,-0.00045814894838258624
1761132138237861600,4.963861572265625,0.000839939690195024,0,0.0007635815418325365
1761132138247861800,4.97386181640625,0.00022907447419129312,-0.0012217304902151227,-0.00045814894838258624
1761132138257861600,4.983861572265625,-0.00038179077091626823,0,0.00015271631127689034
1761132138267861800,4.99386181640625,-0.00038179077091626823,-0.0006108652451075613,-0.00045814894838258624
1761132138277861600,5.003861572265625,0.000839939690195024,0.0006108652451075613,0.00015271631127689034
1761132138287861800,5.01386181640625,0.00022907447419129312,0.0006108652451075613,0.00015271631127689034
1761132138297861600,5.023861572265625,0.00022907447419129312,0.0006108652451075613,0.00015271631127689034
1761132138307861800,5.03386181640625,-0.00038179077091626823,0,0.00015271631127689034
1761132138317862400,5.0438623046875,0.00022907447419129312,0,0.0007635815418325365
1761132138327862500,5.053862548828125,0.000839939690195024,-0.0012217304902151227,-0.00045814894838258624
1761132138337862400,5.0638623046875,0.00022907447419129312,0,-0.00045814894838258624
1761132138347862500,5.073862548828125,0.00022907447419129312,-0.0006108652451075613,0.00015271631127689034
1761132138357862400,5.0838623046875,-0.00038179077091626823,-0.0006108652451075613,0.00015271631127689034
1761132138367862500,5.093862548828125,-0.00038179077091626823,-0.0006108652451075613,0.00015271631127689034
1761132138377862400,5.1038623046875,0.000839939690195024,0,0.0013744467869400978
1761132138387862500,5.113862548828125,-0.00038179077091626823,0,-0.00045814894838258624
1761132138397862400,5.1238623046875,-0.00038179077091626823,0,-0.0010690141934901476
1761132138407862500,5.133862548828125,0.00022907447419129312,-0.0012217304902151227,-0.00045814894838258624
1761132138417861600,5.143861572265625,-0.00038179077091626823,0,-0.00045814894838258624
1761132138427861800,5.15386181640625,0.00022907447419129312,-0.0006108652451075613,-0.00045814894838258624
1761132138437861600,5.163861572265625,-0.00038179077091626823,-0.0006108652451075613,0.00015271631127689034
1761132138447861500,5.173861572265625,0.000839939690195024,0,-0.00045814894838258624
1761132138457861600,5.183861572265625,0.00022907447419129312,-0.0006108652451075613,-0.00045814894838258624
1761132138467861500,5.193861572265625,0.000839939690195024,0,0.00015271631127689034
1761132138477861600,5.203861572265625,0.000839939690195024,0.0006108652451075613,0.00015271631127689034
1761132138497861600,5.223861572265625,0.00022907447419129312,0.0006108652451075613,0.00015271631127689034
1761132138507861500,5.233861572265625,0.00022907447419129312,-0.0006108652451075613,-0.00045814894838258624
1761132138517862400,5.2438623046875,0.00022907447419129312,0,0.0007635815418325365
1761132138527862500,5.253862548828125,0.00022907447419129312,0.0006108652451075613,-0.0010690141934901476
1761132138537862400,5.2638623046875,-0.0016035212902352214,0,-0.00045814894838258624
1761132138547862500,5.273862548828125,-0.00038179077091626823,0,-0.0010690141934901476
1761132138557862400,5.2838623046875,-0.00038179077091626823,-0.0006108652451075613,0.00015271631127689034
1761132138567862500,5.293862548828125,-0.00038179077091626823,-0.001832595793530345,-0.00045814894838258624
1761132138577862400,5.3038623046875,0.00022907447419129312,0.0012217304902151227,0.0007635815418325365
1761132138587862500,5.313862548828125,0.00022907447419129312,-0.0006108652451075613,-0.00045814894838258624
1761132138597862400,5.3238623046875,-0.0009926559869199991,-0.0006108652451075613,-0.00045814894838258624
1761132138607862500,5.333862548828125,0.00022907447419129312,0,0.00015271631127689034
1761132138617861600,5.343861572265625,0.000839939690195024,-0.0006108652451075613,0.00015271631127689034
1761132138627861500,5.353861572265625,0.000839939690195024,-0.0012217304902151227,0.0007635815418325365
1761132138637861600,5.363861572265625,0.00022907447419129312,-0.0006108652451075613,0.00015271631127689034
1761132138647861500,5.373861572265625,0.000839939690195024,0,0.0007635815418325365
1761132138657861600,5.383861572265625,-0.00038179077091626823,0,-0.00045814894838258624
1761132138667861500,5.393861572265625,0.000839939690195024,0.0006108652451075613,-0.0010690141934901476
1761132138677861600,5.403861572265625,-0.00038179077091626823,0,-0.00045814894838258624
1761132138687861500,5.413861572265625,0.00022907447419129312,0,-0.0010690141934901476
1761132138697861600,5.423861572265625,-0.00038179077091626823,0,0.00015271631127689034
1761132138707861500,5.433861572265625,0.00022907447419129312,0,0.00015271631127689034
1761132138717862400,5.4438623046875,0.00022907447419129312,-0.0012217304902151227,-0.00045814894838258624
1761132138727862500,5.453862548828125,0.0014508049935102463,-0.0006108652451075613,0.0007635815418325365
1761132138737862400,5.4638623046875,-0.00038179077091626823,0,0.00015271631127689034
1761132138747862500,5.473862548828125,-0.0009926559869199991,0,0.00015271631127689034
1761132138757862400,5.4838623046875,0.00022907447419129312,-0.0006108652451075613,0.00015271631127689034
1761132138767862500,5.493862548828125,0.00022907447419129312,0.0006108652451075613,-0.00045814894838258624
1761132138777862700,5.503862548828125,0.0014508049935102463,-0.0024434609804302454,-0.0010690141934901476
1761132138787862500,5.513862548828125,0.0014508049935102463,-0.001832595793530345,0.00015271631127689034
1761132138797862700,5.523862548828125,0.00022907447419129312,-0.0006108652451075613,-0.001679879380390048
1761132138807862500,5.533862548828125,0.000839939690195024,-0.0006108652451075613,0.00015271631127689034
1761132138817861600,5.543861572265625,0.000839939690195024,-0.0006108652451075613,-0.0010690141934901476
1761132138827861500,5.553861572265625,0.00022907447419129312,-0.0006108652451075613,-0.00045814894838258624
1761132138837861600,5.563861572265625,0.0014508049935102463,0,-0.0010690141934901476
1761132138847861500,5.573861572265625,-0.0009926559869199991,0.0006108652451075613,-0.00045814894838258624
1761132138857861600,5.583861572265625,0.00022907447419129312,0.0012217304902151227,-0.0010690141934901476
1761132138867861500,5.593861572265625,0.00022907447419129312,0.0006108652451075613,-0.00045814894838258624
1761132138877861600,5.603861572265625,0.00022907447419129312,0.0006108652451075613,0.00015271631127689034
1761132138887861500,5.613861572265625,0.00022907447419129312,0.0006108652451075613,-0.0010690141934901476
1761132138897861600,5.623861572265625,0.000839939690195024,0.0006108652451075613,-0.00045814894838258624
1761132138907861500,5.633861572265625,0.00022907447419129312,0,-0.00045814894838258624
1761132138917862400,5.6438623046875,0.00022907447419129312,0,-0.0010690141934901476
1761132138927862500,5.653862548828125,0.00022907447419129312,0,-0.00045814894838258624
1761132138937862400,5.6638623046875,0.00022907447419129312,-0.0006108652451075613,-0.00045814894838258624
1761132138947862500,5.673862548828125,-0.00038179077091626823,-0.0006108652451075613,-0.00045814894838258624
1761132138957862400,5.6838623046875,0.00022907447419129312,0.0012217304902151227,0.00015271631127689034
1761132138967862300,5.6938623046875,-0.00038179077091626823,0.0006108652451075613,0.0007635815418325365
1761132138977862400,5.7038623046875,0.00022907447419129312,0.0006108652451075613,-0.00045814894838258624
1761132138987862500,5.713862548828125,0.00022907447419129312,0.0006108652451075613,0.00015271631127689034
1761132138997862400,5.7238623046875,0.00022907447419129312,0.001832595793530345,0.0007635815418325365
1761132139007862500,5.733862548828125,0.00022907447419129312,0.0006108652451075613,0.00015271631127689034
1761132139017861600,5.743861572265625,0.00022907447419129312,0.0006108652451075613,0.0013744467869400978
1761132139027861500,5.753861572265625,0.000839939690195024,0,-0.00045814894838258624
1761132139037861600,5.763861572265625,0.00022907447419129312,-0.0006108652451075613,-0.00045814894838258624
1761132139047861500,5.773861572265625,0.00022907447419129312,0,0.00015271631127689034
1761132139057861600,5.783861572265625,0.00022907447419129312,0,0.0007635815418325365
1761132139067861500,5.793861572265625,-0.00038179077091626823,-0.0006108652451075613,0.00015271631127689034
1761132139077861600,5.803861572265625,-0.0009926559869199991,-0.0012217304902151227,0.0007635815418325365
1761132139087861500,5.813861572265625,0.00022907447419129312,-0.0006108652451075613,-0.00045814894838258624
1761132139097861600,5.823861572265625,-0.00038179077091626823,-0.0006108652451075613,-0.00045814894838258624
1761132139107861500,5.833861572265625,-0.00038179077091626823,-0.0012217304902151227,-0.0010690141934901476
1761132139117862400,5.8438623046875,-0.00038179077091626823,-0.0024434609804302454,0.00015271631127689034
1761132139127862500,5.853862548828125,-0.00038179077091626823,0.0006108652451075613,0.005650503560900688
1761132139137862400,5.8638623046875,-0.00038179077091626823,-0.003054326167330146,-0.001679879380390048
1761132139147862500,5.873862548828125,0.00022907447419129312,-0.0006108652451075613,0.0019853119738399982
1761132139157862400,5.8838623046875,-0.0016035212902352214,0.0006108652451075613,0.003817907767370343
1761132139167862500,5.893862548828125,-0.00038179077091626823,-0.0012217304902151227,0.0007635815418325365
1761132139177862400,5.9038623046875,-0.0009926559869199991,0.003054326167330146,0.0019853119738399982
1761132139187862500,5.913862548828125,0.00022907447419129312,0.0006108652451075613,0.0019853119738399982
1761132139197862400,5.9238623046875,-0.0016035212902352214,-0.0006108652451075613,0.00015271631127689034
1761132139207862500,5.933862548828125,0.000839939690195024,0,-0.00045814894838258624
1761132139217861600,5.943861572265625,-0.0009926559869199991,0.0006108652451075613,0.00015271631127689034
1761132139227861800,5.95386181640625,-0.00038179077091626823,0.0006108652451075613,0.0013744467869400978
1761132139237861600,5.963861572265625,0.00022907447419129312,0,0.0007635815418325365
1761132139247861800,5.97386181640625,-0.0009926559869199991,0,0.0007635815418325365
1761132139257861600,5.983861572265625,0.00022907447419129312,-0.0006108652451075613,0.00015271631127689034
1761132139267861800,5.99386181640625,0.00022907447419129312,-0.0006108652451075613,0.0013744467869400978
1761132139277861600,6.003861572265625,-0.00038179077091626823,0,0.0019853119738399982
1761132139287861800,6.01386181640625,-0.0009926559869199991,0.0006108652451075613,0.003817907767370343
1761132139297861600,6.023861572265625,0.000839939690195024,-0.001832595793530345,0.0032070425804704428
1761132139307861800,6.03386181640625,-0.00038179077091626823,-0.0006108652451075613,0.0013744467869400978
1761132139317862400,6.0438623046875,-0.0009926559869199991,-0.0006108652451075613,0.0007635815418325365
1761132139327862500,6.053862548828125,-0.0009926559869199991,0,-0.00045814894838258624
1761132139337862400,6.0638623046875,-0.0009926559869199991,0.0006108652451075613,-0.0010690141934901476
1761132139347862500,6.073862548828125,0.00022907447419129312,0,0.0007635815418325365
1761132139357862400,6.0838623046875,-0.00038179077091626823,0,0.0007635815418325365
1761132139367862500,6.093862548828125,0.000839939690195024,-0.0006108652451075613,0.00015271631127689034
1761132139377862400,6.1038623046875,0.00022907447419129312,-0.0012217304902151227,0.00015271631127689034
1761132139387862500,6.113862548828125,-0.00038179077091626823,0,-0.00045814894838258624
1761132139397862400,6.1238623046875,-0.00038179077091626823,0.0006108652451075613,0.00015271631127689034
1761132139407862500,6.133862548828125,-0.00038179077091626823,0.001832595793530345,0.0007635815418325365
1761132139417861600,6.143861572265625,0.00022907447419129312,0.0006108652451075613,0.0007635815418325365
1761132139427861500,6.153861572265625,0.00022907447419129312,0.0006108652451075613,0.0013744467869400978
1761132139437861600,6.163861572265625,-0.00038179077091626823,0,0.0007635815418325365
1761132139447861500,6.173861572265625,-0.0009926559869199991,0,0.0013744467869400978
1761132139457861600,6.183861572265625,0.00022907447419129312,0,0.00015271631127689034
1761132139467861500,6.193861572265625,-0.00038179077091626823,0,-0.00045814894838258624
1761132139477861600,6.203861572265625,-0.00038179077091626823,0.0006108652451075613,0.00015271631127689034
1761132139487861500,6.213861572265625,-0.00038179077091626823,0.0006108652451075613,-0.00045814894838258624
1761132139497861600,6.223861572265625,-0.0009926559869199991,-0.0006108652451075613,-0.001679879380390048
1761132139507861500,6.233861572265625,-0.00038179077091626823,0,-0.00045814894838258624
1761132139517862400,6.2438623046875,0.00022907447419129312,-0.0006108652451075613,0.0007635815418325365
1761132139527862500,6.253862548828125,0.000839939690195024,0.0006108652451075613,0.00015271631127689034
1761132139537862400,6.2638623046875,0.000839939690195024,-0.0006108652451075613,0.0007635815418325365
1761132139547862500,6.273862548828125,0.00022907447419129312,0.0012217304902151227,0.0007635815418325365
1761132139557862400,6.2838623046875,0.00022907447419129312,0.0006108652451075613,0.0007635815418325365
1761132139567862500,6.293862548828125,0.000839939690195024,0,-0.00045814894838258624
1761132139577862400,6.3038623046875,-0.00038179077091626823,-0.0006108652451075613,0.00015271631127689034
1761132139587862500,6.313862548828125,0.000839939690195024,0.0006108652451075613,-0.0010690141934901476
1761132139597862400,6.3238623046875,-0.0009926559869199991,-0.0006108652451075613,0.00015271631127689034
1761132139607862500,6.333862548828125,-0.00038179077091626823,-0.0006108652451075613,0.00015271631127689034
1761132139617861600,6.343861572265625,-0.0016035212902352214,0.0006108652451075613,0.00015271631127689034
1761132139627861500,6.353861572265625,-0.00038179077091626823,0.0006108652451075613,-0.00045814894838258624
1761132139637861600,6.363861572265625,0.00022907447419129312,-0.0006108652451075613,0.00015271631127689034
1761132139647861500,6.373861572265625,0.00022907447419129312,0.0006108652451075613,-0.00045814894838258624
1761132139657861600,6.383861572265625,0.00022907447419129312,0.0006108652451075613,-0.00045814894838258624
1761132139667861500,6.393861572265625,0.000839939690195024,-0.0006108652451075613,-0.0010690141934901476
1761132139677861600,6.403861572265625,0.00022907447419129312,0,-0.0010690141934901476
1761132139687861800,6.41386181640625,-0.0009926559869199991,-0.0006108652451075613,-0.00045814894838258624
1761132139697861600,6.423861572265625,-0.0009926559869199991,-0.0006108652451075613,-0.00045814894838258624
1761132139707861800,6.43386181640625,-0.0009926559869199991,0,-0.0010690141934901476
1761132139717862400,6.4438623046875,0.000839939690195024,0.0006108652451075613,-0.00045814894838258624
1761132139727862500,6.453862548828125,0.000839939690195024,-0.0012217304902151227,-0.00045814894838258624
1761132139737862400,6.4638623046875,-0.00038179077091626823,0.0006108652451075613,0.0007635815418325365
1761132139747862500,6.473862548828125,0.00022907447419129312,0,0.00015271631127689034
1761132139757862400,6.4838623046875,0.00022907447419129312,0,-0.00045814894838258624
1761132139767862500,6.493862548828125,0.000839939690195024,0.0006108652451075613,-0.0010690141934901476
1761132139777862700,6.503862548828125,-0.00038179077091626823,0.0006108652451075613,0.0007635815418325365
1761132139787862500,6.513862548828125,0.0014508049935102463,-0.0006108652451075613,0.00015271631127689034
1761132139797862700,6.523862548828125,0.000839939690195024,0,0.00015271631127689034
1761132139807862500,6.533862548828125,-0.00038179077091626823,-0.0006108652451075613,-0.00045814894838258624
1761132139817862000,6.54386181640625,-0.00038179077091626823,0.0006108652451075613,-0.00045814894838258624
1761132139827862000,6.553862060546875,0.00022907447419129312,0.0012217304902151227,-0.00045814894838258624
1761132139837862000,6.56386181640625,0.00022907447419129312,-0.0006108652451075613,-0.00045814894838258624
1761132139847862000,6.573862060546875,0.000839939690195024,-0.0006108652451075613,-0.0010690141934901476
1761132139857862000,6.58386181640625,0.000839939690195024,-0.0006108652451075613,0.0007635815418325365
1761132139867862000,6.593862060546875,0.00022907447419129312,0.0006108652451075613,0.0007635815418325365
1761132139877862000,6.60386181640625,0.0014508049935102463,0,0.00015271631127689034
1761132139887862000,6.613862060546875,-0.00038179077091626823,0.0006108652451075613,0.0007635815418325365
1761132139897862000,6.62386181640625,-0.00038179077091626823,0,-0.00045814894838258624
1761132139907862000,6.633862060546875,-0.00038179077091626823,0,0.00015271631127689034
1761132139917862700,6.643862548828125,-0.00038179077091626823,0.0006108652451075613,-0.00045814894838258624
1761132139927862800,6.65386279296875,-0.00038179077091626823,0,0.00015271631127689034
1761132139937862700,6.663862548828125,0.000839939690195024,-0.0006108652451075613,0.0007635815418325365
1761132139947862800,6.67386279296875,-0.0009926559869199991,0,-0.00045814894838258624
1761132139957862700,6.683862548828125,0.000839939690195024,0.0012217304902151227,-0.0010690141934901476
1761132139967862800,6.69386279296875,0.00022907447419129312,0,-0.00045814894838258624
1761132139977862700,6.703862548828125,0.00022907447419129312,-0.0006108652451075613,0.0007635815418325365
1761132139987862800,6.71386279296875,-0.00038179077091626823,0,0.0019853119738399982
1761132139997862700,6.723862548828125,0.000839939690195024,0.0012217304902151227,0.0007635815418325365
1761132140007862800,6.73386279296875,0.00022907447419129312,0,-0.00045814894838258624
1761132140017862000,6.74386181640625,0.000839939690195024,0.0006108652451075613,0.00015271631127689034
1761132140027862000,6.753862060546875,0.00022907447419129312,-0.0006108652451075613,0.00015271631127689034
1761132140037862000,6.76386181640625,-0.0009926559869199991,0,0.0007635815418325365
1761132140047862000,6.773862060546875,0.00022907447419129312,0,-0.00045814894838258624
1761132140057862000,6.78386181640625,0.00022907447419129312,-0.0006108652451075613,-0.00045814894838258624
1761132140067862000,6.793862060546875,-0.00038179077091626823,0.0006108652451075613,0.00015271631127689034
1761132140077862000,6.80386181640625,0.00022907447419129312,-0.0012217304902151227,-0.00045814894838258624
1761132140087861800,6.81386181640625,-0.00038179077091626823,-0.0006108652451075613,0.00015271631127689034
1761132140097862000,6.82386181640625,0.0014508049935102463,0,0.00015271631127689034
1761132140107861800,6.83386181640625,0.00022907447419129312,0.0006108652451075613,-0.00045814894838258624
1761132140117862400,6.8438623046875,0.00022907447419129312,-0.0006108652451075613,0.00015271631127689034
1761132140127862500,6.853862548828125,-0.0009926559869199991,0,0.0007635815418325365
1761132140137862400,6.8638623046875,-0.0009926559869199991,0,0.0013744467869400978
1761132140147862500,6.873862548828125,0.00022907447419129312,0.0006108652451075613,0.0007635815418325365
1761132140157862400,6.8838623046875,0.00022907447419129312,0,-0.0010690141934901476
1761132140167862500,6.893862548828125,-0.0009926559869199991,0,-0.0010690141934901476
1761132140177862400,6.9038623046875,0.000839939690195024,0.0006108652451075613,0.0007635815418325365
1761132140187862500,6.913862548828125,-0.0009926559869199991,0,0.00015271631127689034
1761132140197862400,6.9238623046875,0.00022907447419129312,0,-0.00045814894838258624
1761132140207862500,6.933862548828125,0.000839939690195024,0.0012217304902151227,0.0007635815418325365
1761132140217861600,6.943861572265625,0.000839939690195024,0,0.0007635815418325365
1761132140227861500,6.953861572265625,-0.00038179077091626823,0.0006108652451075613,0.00015271631127689034
1761132140237861600,6.963861572265625,-0.0009926559869199991,-0.0012217304902151227,-0.00045814894838258624
1761132140247861500,6.973861572265625,-0.00038179077091626823,0.0012217304902151227,-0.0010690141934901476
1761132140257861600,6.983861572265625,0.000839939690195024,0,0.00015271631127689034
1761132140267861800,6.99386181640625,-0.00038179077091626823,0,0.00015271631127689034
1761132140277861600,7.003861572265625,0.000839939690195024,0,-0.0010690141934901476
1761132140287861800,7.01386181640625,-0.0009926559869199991,-0.0006108652451075613,-0.00045814894838258624
1761132140297861600,7.023861572265625,0.00022907447419129312,-0.0012217304902151227,0.00015271631127689034
1761132140307861500,7.033861572265625,0.00022907447419129312,0,0.00015271631127689034
1761132140317862400,7.0438623046875,0.00022907447419129312,0,0.00015271631127689034
1761132140327862500,7.053862548828125,-0.0009926559869199991,-0.0006108652451075613,0.00015271631127689034
1761132140337862400,7.0638623046875,0.00022907447419129312,0,0.0007635815418325365
1761132140347862500,7.073862548828125,-0.00038179077091626823,-0.0012217304902151227,-0.00045814894838258624
1761132140357862400,7.0838623046875,-0.00038179077091626823,0.0006108652451075613,-0.00045814894838258624
1761132140367862500,7.093862548828125,0.00022907447419129312,0,0.0007635815418325365
1761132140377862400,7.1038623046875,0.00022907447419129312,0,0.00015271631127689034
1761132140387862500,7.113862548828125,0.00022907447419129312,0,0.00015271631127689034
1761132140397862400,7.1238623046875,-0.00038179077091626823,0,-0.00045814894838258624
1761132140407862500,7.133862548828125,0.00022907447419129312,0.0006108652451075613,0.00015271631127689034
1761132140417861600,7.143861572265625,-0.00038179077091626823,-0.0006108652451075613,-0.0010690141934901476
1761132140427861500,7.153861572265625,-0.00038179077091626823,-0.0006108652451075613,-0.0010690141934901476
1761132140437861600,7.163861572265625,-0.00038179077091626823,0,-0.0010690141934901476
1761132140447861500,7.173861572265625,0.00022907447419129312,0.0006108652451075613,-0.00045814894838258624
1761132140457861600,7.183861572265625,-0.0009926559869199991,0.0006108652451075613,-0.0010690141934901476
1761132140467861500,7.193861572265625,0.0014508049935102463,0.0012217304902151227,0.0007635815418325365
1761132140477861600,7.203861572265625,0.00022907447419129312,0.0006108652451075613,0.00015271631127689034
1761132140487861500,7.213861572265625,0.00022907447419129312,0.0006108652451075613,0.00015271631127689034
1761132140497861600,7.223861572265625,-0.00038179077091626823,-0.0006108652451075613,0.00015271631127689034
1761132140507861500,7.233861572265625,-0.00038179077091626823,-0.0006108652451075613,0.00015271631127689034
1761132140517862400,7.2438623046875,0.000839939690195024,-0.0006108652451075613,0.0007635815418325365
1761132140527862500,7.253862548828125,0.0014508049935102463,0,0.00015271631127689034
1761132140537862400,7.2638623046875,0.00022907447419129312,0.0012217304902151227,0.00015271631127689034
1761132140547862500,7.273862548828125,-0.00038179077091626823,0,-0.00045814894838258624
1761132140557862400,7.2838623046875,-0.00038179077091626823,-0.0006108652451075613,0.00015271631127689034
1761132140567862500,7.293862548828125,0.00022907447419129312,-0.0012217304902151227,-0.00045814894838258624
1761132140577862400,7.3038623046875,-0.00038179077091626823,0,0.00015271631127689034
1761132140587862500,7.313862548828125,0.00022907447419129312,-0.0012217304902151227,0.00015271631127689034
1761132140597862400,7.3238623046875,-0.00038179077091626823,0,0.0007635815418325365
1761132140607862300,7.3338623046875,0.00022907447419129312,0.0012217304902151227,0.00015271631127689034
1761132140617861600,7.343861572265625,-0.00038179077091626823,-0.0006108652451075613,0.00015271631127689034
1761132140627861500,7.353861572265625,0.000839939690195024,0,0.0007635815418325365
1761132140637861600,7.363861572265625,0.00022907447419129312,0.0006108652451075613,0.00015271631127689034
1761132140647861500,7.373861572265625,0.00022907447419129312,0.0012217304902151227,0.0013744467869400978
1761132140657861600,7.383861572265625,-0.0009926559869199991,0.0006108652451075613,0.0007635815418325365
1761132140667861500,7.393861572265625,-0.0009926559869199991,0,0.00015271631127689034
1761132140677861600,7.403861572265625,-0.00038179077091626823,0,0.00015271631127689034
1761132140687861500,7.413861572265625,0.000839939690195024,0.0006108652451075613,-0.00045814894838258624
1761132140697861600,7.423861572265625,-0.00038179077091626823,0,-0.0010690141934901476
1761132140707861500,7.433861572265625,0.00022907447419129312,0.0006108652451075613,0.00015271631127689034
1761132140717862400,7.4438623046875,0.00022907447419129312,0.0006108652451075613,0.0007635815418325365
1761132140727862300,7.4538623046875,0.00022907447419129312,0,0.00015271631127689034
1761132140737862400,7.4638623046875,-0.00038179077091626823,0,-0.00045814894838258624
1761132140747862300,7.4738623046875,0.00022907447419129312,-0.0006108652451075613,-0.0010690141934901476
1761132140757862400,7.4838623046875,-0.00038179077091626823,0,-0.00045814894838258624
1761132140767862500,7.493862548828125,-0.00038179077091626823,-0.0006108652451075613,-0.00045814894838258624
1761132140777862400,7.5038623046875,-0.0009926559869199991,0,0.00015271631127689034
1761132140787862500,7.513862548828125,-0.00038179077091626823,0,0.0013744467869400978
1761132140797862400,7.5238623046875,0.000839939690195024,0.0012217304902151227,0.0007635815418325365
1761132140807862500,7.533862548828125,0.00022907447419129312,0,0.0007635815418325365
1761132140817862000,7.54386181640625,-0.00038179077091626823,-0.0006108652451075613,0.0007635815418325365
1761132140827861800,7.55386181640625,0.00022907447419129312,-0.0012217304902151227,-0.0010690141934901476
1761132140837862000,7.56386181640625,0.00022907447419129312,0,-0.00045814894838258624
1761132140847861800,7.57386181640625,-0.00038179077091626823,-0.0006108652451075613,0.00015271631127689034
1761132140857862000,7.58386181640625,0.00022907447419129312,0,-0.0010690141934901476
1761132140867861800,7.59386181640625,-0.00038179077091626823,0.0006108652451075613,0.00015271631127689034
1761132140877862000,7.60386181640625,0.000839939690195024,0,0.00015271631127689034
1761132140887861800,7.61386181640625,-0.00038179077091626823,0.0012217304902151227,-0.00045814894838258624
1761132140897862000,7.62386181640625,-0.00038179077091626823,0,0.0007635815418325365
1761132140907861800,7.63386181640625,-0.0009926559869199991,-0.0006108652451075613,0.00015271631127689034
1761132140917862700,7.643862548828125,0.00022907447419129312,0,0.00015271631127689034
1761132140927862500,7.653862548828125,0.00022907447419129312,0,0.0007635815418325365
1761132140937862700,7.663862548828125,-0.0009926559869199991,0,0.0007635815418325365
1761132140947862800,7.67386279296875,-0.00038179077091626823,-0.0006108652451075613,0.00015271631127689034
1761132140957862700,7.683862548828125,0.00022907447419129312,0.0006108652451075613,-0.0010690141934901476
1761132140967862800,7.69386279296875,0.00022907447419129312,0,-0.00045814894838258624
1761132140977862700,7.703862548828125,0.00022907447419129312,0,0.00015271631127689034
1761132140987862800,7.71386279296875,0.000839939690195024,0.016493361443281174,0.008704829961061478
1761132140997862700,7.723862548828125,-0.0009926559869199991,0.07635815441608429,0.033139441162347794
1761132141007862800,7.73386279296875,-0.00038179077091626823,-0.06475171446800232,-0.027947084978222847
1761132141017862000,7.74386181640625,-0.00038179077091626823,-0.00733038317412138,-0.003512475173920393
1761132141027861800,7.75386181640625,0.00022907447419129312,-0.0006108652451075613,0.00015271631127689034
1761132141037862000,7.76386181640625,-0.00038179077091626823,0.0006108652451075613,0.0007635815418325365
1761132141047861800,7.77386181640625,0.00022907447419129312,-0.001832595793530345,-0.00045814894838258624
1761132141057862000,7.78386181640625,0.000839939690195024,0,-0.00045814894838258624
1761132141067861800,7.79386181640625,-0.00038179077091626823,-0.0006108652451075613,-0.0010690141934901476
1761132141077862000,7.80386181640625,0.0014508049935102463,0,-0.0010690141934901476
1761132141087861800,7.81386181640625,0.000839939690195024,-0.0012217304902151227,-0.0010690141934901476
1761132141097862000,7.82386181640625,0.00022907447419129312,-0.0006108652451075613,-0.0010690141934901476
1761132141107861800,7.83386181640625,0.0014508049935102463,-0.0006108652451075613,0.00015271631127689034
1761132141117862400,7.8438623046875,0.000839939690195024,0.0006108652451075613,-0.00045814894838258624
1761132141127862300,7.8538623046875,0.000839939690195024,0.0006108652451075613,-0.00045814894838258624
1761132141137862400,7.8638623046875,-0.00038179077091626823,0.0006108652451075613,0.0007635815418325365
1761132141147862500,7.873862548828125,-0.00038179077091626823,0,-0.0010690141934901476
1761132141157862400,7.8838623046875,0.00022907447419129312,0.0006108652451075613,0.00015271631127689034
1761132141167862500,7.893862548828125,0.000839939690195024,-0.0006108652451075613,-0.00045814894838258624
1761132141177862400,7.9038623046875,-0.00038179077091626823,0,0.0007635815418325365
1761132141187862300,7.9138623046875,-0.0009926559869199991,0,0.0007635815418325365
1761132141197862400,7.9238623046875,0.000839939690195024,0,0.00015271631127689034
1761132141207862500,7.933862548828125,-0.00038179077091626823,-0.0006108652451075613,0.0007635815418325365
1761132141217861600,7.943861572265625,0.0014508049935102463,-0.0006108652451075613,0.0007635815418325365
1761132141227861800,7.95386181640625,0.000839939690195024,-0.0012217304902151227,-0.00045814894838258624
1761132141237861600,7.963861572265625,0.00022907447419129312,0.0012217304902151227,0.0013744467869400978
1761132141247861500,7.973861572265625,0.00022907447419129312,-0.0006108652451075613,0.0007635815418325365
1761132141257861600,7.983861572265625,0.00022907447419129312,0,0.00015271631127689034
1761132141267861800,7.99386181640625,-0.00038179077091626823,0,-0.00045814894838258624
1761132141277861600,8.003861572265626,0.000839939690195024,-0.0012217304902151227,0.00015271631127689034
1761132141287861500,8.013861572265625,-0.00038179077091626823,-0.001832595793530345,0.00015271631127689034
1761132141297861600,8.023861572265625,0.00022907447419129312,-0.0006108652451075613,-0.0010690141934901476
1761132141307861500,8.033861572265625,-0.0009926559869199991,-0.0006108652451075613,-0.00045814894838258624
1761132141317862400,8.0438623046875,-0.00038179077091626823,0,0.00015271631127689034
1761132141327862500,8.053862548828125,0.000839939690195024,0.0006108652451075613,-0.00045814894838258624
1761132141337862400,8.0638623046875,0.000839939690195024,0,0.00015271631127689034
1761132141347862500,8.073862548828124,-0.00038179077091626823,0,-0.00045814894838258624
1761132141357862400,8.0838623046875,0.00022907447419129312,-0.0006108652451075613,0.0007635815418325365
1761132141367862500,8.093862548828126,-0.00038179077091626823,0,0.00015271631127689034
1761132141377862400,8.1038623046875,0.000839939690195024,0.0006108652451075613,0.0007635815418325365
1761132141387862500,8.113862548828125,0.00022907447419129312,0,0.00015271631127689034
1761132141397862400,8.1238623046875,-0.0009926559869199991,-0.0006108652451075613,0.0007635815418325365
1761132141407862500,8.133862548828125,-0.00038179077091626823,0,0.00015271631127689034
1761132141417861600,8.143861572265624,-0.00038179077091626823,0,-0.0010690141934901476
1761132141427861800,8.15386181640625,-0.0009926559869199991,0,0.00015271631127689034
1761132141437861600,8.163861572265626,-0.00038179077091626823,0,0.0007635815418325365
1761132141447861500,8.173861572265626,-0.00038179077091626823,0,-0.00045814894838258624
1761132141457861600,8.183861572265625,-0.0009926559869199991,0,-0.00045814894838258624
1761132141467861500,8.193861572265625,0.00022907447419129312,-0.0006108652451075613,0.0013744467869400978
1761132141477861600,8.203861572265625,0.00022907447419129312,0.0006108652451075613,0.00015271631127689034
1761132141487861800,8.21386181640625,0.00022907447419129312,0.0006108652451075613,0.0007635815418325365
1761132141497861600,8.223861572265625,0.00022907447419129312,0.0006108652451075613,-0.0010690141934901476
1761132141507861800,8.23386181640625,-0.0009926559869199991,0,0.0007635815418325365
1761132141517862400,8.2438623046875,-0.0009926559869199991,0,0.00015271631127689034
1761132141527862500,8.253862548828126,0.00022907447419129312,0,-0.00045814894838258624
1761132141537862400,8.2638623046875,-0.00038179077091626823,0.0006108652451075613,-0.00045814894838258624
1761132141547862500,8.273862548828125,0.00022907447419129312,0,0.0007635815418325365
1761132141557862400,8.2838623046875,0.000839939690195024,0,0.0007635815418325365
1761132141567862500,8.293862548828125,0.000839939690195024,0.0006108652451075613,0.00015271631127689034
1761132141577862400,8.3038623046875,0.00022907447419129312,0.0006108652451075613,-0.00045814894838258624
1761132141587862500,8.313862548828125,0.00022907447419129312,0.0006108652451075613,0.00015271631127689034
1761132141597862400,8.3238623046875,0.00022907447419129312,0.0006108652451075613,0.00015271631127689034
1761132141607862500,8.333862548828124,0.000839939690195024,-0.0006108652451075613,0.0007635815418325365
1761132141617861600,8.343861572265626,0.000839939690195024,0,0.00015271631127689034
1761132141627861500,8.353861572265625,-0.00038179077091626823,0.0006108652451075613,-0.00045814894838258624
1761132141637861600,8.363861572265625,0.00022907447419129312,0,-0.00045814894838258624
1761132141647861500,8.373861572265625,-0.00038179077091626823,0,0.00015271631127689034
1761132141657861600,8.383861572265625,-0.00038179077091626823,0.005497787147760391,0.004428773187100887
1761132141667861500,8.393861572265624,-0.0022143865935504436,0.15454891324043274,0.06979135423898697
1761132141677861600,8.403861572265624,-0.00038179077091626823,0.025656340643763542,0.012980886735022068
1761132141687861500,8.413861572265626,0.0014508049935102463,-0.0659734457731247,-0.031612277030944824
1761132141697861600,8.423861572265626,-0.00038179077091626823,-0.07208210229873657,-0.03039054572582245
1761132141707861800,8.43386181640625,-0.00038179077091626823,0.009773843921720982,0.0019853119738399982
1761132141717862400,8.4438623046875,0.000839939690195024,-0.006108652334660292,-0.0022907445672899485
