time,seconds_elapsed,z,y,x
1761132232857624300,0.122624267578125,1.2100162506103516,-0.9550681114196777,0.8290966749191284
1761132232867624400,0.13262451171875,1.0504827499389648,-1.129835605621338,0.6785560250282288
1761132232877624300,0.142624267578125,0.9190664291381836,-1.0185880661010742,0.458278626203537
1761132232887624400,0.15262451171875,0.7415380477905273,-0.8894228935241699,0.2806035578250885
1761132232897624300,0.162624267578125,0.46773624420166016,-0.902951717376709,0.22228360176086426
1761132232907624400,0.17262451171875,0.12891578674316406,-0.9494905471801758,0.23309138417243958
1761132232917624300,0.182624267578125,-0.25641441345214844,-1.013160228729248,0.13719534873962402
1761132232927624400,0.19262451171875,-0.624232292175293,-0.9232277870178223,0.10433292388916016
1761132232937624300,0.202624267578125,-0.777012825012207,-0.7833800315856934,0.2122296392917633
1761132232947624400,0.21262451171875,-1.0305724143981934,-0.7840919494628906,0.2881763279438019
1761132232957624300,0.222624267578125,-1.2026214599609375,-0.835914134979248,0.22139465808868408
1761132232967624200,0.232624267578125,-1.2873435020446777,-0.8571033477783203,-0.1329161822795868
1761132232977624300,0.242624267578125,-1.2819318771362305,-0.9272103309631348,-0.5382595062255859
1761132232987624200,0.252624267578125,-1.144425868988037,-0.9984273910522461,-0.8033328652381897
1761132232997624300,0.262624267578125,-0.813042163848877,-1.0144553184509277,-1.022986888885498
1761132233007622700,0.27262255859375,-0.8412442207336426,-0.9689936637878418,-0.9807122945785522
1761132233017622500,0.28262255859375,1.2040481567382812,-0.7760224342346191,-1.5902061462402344
1761132233027622700,0.29262255859375,2.0980310440063477,-1.0693638324737549,-1.709069013595581
1761132233037622500,0.30262255859375,2.455613136291504,-1.3373098373413086,-1.905166506767273
1761132233047622700,0.31262255859375,3.1491641998291016,-1.3989956378936768,-1.9853191375732422
1761132233057622500,0.32262255859375,3.5684423446655273,-1.3807265758514404,-2.0667386054992676
1761132233067622700,0.33262255859375,3.1521692276000977,-1.5314176082611084,-2.173330783843994
1761132233077622500,0.34262255859375,2.7019548416137695,-1.697479248046875,-2.2061543464660645
1761132233087622700,0.35262255859375,2.3838586807250977,-1.7208318710327148,-2.247668981552124
1761132233097622500,0.36262255859375,2.1056108474731445,-1.9868028163909912,-2.2235546112060547
1761132233107622700,0.37262255859375,1.7908592224121094,-2.8678834438323975,-2.4459574222564697
1761132233117622500,0.38262255859375,1.5786285400390625,-3.5191173553466797,-2.466315269470215
1761132233127622700,0.39262255859375,1.4393987655639648,-3.634361743927002,-2.476012945175171
1761132233137622500,0.40262255859375,1.6675586700439453,-3.3198037147521973,-2.610720634460449
1761132233147622700,0.41262255859375,1.6458015441894531,-3.5156326293945312,-2.958611011505127
1761132233157622500,0.42262255859375,3.04227352142334,-2.865588426589966,-2.7636187076568604
1761132233167621600,0.43262158203125,4.629260063171387,-1.1902213096618652,-1.8016489744186401
1761132233177621800,0.442621826171875,4.164051055908203,1.2801456451416016,-1.9514656066894531
1761132233187621600,0.45262158203125,1.419891357421875,2.518627643585205,-2.7994422912597656
1761132233197621800,0.462621826171875,-1.0414915084838867,-0.910764217376709,-0.972196102142334
1761132233207620900,0.472620849609375,-1.7793169021606445,-2.840236186981201,-0.4684410095214844
1761132233217620700,0.482620849609375,-1.5139193534851074,-3.196467161178589,-1.5053505897521973
1761132233227620900,0.492620849609375,-0.4023098945617676,-2.6878397464752197,-2.7538821697235107
1761132233237620700,0.502620849609375,0.24434280395507812,-2.1241135597229004,-2.990858793258667
1761132233247620900,0.512620849609375,0.7080068588256836,-1.9430327415466309,-2.68528413772583
1761132233257620700,0.522620849609375,0.8785233497619629,-1.6875925064086914,-2.2557199001312256
1761132233267620900,0.532620849609375,1.034529685974121,-1.4047019481658936,-1.7993156909942627
1761132233277621000,0.54262109375,1.0678820610046387,-1.4462230205535889,-1.7839410305023193
1761132233287620900,0.552620849609375,-0.3300743103027344,-0.8941106796264648,1.0325572490692139
1761132233297621000,0.56262109375,-1.6485066413879395,0.3632221221923828,1.7542847394943237
1761132233307621600,0.57262158203125,-3.199003219604492,1.6593012809753418,1.4038491249084473
1761132233317621800,0.582621826171875,-3.778346538543701,1.0320377349853516,3.0940709114074707
1761132233327621600,0.59262158203125,-4.117107391357422,-0.2640962600708008,2.915597438812256
1761132233337621800,0.602621826171875,-4.176923751831055,-0.029058456420898438,2.5237832069396973
1761132233347621600,0.61262158203125,-1.9752392768859863,1.3550081253051758,-0.783189058303833
1761132233357621800,0.622621826171875,-0.5324983596801758,2.390674114227295,-2.912029981613159
1761132233367622000,0.632621826171875,0.3400115966796875,1.103705883026123,-0.8380706310272217
1761132233377621800,0.642621826171875,1.2950034141540527,-0.11053276062011719,1.6687521934509277
1761132233387622000,0.652621826171875,2.082648277282715,-0.1981945037841797,1.9593448638916016
1761132233397621800,0.662621826171875,3.433938980102539,0.43489599227905273,1.2926390171051025
1761132233407620900,0.672620849609375,3.874772548675537,0.39014482498168945,0.36254072189331055
1761132233417621000,0.68262109375,3.1211628913879395,-0.772343635559082,0.25995564460754395
1761132233427620900,0.692620849609375,1.081641674041748,-1.5033283233642578,0.3059382438659668
1761132233437621000,0.70262109375,-0.4423966407775879,-1.1278836727142334,0.5501787662506104
1761132233447620900,0.712620849609375,-1.58500337600708,-0.31658267974853516,0.09443187713623047
1761132233457621000,0.72262109375,-2.4133691787719727,0.2415475845336914,0.5166075229644775
1761132233467621600,0.73262158203125,-3.012868881225586,0.7092790603637695,1.5754811763763428
1761132233477621800,0.742621826171875,-3.0541725158691406,0.7096853256225586,1.4448111057281494
1761132233487621600,0.75262158203125,-4.264239311218262,-0.49930238723754883,2.447920322418213
1761132233497621800,0.762621826171875,-4.45981502532959,-1.3204612731933594,2.355525255203247
1761132233507622700,0.77262255859375,-4.982901096343994,-1.8497037887573242,2.0110998153686523
1761132233517622500,0.78262255859375,-5.413268089294434,-2.278576374053955,0.8658971786499023
1761132233527622700,0.79262255859375,-5.219438552856445,-1.945826768875122,-0.09632837772369385
1761132233537622500,0.80262255859375,-4.020720481872559,-1.0247187614440918,-1.7543001174926758
1761132233547622700,0.81262255859375,-2.864922046661377,-0.9860036373138428,-1.1816604137420654
1761132233557622500,0.82262255859375,-2.871049404144287,-2.5458478927612305,1.0726944208145142
1761132233567622700,0.83262255859375,-2.708495616912842,-3.055680751800537,1.3936737775802612
1761132233577622500,0.84262255859375,-2.263652801513672,-3.2800207138061523,0.7002514004707336
1761132233587622700,0.85262255859375,-1.6319427490234375,-3.7628633975982666,0.5935975909233093
1761132233597622800,0.862622802734375,-0.7684669494628906,-4.376039981842041,0.7829483151435852
1761132233607622000,0.872621826171875,-0.36325645446777344,-4.332250595092773,0.8515951037406921
1761132233617621800,0.882621826171875,-0.3883628845214844,-4.202226638793945,1.1621289253234863
1761132233627622000,0.892621826171875,-0.9099359512329102,-4.050612926483154,1.4849172830581665
1761132233637621800,0.902621826171875,-2.0812721252441406,-3.5147769451141357,1.270250916481018
1761132233647621600,0.91262158203125,-3.6848502159118652,-2.7062511444091797,0.9809140563011169
1761132233657621800,0.922621826171875,-5.867009162902832,-1.7901021242141724,0.671562910079956
1761132233667621600,0.93262158203125,-7.4331583976745605,-0.9173886775970459,0.26729726791381836
1761132233677621800,0.942621826171875,-7.961503982543945,0.09391427040100098,-0.18318092823028564
1761132233687621600,0.95262158203125,-8.034541130065918,1.1597797870635986,-0.5905216336250305
1761132233697621800,0.962621826171875,-7.829687595367432,1.8559868335723877,-2.4801740646362305
1761132233707622700,0.97262255859375,-6.135420799255371,1.8420050144195557,-3.7796099185943604
1761132233717622500,0.98262255859375,-1.9181337356567383,2.255981206893921,-5.275300025939941
1761132233727622700,0.99262255859375,2.8950653076171875,2.2890875339508057,-8.268770217895508
1761132233737622500,1.00262255859375,7.642177581787109,2.596367835998535,-10.90445613861084
1761132233747622700,1.01262255859375,10.811678886413574,3.689669132232666,-11.70533561706543
1761132233757622500,1.02262255859375,13.545161247253418,5.885503768920898,-11.9935884475708
1761132233767622700,1.03262255859375,16.955211639404297,7.455696105957031,-12.250375747680664
1761132233777622500,1.04262255859375,24.098453521728516,7.976133346557617,-12.598993301391602
1761132233787622700,1.05262255859375,33.05717086791992,6.447702407836914,-13.52834701538086
1761132233797622500,1.06262255859375,40.73387145996094,2.9230220317840576,-14.185401916503906
1761132233807621600,1.07262158203125,43.09928894042969,0.4113800525665283,-13.094441413879395
1761132233817621800,1.082621826171875,39.080867767333984,-0.4087352752685547,-10.593279838562012
1761132233827621600,1.09262158203125,29.671009063720703,0.5166966915130615,-7.212846279144287
1761132233837621200,1.102621337890625,16.525177001953125,3.0152947902679443,-2.895179271697998
1761132233847621400,1.112621337890625,16.655118942260742,2.7256007194519043,-2.8993964195251465
1761132233857621500,1.12262158203125,-0.7294549942016602,5.958364486694336,0.4875408411026001
1761132233867621400,1.132621337890625,-3.278165340423584,3.202049732208252,-0.5906984806060791
1761132233897621200,1.162621337890625,1.3569965362548828,-2.3453080654144287,-1.6158857345581055
1761132233907622100,1.1726220703125,4.324060440063477,-4.221456527709961,1.3508663177490234
1761132233917622300,1.182622314453125,4.1761322021484375,-4.673821449279785,5.297499656677246
1761132233927622100,1.1926220703125,0.8223714828491211,-4.238736152648926,8.21327018737793
1761132233937622300,1.202622314453125,0.8691034317016602,-4.3390398025512695,7.837754249572754
1761132233947622100,1.2126220703125,-8.900091171264648,-3.6516969203948975,7.742581844329834
1761132233957622300,1.222622314453125,-11.143315315246582,-4.363595485687256,6.687600135803223
1761132233967622000,1.232621826171875,-12.971148490905762,-5.95594596862793,3.193571090698242
1761132233977622000,1.2426220703125,-12.870333671569824,-6.671299934387207,0.39761659502983093
1761132233987622000,1.252621826171875,-12.37541675567627,-7.098133087158203,-0.9175268411636353
1761132233997622000,1.2626220703125,-12.308592796325684,-7.2015581130981445,-0.8509147763252258
1761132234007621000,1.27262109375,-12.95408821105957,-8.200235366821289,-0.9451851844787598
1761132234017621200,1.282621337890625,-13.460576057434082,-8.167802810668945,-0.052369728684425354
1761132234027621000,1.29262109375,-14.31464672088623,-8.234621047973633,0.8659659624099731
1761132234037621000,1.30262109375,-15.039494514465332,-8.642192840576172,1.1532440185546875
1761132234047621000,1.31262109375,-15.418739318847656,-9.040660858154297,0.5263230800628662
1761132234057620500,1.322620361328125,-15.245159149169922,-9.569229125976562,-0.5291213989257812
1761132234067620600,1.33262060546875,-14.554088592529297,-10.107797622680664,-1.9487882852554321
1761132234077620500,1.342620361328125,-13.561073303222656,-10.49526309967041,-3.0919086933135986
1761132234087620600,1.35262060546875,-12.38688850402832,-10.572920799255371,-3.6418256759643555
1761132234097620500,1.362620361328125,-11.089113235473633,-10.54942512512207,-3.4000492095947266
1761132234107621400,1.372621337890625,-9.82007122039795,-10.200899124145508,-2.471972703933716
1761132234117621500,1.38262158203125,-8.882925033569336,-9.494575500488281,-0.9866917133331299
1761132234127621400,1.392621337890625,-8.717497825622559,-8.773933410644531,1.0440986156463623
1761132234137621800,1.402621826171875,-9.270100593566895,-8.169830322265625,2.4587321281433105
1761132234147621600,1.41262158203125,-10.123018264770508,-7.710618019104004,3.320666551589966
1761132234157621800,1.422621826171875,-10.695566177368164,-7.464829444885254,3.5906858444213867
1761132234167620900,1.432620849609375,-10.8687105178833,-7.365058422088623,3.26188588142395
1761132234177621000,1.44262109375,-10.480563163757324,-7.318663597106934,2.860776901245117
1761132234187620900,1.452620849609375,-9.575730323791504,-7.2086710929870605,2.786111354827881
1761132234197621000,1.46262109375,-8.4976167678833,-6.948923587799072,2.7382969856262207
1761132234207620000,1.4726201171875,-7.717353343963623,-6.623387336730957,2.5432238578796387
1761132234217620000,1.482619873046875,-7.469063758850098,-6.0847086906433105,2.2124462127685547
1761132234227620000,1.4926201171875,-7.7704691886901855,-5.669025897979736,1.9113364219665527
1761132234237620000,1.502619873046875,-7.7488861083984375,-5.418170928955078,1.3097058534622192
1761132234247620000,1.5126201171875,-6.896317005157471,-5.399053573608398,0.7821787595748901
1761132234257620000,1.522619873046875,-6.025964260101318,-5.510644435882568,-0.24450229108333588
1761132234267620400,1.532620361328125,-4.969867706298828,-5.766438961029053,-1.5312294960021973
1761132234281114000,1.546114013671875,-3.775364398956299,-5.269700050354004,-3.3953604698181152
1761132234291114000,1.556114013671875,-2.667314052581787,-3.988677740097046,-5.866811752319336
1761132234301114000,1.566114013671875,-0.9920840263366699,-2.164213180541992,-7.785376071929932
1761132234311114800,1.57611474609375,1.5433216094970703,1.0858335494995117,-7.825928211212158
1761132234321115000,1.586114990234375,4.973816871643066,5.302731990814209,-6.832448482513428
1761132234331115000,1.596114990234375,7.598324775695801,9.627748489379883,-7.255051612854004
1761132234341115000,1.606114990234375,8.938199996948242,13.377111434936523,-9.829426765441895
1761132234351115000,1.616114990234375,12.554947853088379,15.053106307983398,-12.996365547180176
1761132234361115400,1.626115478515625,23.093021392822266,12.473539352416992,-12.718581199645996
1761132234371115500,1.636115478515625,36.72187805175781,8.004178047180176,-10.623101234436035
1761132234381115400,1.646115478515625,49.863426208496094,4.190293312072754,-8.965524673461914
1761132234391115500,1.656115478515625,55.77317428588867,1.9684410095214844,-7.58988618850708
1761132234401115400,1.666115478515625,50.173362731933594,3.991763114929199,-5.476644515991211
1761132234411114500,1.676114501953125,37.0963020324707,7.4446916580200195,-3.274143695831299
1761132234421114600,1.686114501953125,22.6524658203125,9.6493501663208,-2.1293368339538574
1761132234431114500,1.696114501953125,14.959753036499023,9.775595664978027,-1.8348946571350098
1761132234441114600,1.706114501953125,11.54047966003418,8.353166580200195,-1.7339009046554565
1761132234451114500,1.716114501953125,13.603224754333496,6.033740997314453,-3.4214158058166504
1761132234461114600,1.726114501953125,17.688793182373047,3.331319808959961,-5.915802955627441
1761132234471115300,1.736115234375,18.32088851928711,0.4116940498352051,-4.0189619064331055
1761132234481115400,1.746115478515625,16.085487365722656,-0.01793646812438965,0.15575218200683594
1761132234491115300,1.756115234375,11.323945999145508,0.3865562677383423,4.457569122314453
1761132234501115400,1.766115478515625,5.111449241638184,0.4273543357849121,7.567597389221191
1761132234511116300,1.7761162109375,-0.9197540283203125,0.3403010368347168,8.751398086547852
1761132234521116200,1.7861162109375,-5.301004886627197,-0.2543911933898926,8.02600383758545
1761132234531116300,1.7961162109375,-8.308343887329102,-2.107419013977051,5.534393310546875
1761132234541116200,1.8061162109375,-10.418466567993164,-3.3873114585876465,2.856654167175293
1761132234551116300,1.8161162109375,-11.571121215820312,-3.9146127700805664,0.7172519564628601
1761132234561116200,1.8261162109375,-11.762779235839844,-4.104714870452881,-0.6869195699691772
1761132234571116300,1.8361162109375,-11.703699111938477,-4.275861740112305,-0.5733127593994141
1761132234581115400,1.846115478515625,-11.476902961730957,-4.2923736572265625,-1.0916188955307007
1761132234591115500,1.856115478515625,-11.40385627746582,-4.605825901031494,-0.871971070766449
1761132234601115400,1.866115478515625,-13.152031898498535,-5.175001621246338,1.187758445739746
1761132234611114800,1.87611474609375,-14.743600845336914,-5.544477462768555,2.2565653324127197
1761132234621114600,1.886114501953125,-16.162078857421875,-6.1615495681762695,2.535386085510254
1761132234631114800,1.89611474609375,-16.976116180419922,-6.90479850769043,1.7870209217071533
1761132234641114600,1.906114501953125,-16.566768646240234,-7.700902938842773,0.2979400157928467
1761132234651114800,1.91611474609375,-15.096994400024414,-8.628534317016602,-1.844455599784851
1761132234661114600,1.926114501953125,-15.079044342041016,-8.654787063598633,-1.7051324844360352
1761132234671114800,1.93611474609375,-12.467601776123047,-9.886130332946777,-4.434821128845215
1761132234681114600,1.946114501953125,-11.487780570983887,-10.021211624145508,-4.73061990737915
1761132234691114800,1.95611474609375,-10.57863712310791,-9.961282730102539,-4.772212028503418
1761132234701114600,1.966114501953125,-10.124553680419922,-9.823486328125,-4.285419464111328
1761132234711115500,1.976115478515625,-10.381354331970215,-9.791561126708984,-3.388096332550049
1761132234721115600,1.98611572265625,-11.043901443481445,-9.723396301269531,-2.558750629425049
1761132234731115500,1.996115478515625,-11.878144264221191,-9.612283706665039,-1.857886791229248
1761132234741115600,2.00611572265625,-12.736282348632812,-9.44871711730957,-1.3386757373809814
1761132234751115500,2.016115478515625,-13.302760124206543,-9.231889724731445,-0.9258588552474976
1761132234761115600,2.02611572265625,-13.238828659057617,-8.906007766723633,-0.37083864212036133
1761132234771115500,2.036115478515625,-12.542726516723633,-8.546411514282227,0.20188570022583008
1761132234781115600,2.04611572265625,-11.466919898986816,-8.045232772827148,0.6803693771362305
1761132234791115500,2.056115478515625,-10.614967346191406,-7.790057182312012,1.2772082090377808
1761132234801115600,2.06611572265625,-9.629436492919922,-7.5491838455200195,1.6248488426208496
1761132234811114800,2.07611474609375,-8.676898002624512,-7.325657844543457,1.5971540212631226
1761132234821114600,2.086114501953125,-7.332876205444336,-7.27915096282959,1.5604820251464844
1761132234831114800,2.09611474609375,-5.944994926452637,-6.924527168273926,1.1279734373092651
1761132234841114600,2.106114501953125,-5.076813220977783,-6.080895900726318,0.34156638383865356
1761132234851114800,2.11611474609375,-4.176793098449707,-5.058779716491699,0.2381243109703064
1761132234861114600,2.126114501953125,-2.2691597938537598,-3.0146772861480713,0.11797836422920227
1761132234881114600,2.146114501953125,5.127689361572266,2.7372379302978516,0.9535523056983948
1761132234891114800,2.15611474609375,12.136744499206543,5.543169975280762,1.0113162994384766
1761132234901114600,2.166114501953125,19.899383544921875,7.72365665435791,1.4424781799316406
1761132234911115500,2.176115478515625,27.274951934814453,9.914414405822754,1.697758436203003
1761132234921115400,2.186115478515625,33.412044525146484,11.507306098937988,2.5249757766723633
1761132234931115500,2.196115478515625,40.22228240966797,11.691186904907227,4.072046279907227
1761132234941115400,2.206115478515625,40.19124984741211,11.906896591186523,3.757051944732666
1761132234951115500,2.216115478515625,45.981388092041016,11.154653549194336,6.764035224914551
1761132234961115400,2.226115478515625,51.05604553222656,7.273759841918945,8.559891700744629
1761132234971115500,2.236115478515625,51.02286148071289,7.435482025146484,8.537577629089355
1761132234981115400,2.246115478515625,30.984718322753906,8.154831886291504,0.5207034349441528
1761132234991115500,2.256115478515625,21.382539749145508,8.217727661132812,-2.3074581623077393
1761132235001115400,2.266115478515625,16.97747039794922,8.215707778930664,-3.0037267208099365
1761132235011114800,2.27611474609375,16.118791580200195,8.033475875854492,-1.1902167797088623
1761132235021114600,2.286114501953125,12.795293807983398,5.548677444458008,1.1758410930633545
1761132235031114500,2.296114501953125,6.579832077026367,3.3176064491271973,2.458287000656128
1761132235041114600,2.306114501953125,0.15848636627197266,1.8304200172424316,3.297694683074951
1761132235051114500,2.316114501953125,-6.5982770919799805,0.28653907775878906,3.2949154376983643
1761132235061114600,2.326114501953125,-12.012614250183105,-0.9841873645782471,2.0314855575561523
1761132235071114500,2.336114501953125,-15.306384086608887,-2.274127960205078,0.1527196168899536
1761132235081114600,2.346114501953125,-16.525697708129883,-3.4693100452423096,-1.7751944065093994
1761132235091114800,2.35611474609375,-15.65490436553955,-4.468626499176025,-4.056451320648193
1761132235101114600,2.366114501953125,-13.495248794555664,-5.65059757232666,-5.190329074859619
1761132235111115500,2.376115478515625,-11.652310371398926,-7.096510410308838,-4.845139980316162
1761132235121115600,2.38611572265625,-11.230192184448242,-7.825814723968506,-4.324294090270996
1761132235131115500,2.396115478515625,-12.456062316894531,-8.383804321289062,-3.737865924835205
1761132235141115600,2.40611572265625,-14.531250953674316,-8.751493453979492,-3.406829595565796
1761132235151115500,2.416115478515625,-16.612154006958008,-8.805347442626953,-2.8658535480499268
1761132235161115400,2.426115478515625,-17.591997146606445,-8.273004531860352,-2.7732226848602295
1761132235171115500,2.436115478515625,-17.678464889526367,-9.459081649780273,-2.0637564659118652
1761132235181115400,2.446115478515625,-16.404083251953125,-9.053783416748047,-2.86043643951416
1761132235191115500,2.456115478515625,-14.323360443115234,-9.135255813598633,-3.5048928260803223
1761132235201115400,2.466115478515625,-12.083257675170898,-9.44245719909668,-3.6562514305114746
1761132235211114800,2.47611474609375,-10.425976753234863,-9.446027755737305,-4.335623264312744
1761132235221114600,2.486114501953125,-9.641409873962402,-9.275650024414062,-4.187853813171387
1761132235231114800,2.49611474609375,-9.7640962600708,-8.677350997924805,-3.5705809593200684
1761132235241114600,2.506114501953125,-10.54251766204834,-7.9878249168396,-2.844714641571045
1761132235251114800,2.51611474609375,-11.56493091583252,-7.300802230834961,-2.0353760719299316
1761132235261114600,2.526114501953125,-12.376001358032227,-6.7439727783203125,-1.3521203994750977
1761132235271114800,2.53611474609375,-12.945158004760742,-6.487534046173096,-1.0148205757141113
1761132235281114600,2.546114501953125,-13.383386611938477,-6.311539649963379,-1.1660914421081543
1761132235291114800,2.55611474609375,-13.245697021484375,-6.133078575134277,-0.9474543333053589
1761132235301114600,2.566114501953125,-12.421287536621094,-6.0205841064453125,-0.7850879430770874
1761132235311115500,2.576115478515625,-11.004907608032227,-6.009520530700684,-0.7505730986595154
1761132235321115400,2.586115478515625,-9.368596076965332,-5.8715105056762695,-0.854004442691803
1761132235331115500,2.596115478515625,-7.689955711364746,-5.617362976074219,-0.9061377048492432
1761132235341115400,2.606115478515625,-5.931678771972656,-5.184242248535156,-0.9124430418014526
1761132235351115500,2.616115478515625,-3.983130931854248,-4.3613386154174805,-0.8165470361709595
1761132235361115400,2.626115478515625,-1.518559455871582,-3.6634984016418457,-0.4931703805923462
1761132235371115500,2.636115478515625,1.527872085571289,-3.1275649070739746,-0.16497641801834106
1761132235381115600,2.64611572265625,5.482265472412109,-2.1710970401763916,-0.3477768898010254
1761132235391115500,2.656115478515625,8.44882583618164,-1.2663682699203491,-0.06798870116472244
1761132235401115400,2.666115478515625,11.47433090209961,0.5311441421508789,-0.6215794682502747
1761132235411114500,2.676114501953125,12.993375778198242,2.6208834648132324,-1.8282537460327148
1761132235421114600,2.686114501953125,14.144736289978027,5.072227478027344,-3.1358821392059326
1761132235431114500,2.696114501953125,16.76675796508789,7.506149768829346,-5.087238788604736
1761132235441114600,2.706114501953125,20.81537628173828,9.565054893493652,-7.098164081573486
1761132235451114500,2.716114501953125,20.807275772094727,9.598581314086914,-7.156777381896973
1761132235461114600,2.726114501953125,26.24070167541504,10.649420738220215,-5.708198547363281
1761132235471114500,2.736114501953125,41.51289367675781,8.532830238342285,5.103731632232666
1761132235481114600,2.746114501953125,41.518028259277344,8.672334671020508,4.679388999938965
1761132235491114500,2.756114501953125,37.11656188964844,5.877004623413086,9.141990661621094
1761132235501114600,2.766114501953125,30.19182014465332,6.821998596191406,6.414304256439209
1761132235511115500,2.776115478515625,23.022903442382812,7.26970100402832,3.441045045852661
1761132235521115400,2.786115478515625,19.604137420654297,6.967036724090576,1.0793390274047852
1761132235531115500,2.796115478515625,16.81298065185547,6.0787353515625,-0.25373154878616333
1761132235541115400,2.806115478515625,13.674193382263184,5.245235919952393,-0.3282804489135742
1761132235551115500,2.816115478515625,11.0936918258667,4.4402337074279785,0.055279672145843506
1761132235561115400,2.826115478515625,8.355626106262207,2.8296589851379395,0.8641277551651001
1761132235571115500,2.836115478515625,5.158622741699219,0.9542289972305298,2.270637035369873
1761132235581115400,2.846115478515625,1.4514703750610352,-0.3194507360458374,3.4505529403686523
1761132235591115500,2.856115478515625,-2.9984922409057617,-1.2362697124481201,4.0576934814453125
1761132235601115600,2.86611572265625,-7.427961349487305,-1.9803619384765625,3.675459861755371
1761132235611114800,2.87611474609375,-7.355853080749512,-2.2393264770507812,3.662400245666504
1761132235621114600,2.886114501953125,-12.552159309387207,-3.05873966217041,1.5785905122756958
1761132235631114800,2.89611474609375,-13.527158737182617,-3.5009915828704834,0.7141098976135254
1761132235641114600,2.906114501953125,-14.045194625854492,-3.664015054702759,0.34440040588378906
1761132235651114800,2.91611474609375,-14.673379898071289,-4.090808391571045,0.4992114305496216
1761132235661114600,2.926114501953125,-15.098150253295898,-4.545631408691406,0.5212354063987732
1761132235671114500,2.936114501953125,-14.879006385803223,-4.845261096954346,0.37030309438705444
1761132235681114600,2.946114501953125,-14.432928085327148,-5.210504055023193,0.34303539991378784
1761132235691114500,2.956114501953125,-14.332476615905762,-5.706930160522461,0.24631762504577637
1761132235701114600,2.966114501953125,-14.539966583251953,-6.001046657562256,0.10017549991607666
1761132235711115500,2.976115478515625,-14.58784008026123,-6.254146575927734,-0.061487019062042236
1761132235721115400,2.986115478515625,-14.346887588500977,-6.684113502502441,-0.44870585203170776
1761132235731115500,2.996115478515625,-13.726375579833984,-7.184340476989746,-1.1237993240356445
1761132235741115600,3.00611572265625,-12.777482986450195,-7.681710243225098,-1.7617647647857666
1761132235751115500,3.016115478515625,-11.722872734069824,-8.345880508422852,-2.1282129287719727
1761132235761115600,3.02611572265625,-10.831829071044922,-8.88995361328125,-2.249297857284546
1761132235771115500,3.036115478515625,-9.92617416381836,-9.40558910369873,-1.6825101375579834
1761132235781115600,3.04611572265625,-9.255746841430664,-9.824630737304688,-1.245025634765625
1761132235791115500,3.056115478515625,-9.410347938537598,-10.208536148071289,-1.2820783853530884
1761132235801115600,3.06611572265625,-10.379631042480469,-10.47712516784668,-1.4154696464538574
1761132235811114800,3.07611474609375,-11.202825546264648,-10.435726165771484,-1.69549560546875
1761132235821115000,3.086114990234375,-11.702351570129395,-10.386533737182617,-2.025036334991455
1761132235831114800,3.09611474609375,-11.880339622497559,-10.556258201599121,-2.3834455013275146
1761132235841115000,3.106114990234375,-11.697452545166016,-10.582470893859863,-2.503566265106201
1761132235851114800,3.11611474609375,-11.073705673217773,-10.600685119628906,-2.132131814956665
1761132235861115000,3.126114990234375,-9.411218643188477,-10.400076866149902,-1.1839473247528076
1761132235871114800,3.13611474609375,-7.6883649826049805,-10.19357681274414,-0.7893240451812744
1761132235881115000,3.146114990234375,-5.6417083740234375,-9.723615646362305,-1.3712658882141113
1761132235891114800,3.15611474609375,-3.4131550788879395,-9.018329620361328,-2.0800862312316895
1761132235901114600,3.166114501953125,-1.0538411140441895,-7.869413375854492,-2.6111671924591064
1761132235911115500,3.176115478515625,1.3319950103759766,-5.937993049621582,-3.2743773460388184
1761132235921115600,3.18611572265625,1.3005180358886719,-5.904696941375732,-3.378107786178589
1761132235931115800,3.19611572265625,7.9458160400390625,-0.29261207580566406,-6.277654647827148
1761132235941115600,3.20611572265625,11.486427307128906,3.1692395210266113,-7.641116142272949
1761132235951115500,3.216115478515625,15.127028465270996,7.047027587890625,-6.94724702835083
1761132235961115600,3.22611572265625,18.88481903076172,10.576321601867676,-4.66204833984375
1761132235971115500,3.236115478515625,18.809598922729492,10.712793350219727,-4.951928615570068
1761132235981115600,3.24611572265625,26.995168685913086,11.231687545776367,1.7770289182662964
1761132235991115500,3.256115478515625,31.27121353149414,8.696134567260742,2.401034355163574
1761132236001115600,3.26611572265625,34.503929138183594,6.0261454582214355,-0.6514441967010498
1761132236011115000,3.276114990234375,34.41045379638672,4.848453521728516,-1.9536640644073486
1761132236021115100,3.286115234375,29.844600677490234,6.242831230163574,-1.7456337213516235
1761132236031115000,3.296114990234375,22.79572868347168,8.111851692199707,-0.9056316614151001
1761132236041115000,3.306114990234375,16.618976593017578,9.111893653869629,-0.03128271549940109
1761132236051115000,3.316114990234375,16.253761291503906,8.8307523727417,-0.7965089678764343
1761132236061115000,3.326114990234375,16.904495239257812,6.85080099105835,-2.330394983291626
1761132236071115000,3.336114990234375,14.809361457824707,5.394311904907227,-1.8878282308578491
1761132236081115000,3.346114990234375,12.123798370361328,5.393651008605957,0.06618265807628632
1761132236091115000,3.356114990234375,7.666893005371094,5.430800437927246,3.031179189682007
1761132236101115000,3.366114990234375,2.802496910095215,4.852718830108643,6.5097832679748535
1761132236111115800,3.37611572265625,-0.8497638702392578,4.090919017791748,7.686578273773193
1761132236121116000,3.386115966796875,-3.4051380157470703,2.263404369354248,7.73574161529541
1761132236131115800,3.39611572265625,-6.063354015350342,0.7015736103057861,6.975320339202881
1761132236141116000,3.406115966796875,-8.281476974487305,-0.43290281295776367,6.02890682220459
1761132236151115800,3.41611572265625,-11.046180725097656,-1.4563599824905396,5.531845569610596
1761132236161115600,3.42611572265625,-13.671405792236328,-2.144908905029297,4.8728508949279785
1761132236171115800,3.43611572265625,-15.321383476257324,-2.9350662231445312,3.3853137493133545
1761132236181116000,3.446115966796875,-15.225481033325195,-3.9454989433288574,1.3003993034362793
1761132236191115800,3.45611572265625,-13.436800956726074,-5.049356460571289,-0.37313252687454224
1761132236201116000,3.466115966796875,-10.643503189086914,-6.039250373840332,-0.8009803295135498
1761132236211115000,3.476114990234375,-8.23389720916748,-6.961264133453369,-0.7021154165267944
1761132236221115000,3.486114990234375,-7.723625659942627,-7.645460605621338,-0.3575292229652405
1761132236231114800,3.49611474609375,-8.461160659790039,-8.035284996032715,0.08509203791618347
1761132236241115000,3.506114990234375,-9.77052116394043,-8.292643547058105,0.6996444463729858
1761132236251115000,3.516114990234375,-11.06745719909668,-8.532047271728516,1.5363318920135498
1761132236261115000,3.526114990234375,-11.906623840332031,-8.716986656188965,2.029937267303467
1761132236271114800,3.53611474609375,-12.304460525512695,-8.995256423950195,1.697967767715454
1761132236281115000,3.546114990234375,-12.209718704223633,-9.272951126098633,1.1691129207611084
1761132236291114800,3.55611474609375,-11.763537406921387,-9.516849517822266,0.47978290915489197
1761132236301115000,3.566114990234375,-10.982632637023926,-9.527132987976074,-0.21699151396751404
1761132236311115500,3.576115478515625,-9.412729263305664,-9.568236351013184,-0.3976005017757416
1761132236321115400,3.586115478515625,-7.099217414855957,-9.328657150268555,-1.0130906105041504
1761132236331115500,3.596115478515625,-5.005457878112793,-8.810391426086426,-2.116823434829712
1761132236341115400,3.606115478515625,-3.9476611614227295,-8.199264526367188,-3.0953152179718018
1761132236351115500,3.616115478515625,-3.1260337829589844,-7.541110515594482,-4.134607791900635
1761132236361115400,3.626115478515625,-1.9904980659484863,-6.558199405670166,-5.245048522949219
1761132236371115500,3.636115478515625,-0.011792659759521484,-4.98795223236084,-5.756674766540527
1761132236381115600,3.64611572265625,3.6018471717834473,-3.192446708679199,-5.2653727531433105
1761132236391115500,3.656115478515625,6.528115749359131,-0.6559319496154785,-5.9897541999816895
1761132236401115400,3.666115478515625,7.720216274261475,2.1027002334594727,-8.383855819702148
1761132236411114800,3.67611474609375,7.987326145172119,5.560690402984619,-10.222293853759766
1761132236421114600,3.686114501953125,7.574085235595703,8.609216690063477,-8.930380821228027
1761132236431114800,3.69611474609375,7.636256217956543,11.67525577545166,-5.709048748016357
1761132236441114600,3.706114501953125,10.855587005615234,13.540773391723633,-2.6870923042297363
1761132236451114800,3.71611474609375,16.87547492980957,11.775086402893066,0.31133604049682617
1761132236461114600,3.726114501953125,23.08514404296875,7.347395896911621,3.439195156097412
1761132236471114500,3.736114501953125,27.75006866455078,3.063894748687744,3.2022593021392822
1761132236481114600,3.746114501953125,31.63619613647461,0.29337501525878906,0.08346271514892578
1761132236491114500,3.756114501953125,30.601804733276367,-0.7529048919677734,-4.657149314880371
1761132236501114600,3.766114501953125,23.544849395751953,0.25571775436401367,-8.335916519165039
1761132236511115500,3.776115478515625,16.407474517822266,1.3448152542114258,-10.238565444946289
1761132236521115400,3.786115478515625,10.602863311767578,2.3808975219726562,-10.866868019104004
1761132236531115500,3.796115478515625,7.408634185791016,2.833984851837158,-9.971384048461914
1761132236541115400,3.806115478515625,5.640453338623047,2.224090099334717,-8.083658218383789
1761132236551115500,3.816115478515625,3.739954948425293,1.0593442916870117,-6.351171493530273
1761132236561115400,3.826115478515625,1.1275434494018555,-0.2597031593322754,-4.338973045349121
1761132236571115000,3.836114990234375,-1.5407586097717285,-1.702749490737915,-2.5286426544189453
1761132236581115100,3.846115234375,-4.102667331695557,-2.983614921569824,-0.7308416366577148
1761132236591115000,3.856114990234375,-6.2743000984191895,-3.84076189994812,1.2590950727462769
1761132236601115100,3.866115234375,-7.613818168640137,-4.604053020477295,3.0819945335388184
1761132236611114200,3.8761142578125,-8.217613220214844,-5.14116907119751,3.861461877822876
1761132236621114400,3.8861142578125,-8.740508079528809,-5.693692684173584,3.6903152465820312
1761132236631114200,3.8961142578125,-9.39286994934082,-6.2259907722473145,3.3877716064453125
1761132236641114400,3.9061142578125,-10.339387893676758,-6.67806339263916,3.1972808837890625
1761132236651114200,3.9161142578125,-11.403379440307617,-6.901673793792725,2.9768691062927246
1761132236661114000,3.926114013671875,-12.41777229309082,-7.0011372566223145,2.4456846714019775
1761132236671114200,3.9361142578125,-13.216209411621094,-6.950474739074707,2.167884588241577
1761132236681114000,3.946114013671875,-14.101845741271973,-7.103134632110596,2.234929323196411
1761132236691114200,3.9561142578125,-14.418703079223633,-7.180389881134033,2.2085652351379395
1761132236701114000,3.966114013671875,-14.39405632019043,-7.165492057800293,2.020569324493408
1761132236711115000,3.976114990234375,-14.25756549835205,-7.176316261291504,1.6879441738128662
1761132236721115100,3.986115234375,-13.976842880249023,-7.334384441375732,1.1871646642684937
1761132236731115000,3.996114990234375,-13.399702072143555,-7.382530212402344,0.6002262830734253
1761132236741115100,4.006115234375,-12.545137405395508,-7.533505439758301,0.2069796919822693
1761132236751115000,4.016114990234375,-11.495153427124023,-7.716655254364014,-0.3729082942008972
1761132236761115100,4.026115234375,-10.371698379516602,-7.997479438781738,-0.9319843649864197
1761132236771114800,4.03611474609375,-9.446247100830078,-8.11454963684082,-1.683439016342163
1761132236781114600,4.046114501953125,-8.635977745056152,-8.144640922546387,-2.264854907989502
1761132236791114800,4.05611474609375,-7.796059608459473,-8.137815475463867,-2.9457740783691406
1761132236801114600,4.066114501953125,-7.568108558654785,-7.801354885101318,-3.422532320022583
1761132236811114000,4.076114013671875,-7.25314474105835,-7.410078048706055,-3.200406312942505
1761132236821113900,4.08611376953125,-5.880888938903809,-6.661130905151367,-2.7269034385681152
1761132236831114000,4.096114013671875,-4.144352436065674,-5.83917760848999,-2.325242042541504
1761132236841113900,4.10611376953125,-2.00667142868042,-4.9775261878967285,-2.8177576065063477
1761132236851114000,4.116114013671875,0.6019401550292969,-3.7017760276794434,-4.362834930419922
1761132236861113900,4.12611376953125,3.0374584197998047,-2.3697173595428467,-5.835472583770752
1761132236871114200,4.1361142578125,6.515172958374023,-0.4826040267944336,-6.221090793609619
1761132236881114400,4.1461142578125,10.884259223937988,2.0852065086364746,-5.725583553314209
1761132236891114200,4.1561142578125,16.287925720214844,4.365410804748535,-4.496076583862305
1761132236901114400,4.1661142578125,23.345726013183594,5.716828346252441,-2.9807677268981934
1761132236911115000,4.176114990234375,31.73434066772461,5.614860534667969,-1.7561941146850586
1761132236921115100,4.186115234375,41.032958984375,3.097590923309326,-1.1016324758529663
1761132236931115000,4.196114990234375,47.65303039550781,0.8725864887237549,-1.9400544166564941
1761132236941115100,4.206115234375,46.35894012451172,0.16768479347229004,-2.7088308334350586
1761132236951115000,4.216114990234375,38.666229248046875,2.5161452293395996,-2.103184700012207
1761132236961115100,4.226115234375,27.90745735168457,5.027556896209717,-1.3865470886230469
1761132236971115000,4.236114990234375,19.52001190185547,6.136383533477783,-0.6887292265892029
1761132236981115100,4.246115234375,12.739959716796875,6.284522533416748,-0.2781211733818054
1761132236991115000,4.256114990234375,8.097548484802246,5.505618095397949,-0.48238182067871094
1761132237001115100,4.266115234375,5.158383369445801,4.26017427444458,-0.8180743455886841
1761132237011114200,4.2761142578125,3.32053279876709,3.1904966831207275,-0.9754554033279419
1761132237021114400,4.2861142578125,1.2907476425170898,2.6453001499176025,-0.9690645337104797
1761132237031114200,4.2961142578125,-0.5890607833862305,2.502046823501587,0.05525866150856018
1761132237041114000,4.306114013671875,-2.7436790466308594,2.5118422508239746,1.5731260776519775
1761132237051114200,4.3161142578125,-5.7206926345825195,2.1808643341064453,3.26122784614563
1761132237061114000,4.326114013671875,-9.101703643798828,1.7413039207458496,4.178237438201904
1761132237071114500,4.336114501953125,-12.305511474609375,1.2220239639282227,4.563532829284668
1761132237081114600,4.346114501953125,-14.928132057189941,0.5788495540618896,4.432494163513184
1761132237091114500,4.356114501953125,-16.31711196899414,0.1100623607635498,3.7384872436523438
1761132237101114600,4.366114501953125,-16.48638153076172,-0.41078805923461914,2.99299955368042
1761132237111115500,4.376115478515625,-15.676498413085938,-1.4261397123336792,2.1550371646881104
1761132237121115600,4.38611572265625,-15.138050079345703,-1.5279334783554077,1.382735013961792
1761132237131115500,4.396115478515625,-14.289556503295898,-2.659292697906494,1.9899098873138428
1761132237141115600,4.40611572265625,-13.496721267700195,-3.0191233158111572,1.700454592704773
1761132237151115500,4.416115478515625,-13.263110160827637,-3.0502243041992188,0.9609318375587463
1761132237161115400,4.426115478515625,-13.173511505126953,-3.5414586067199707,0.521594762802124
1761132237171115500,4.436115478515625,-13.164806365966797,-3.566011905670166,0.4929644465446472
1761132237181115600,4.44611572265625,-13.600750923156738,-4.758672714233398,-1.062986135482788
1761132237191115500,4.456115478515625,-13.485488891601562,-5.377724647521973,-2.2081992626190186
1761132237201115600,4.46611572265625,-12.650378227233887,-5.941891670227051,-3.063932180404663
1761132237211114800,4.47611474609375,-11.353985786437988,-6.475070953369141,-3.807596445083618
1761132237221114600,4.486114501953125,-9.969609260559082,-6.873237609863281,-4.128666877746582
1761132237231114800,4.49611474609375,-8.773660659790039,-7.166306495666504,-3.912870168685913
1761132237241114600,4.506114501953125,-7.9423370361328125,-7.183650016784668,-3.428288698196411
1761132237251114800,4.51611474609375,-7.611843585968018,-7.110707759857178,-2.679351329803467
1761132237261114600,4.526114501953125,-7.804740905761719,-7.040399551391602,-1.9924664497375488
1761132237271114800,4.53611474609375,-8.141159057617188,-6.832111358642578,-1.6034677028656006
1761132237281114600,4.546114501953125,-8.347931861877441,-6.968937397003174,-1.5969802141189575
1761132237311115500,4.576115478515625,-6.163798809051514,-6.829549312591553,-1.5230540037155151
1761132237321115400,4.586115478515625,-3.482428550720215,-6.528727054595947,-2.108686923980713
1761132237331115500,4.596115478515625,-0.28703880310058594,-6.154384613037109,-2.302983522415161
1761132237341115400,4.606115478515625,4.18440055847168,-5.199189186096191,-2.094423532485962
1761132237351115500,4.616115478515625,9.380605697631836,-2.9695639610290527,-2.8855268955230713
1761132237361115600,4.62611572265625,13.86910629272461,-1.0366417169570923,-2.342315912246704
1761132237371115500,4.636115478515625,16.793010711669922,2.4688949584960938,-2.541712522506714
1761132237381115600,4.64611572265625,20.09878921508789,5.612273216247559,-3.228245496749878
1761132237391115500,4.656115478515625,26.444446563720703,6.595383644104004,-1.7011113166809082
1761132237401115400,4.666115478515625,33.94095230102539,6.409191131591797,0.4697457551956177
1761132237411114800,4.67611474609375,39.44189453125,5.828433513641357,1.8404618501663208
1761132237421115000,4.686114990234375,43.3836784362793,5.316864967346191,2.778024911880493
1761132237431114800,4.69611474609375,44.79672622680664,5.76492977142334,3.348684310913086
1761132237441115000,4.706114990234375,41.75691223144531,7.157109260559082,4.154295921325684
1761132237451114800,4.71611474609375,34.67417907714844,8.992189407348633,5.007054328918457
1761132237461115000,4.726114990234375,26.85546875,10.042082786560059,6.039691925048828
1761132237471114800,4.73611474609375,19.54210662841797,9.822271347045898,6.658090591430664
1761132237481114600,4.746114501953125,12.49722957611084,8.258106231689453,6.468627452850342
1761132237491114800,4.75611474609375,7.199958801269531,6.485688209533691,5.633062362670898
1761132237501114600,4.766114501953125,2.5127859115600586,4.547768592834473,4.677952766418457
1761132237511115500,4.776115478515625,-1.3551645278930664,2.5087974071502686,3.6938974857330322
1761132237521115600,4.78611572265625,-4.484330177307129,0.5181773900985718,2.3257930278778076
1761132237531115500,4.796115478515625,-7.340480804443359,-1.272037386894226,1.0645062923431396
1761132237541115600,4.80611572265625,-10.31115436553955,-2.861260175704956,0.11311398446559906
1761132237551115500,4.816115478515625,-12.518810272216797,-3.989569664001465,-0.06250724196434021
1761132237561115600,4.82611572265625,-14.178508758544922,-4.951427459716797,0.03488893806934357
1761132237571115800,4.83611572265625,-15.42538070678711,-5.715336799621582,0.07115589082241058
1761132237581115600,4.84611572265625,-16.379135131835938,-6.418865203857422,0.37385350465774536
1761132237591115800,4.85611572265625,-17.261362075805664,-6.866065979003906,0.9299941062927246
1761132237601115600,4.86611572265625,-18.300716400146484,-7.157781600952148,1.6400537490844727
1761132237611114800,4.87611474609375,-19.082706451416016,-7.38945198059082,2.0795843601226807
1761132237621115000,4.886114990234375,-19.434642791748047,-7.670724868774414,2.294076442718506
1761132237631114800,4.89611474609375,-19.415016174316406,-7.880928039550781,1.985668420791626
1761132237641115000,4.906114990234375,-19.12671661376953,-8.56545639038086,1.4283820390701294
1761132237651114800,4.91611474609375,-18.093656539916992,-8.61058235168457,-0.24635083973407745
1761132237661115000,4.926114990234375,-16.176883697509766,-9.079421997070312,-1.7398065328598022
1761132237671114800,4.93611474609375,-14.276391983032227,-9.552597045898438,-2.9489033222198486
1761132237681115000,4.946114990234375,-12.380156517028809,-9.749198913574219,-3.98305082321167
1761132237691114800,4.95611474609375,-10.467875480651855,-9.849464416503906,-4.563502311706543
1761132237701115000,4.966114990234375,-9.001907348632812,-9.840100288391113,-4.7149128913879395
1761132237711115500,4.976115478515625,-8.19140625,-9.718160629272461,-4.250188827514648
1761132237721115400,4.986115478515625,-7.971934795379639,-9.597759246826172,-3.350342035293579
1761132237731115500,4.996115478515625,-7.953779697418213,-9.536263465881348,-2.9106907844543457
1761132237741115600,5.00611572265625,-8.430423736572266,-9.39869499206543,-2.6980509757995605
1761132237751115500,5.016115478515625,-9.199180603027344,-9.057757377624512,-2.633082866668701
1761132237761115600,5.02611572265625,-9.546902656555176,-8.507683753967285,-2.467076301574707
1761132237771115500,5.036115478515625,-8.901262283325195,-7.606010437011719,-2.4227325916290283
1761132237781115400,5.046115478515625,-7.056240558624268,-6.595870494842529,-2.194293260574341
1761132237791115500,5.056115478515625,-4.031593322753906,-5.459878921508789,-1.1816987991333008
1761132237801115400,5.066115478515625,-0.27939605712890625,-3.9645273685455322,0.0929933488368988
1761132237811114800,5.07611474609375,3.0605525970458984,-2.3908724784851074,1.6171427965164185
1761132237821114600,5.086114501953125,5.59971809387207,-0.44835877418518066,2.718499183654785
1761132237831114800,5.09611474609375,6.734065055847168,2.4268476963043213,2.857452869415283
1761132237841114600,5.106114501953125,5.801145553588867,6.047975063323975,1.108109951019287
1761132237851114800,5.11611474609375,5.4733734130859375,10.06180191040039,-1.1345561742782593
1761132237861114600,5.126114501953125,8.72452163696289,12.729789733886719,-1.7743405103683472
1761132237871114800,5.13611474609375,15.665209770202637,14.014575958251953,-2.3001296520233154
1761132237881114600,5.146114501953125,23.871196746826172,14.216981887817383,-2.8629395961761475
1761132237891114800,5.15611474609375,31.938209533691406,12.881027221679688,-3.585209369659424
1761132237901114600,5.166114501953125,38.22581481933594,11.158370971679688,-4.103518486022949
1761132237911115500,5.176115478515625,40.917808532714844,9.475595474243164,-3.9320037364959717
1761132237921115400,5.186115478515625,39.53691101074219,9.256845474243164,-3.406012773513794
1761132237931115500,5.196115478515625,34.611900329589844,9.784032821655273,-1.794108510017395
1761132237941115400,5.206115478515625,27.95144271850586,9.817243576049805,-0.6428613662719727
1761132237951115500,5.216115478515625,20.65274429321289,9.102119445800781,-0.15772995352745056
1761132237961115400,5.226115478515625,14.347878456115723,7.734090805053711,0.05577018857002258
1761132237971115500,5.236115478515625,8.524327278137207,6.20596981048584,0.41086769104003906
1761132237981115400,5.246115478515625,4.049923896789551,4.297512054443359,1.1000001430511475
1761132237991115500,5.256115478515625,1.2858343124389648,2.109774589538574,1.8412572145462036
1761132238001115400,5.266115478515625,-0.4642448425292969,-0.16825175285339355,2.5962038040161133
1761132238011114500,5.276114501953125,-0.4246492385864258,-0.3233025074005127,2.4896039962768555
1761132238021114600,5.286114501953125,-3.7106099128723145,-2.7310519218444824,3.3945298194885254
1761132238031114500,5.296114501953125,-6.001607418060303,-3.435509204864502,2.885668992996216
1761132238041114600,5.306114501953125,-8.478939056396484,-3.967510938644409,2.314730167388916
1761132238051114500,5.316114501953125,-10.367379188537598,-4.507450103759766,1.6003090143203735
1761132238061114600,5.326114501953125,-12.17506217956543,-5.554736137390137,1.3836137056350708
1761132238071114500,5.336114501953125,-13.88818645477295,-6.076143264770508,1.3103556632995605
1761132238081114600,5.346114501953125,-15.508563995361328,-6.322451591491699,1.3563697338104248
1761132238091114800,5.35611474609375,-15.416851043701172,-6.529181003570557,1.3158299922943115
1761132238101114600,5.366114501953125,-16.8056640625,-6.63044548034668,1.599862813949585
1761132238111115500,5.376115478515625,-18.12510108947754,-6.855939865112305,2.567007064819336
1761132238121115600,5.38611572265625,-18.237024307250977,-6.761659622192383,2.001218795776367
1761132238131115500,5.396115478515625,-17.614219665527344,-6.701622009277344,1.3670070171356201
1761132238141115600,5.40611572265625,-16.489627838134766,-6.91240119934082,0.9434816241264343
1761132238151115500,5.416115478515625,-14.548398971557617,-6.995301246643066,0.1903068870306015
1761132238161115400,5.426115478515625,-12.294095993041992,-7.02887487411499,-0.541063129901886
1761132238171116000,5.436115966796875,-12.319740295410156,-6.981104850769043,-0.5375925302505493
1761132238181116000,5.446115966796875,-9.28227710723877,-6.941511154174805,-0.7944743037223816
1761132238191116000,5.456115966796875,-8.89266300201416,-6.567877769470215,-0.41004693508148193
1761132238201116000,5.466115966796875,-8.911853790283203,-6.100499629974365,0.2194492667913437
1761132238211115000,5.476114990234375,-9.378107070922852,-5.625840663909912,0.47639310359954834
1761132238221115100,5.486115234375,-9.670267105102539,-5.194586753845215,0.6433665752410889
1761132238231115000,5.496114990234375,-10.059001922607422,-5.2694830894470215,-0.16408056020736694
1761132238241115100,5.506115234375,-9.72104263305664,-4.380840301513672,0.2355608344078064
1761132238251115000,5.516114990234375,-8.731424331665039,-3.9517297744750977,-0.10253418982028961
1761132238261115100,5.526115234375,-5.786872386932373,-3.908392906188965,-1.4186596870422363
1761132238271115000,5.536114990234375,-3.949557304382324,-4.029695987701416,-2.670713424682617
1761132238281115100,5.546115234375,-0.5862188339233398,-3.5088517665863037,-1.9594779014587402
1761132238291115000,5.556114990234375,3.4240846633911133,-2.032545804977417,-2.4924232959747314
1761132238301115100,5.566115234375,6.041908264160156,-0.6038970947265625,-2.408780097961426
1761132238311115800,5.57611572265625,7.226675033569336,1.1804389953613281,-2.8806228637695312
1761132238321116000,5.586115966796875,6.477397918701172,3.2426319122314453,-4.461334705352783
1761132238331115800,5.59611572265625,4.288712501525879,6.360527992248535,-6.413959503173828
1761132238341116000,5.606115966796875,1.0313787460327148,9.173660278320312,-7.60931921005249
1761132238351116000,5.616115966796875,1.8050956726074219,12.794519424438477,-4.817694187164307
1761132238361116000,5.626115966796875,8.515393257141113,13.361888885498047,-0.9706550240516663
1761132238371116000,5.636115966796875,17.212217330932617,10.414616584777832,1.1230226755142212
1761132238381116000,5.646115966796875,22.980308532714844,9.502036094665527,-1.3155934810638428
1761132238391116000,5.656115966796875,27.93943977355957,3.8785643577575684,1.1318249702453613
1761132238401116000,5.666115966796875,29.665773391723633,0.9303567409515381,1.336861252784729
1761132238411115000,5.676114990234375,29.65131378173828,2.5119733810424805,0.655100405216217
1761132238421115000,5.686114990234375,25.56708335876465,4.783421516418457,0.5111205577850342
1761132238431115000,5.696114990234375,18.644424438476562,4.696677207946777,2.1015801429748535
1761132238441115000,5.706114990234375,12.23105525970459,5.166351318359375,1.8624377250671387
1761132238451115000,5.716114990234375,7.725115776062012,5.010878562927246,-0.2839035987854004
1761132238461115000,5.726114990234375,6.2096357345581055,3.545762300491333,-1.5630981922149658
1761132238471114500,5.736114501953125,6.861209869384766,1.9297971725463867,-1.1461138725280762
1761132238481114600,5.746114501953125,6.30057430267334,1.004164218902588,-0.5439299941062927
1761132238491114500,5.756114501953125,4.562868118286133,0.6476035118103027,-0.12718939781188965
1761132238501114600,5.766114501953125,2.0528440475463867,0.5323324203491211,0.34057146310806274
1761132238511115500,5.776115478515625,-0.6725444793701172,0.578500509262085,1.2664999961853027
1761132238521115400,5.786115478515625,-3.4054975509643555,0.7081642150878906,2.0602498054504395
1761132238531115500,5.796115478515625,-5.056919097900391,0.6655585765838623,1.808264970779419
1761132238541115400,5.806115478515625,-6.54344367980957,0.20471978187561035,1.5054881572723389
1761132238551115500,5.816115478515625,-8.239952087402344,-0.3851954936981201,1.2110090255737305
1761132238561115400,5.826115478515625,-9.952556610107422,-0.8686357736587524,1.053541898727417
1761132238571115500,5.836115478515625,-11.250890731811523,-1.1454343795776367,1.0714881420135498
1761132238581115400,5.846115478515625,-11.79675579071045,-1.4986048936843872,1.0462998151779175
1761132238591115500,5.856115478515625,-11.786128997802734,-1.992041826248169,1.0432116985321045
1761132238601115400,5.866115478515625,-11.884912490844727,-2.4685611724853516,0.9384264945983887
1761132238611114800,5.87611474609375,-12.077561378479004,-2.518078565597534,0.9938546419143677
1761132238621114600,5.886114501953125,-12.040584564208984,-2.622068166732788,1.0004757642745972
1761132238631114800,5.89611474609375,-12.15754222869873,-3.079586982727051,1.2555124759674072
1761132238641114600,5.906114501953125,-12.315461158752441,-3.5620009899139404,0.6668171882629395
1761132238651114800,5.91611474609375,-12.554912567138672,-4.057906150817871,-0.40898776054382324
1761132238661114600,5.926114501953125,-12.117880821228027,-3.900848865509033,-2.042714834213257
1761132238671114500,5.936114501953125,-12.109589576721191,-5.056436538696289,-1.267351508140564
1761132238681114600,5.946114501953125,-11.671102523803711,-5.597118854522705,-1.1219878196716309
1761132238691114500,5.956114501953125,-11.091426849365234,-5.231865882873535,-1.452665090560913
1761132238701114600,5.966114501953125,-10.19249153137207,-4.953625679016113,-1.1521568298339844
1761132238711115500,5.976115478515625,-9.372889518737793,-4.979917526245117,-0.48935770988464355
1761132238721115400,5.986115478515625,-8.916631698608398,-4.795050144195557,0.001463472843170166
1761132238731115500,5.996115478515625,-8.673591613769531,-4.499138832092285,0.2734222710132599
1761132238741115400,6.006115478515625,-8.41385555267334,-4.137027740478516,0.28321534395217896
1761132238751115500,6.016115478515625,-7.582101821899414,-3.7072057723999023,0.2245037853717804
1761132238761115400,6.026115478515625,-5.62605094909668,-2.726749897003174,0.019921064376831055
1761132238771115500,6.036115478515625,-3.358834743499756,-1.703500747680664,-0.406150221824646
1761132238781115400,6.046115478515625,-1.535219669342041,-0.8138246536254883,-1.0818243026733398
1761132238791115500,6.056115478515625,-0.5244331359863281,0.3417396545410156,-1.855795979499817
1761132238801115400,6.066115478515625,0.89154052734375,2.2632460594177246,-3.0168404579162598
1761132238811114800,6.07611474609375,3.133380889892578,4.971238136291504,-3.8149452209472656
1761132238821114600,6.086114501953125,5.27558708190918,7.072707176208496,-3.2801241874694824
1761132238831114800,6.09611474609375,6.866581916809082,5.937686443328857,-1.107157588005066
1761132238841114600,6.106114501953125,6.869091987609863,5.93011474609375,-1.1679388284683228
1761132238851114800,6.11611474609375,12.23702335357666,7.689209461212158,0.4719437062740326
1761132238861114600,6.126114501953125,15.655722618103027,7.2742018699646,-0.7164296507835388
1761132238871114800,6.13611474609375,19.072113037109375,6.425446033477783,-2.432480812072754
1761132238881114600,6.146114501953125,19.72140884399414,7.063237190246582,-4.2496185302734375
1761132238891114800,6.15611474609375,18.20029640197754,7.153993129730225,-5.313863754272461
1761132238901114600,6.166114501953125,15.40843391418457,7.753968715667725,-5.2520551681518555
1761132238911115500,6.176115478515625,11.828862190246582,8.36856460571289,-3.644209384918213
1761132238921115400,6.186115478515625,9.889086723327637,8.205232620239258,-1.559055209159851
1761132238931115500,6.196115478515625,10.383330345153809,7.060554504394531,-0.23843172192573547
1761132238941115400,6.206115478515625,11.897602081298828,5.896478652954102,-0.06925281882286072
1761132238951115500,6.216115478515625,11.740599632263184,4.318347454071045,0.13691696524620056
1761132238961115400,6.226115478515625,9.242817878723145,2.8752903938293457,0.5309722423553467
1761132238971115500,6.236115478515625,5.536221504211426,2.0079596042633057,0.13442346453666687
1761132238981115400,6.246115478515625,2.5661134719848633,2.104644536972046,-0.5737692713737488
1761132238991115500,6.256115478515625,-1.0425405502319336,1.7314207553863525,-1.1293082237243652
1761132239001115400,6.266115478515625,-2.2415504455566406,0.7934942245483398,-0.6126680374145508
1761132239011114800,6.27611474609375,-1.6512951850891113,0.12935996055603027,-0.5988982915878296
1761132239021114600,6.286114501953125,-0.44345664978027344,-0.18354344367980957,-0.7842748761177063
1761132239031114800,6.29611474609375,0.060669898986816406,-0.39270544052124023,-0.3111029267311096
1761132239041114600,6.306114501953125,-0.5340757369995117,-0.49657177925109863,0.36238893866539
1761132239051114800,6.31611474609375,-2.3480825424194336,-0.394575834274292,0.8071532249450684
1761132239061114600,6.326114501953125,-4.377389430999756,-0.3584733009338379,0.7245454788208008
1761132239071114800,6.33611474609375,-6.308102607727051,-0.5793535709381104,0.6837280988693237
1761132239081114600,6.346114501953125,-7.886728763580322,-1.0294127464294434,0.7325053811073303
1761132239091114800,6.35611474609375,-9.174549102783203,-1.4701826572418213,0.8956964015960693
1761132239101114600,6.366114501953125,-9.121392250061035,-1.6341168880462646,0.8847337961196899
1761132239111115500,6.376115478515625,-10.902326583862305,-2.137795925140381,1.41143798828125
1761132239121115600,6.38611572265625,-11.12356185913086,-2.4145445823669434,1.5368475914001465
1761132239131115500,6.396115478515625,-11.224977493286133,-2.6994423866271973,1.6066467761993408
1761132239141115600,6.40611572265625,-11.324790954589844,-2.985464334487915,1.6218267679214478
1761132239151115500,6.416115478515625,-11.168635368347168,-3.1199235916137695,1.172373652458191
1761132239161115400,6.426115478515625,-10.35817813873291,-2.9088258743286133,-0.2707340121269226
1761132239171115300,6.436115234375,-10.213191032409668,-3.9410102367401123,0.3306847810745239
1761132239181115100,6.446115234375,-10.041584014892578,-4.477246284484863,0.12395517528057098
1761132239191115300,6.456115234375,-9.984871864318848,-4.313723564147949,-0.5703216791152954
1761132239201115100,6.466115234375,-9.797957420349121,-4.229189872741699,-0.9955733418464661
1761132239211114200,6.4761142578125,-9.559389114379883,-4.625461578369141,-0.9832546710968018
1761132239221114400,6.4861142578125,-9.237905502319336,-4.8948259353637695,-0.9767626523971558
1761132239231114200,6.4961142578125,-9.067848205566406,-5.003570556640625,-0.9425928592681885
1761132239241114400,6.5061142578125,-8.733171463012695,-5.002954483032227,-1.0292003154754639
1761132239251114200,6.5161142578125,-8.165042877197266,-4.946357727050781,-1.2157018184661865
1761132239261114400,6.5261142578125,-7.520042419433594,-4.872622489929199,-1.4564857482910156
1761132239271114200,6.5361142578125,-6.665400981903076,-4.773977279663086,-1.599399447441101
1761132239281114400,6.5461142578125,-6.081055164337158,-4.533000946044922,-1.6659907102584839
1761132239291114200,6.5561142578125,-6.008062839508057,-4.2439703941345215,-2.1864218711853027
1761132239301114400,6.5661142578125,-6.043815612792969,-3.402489185333252,-3.5345656871795654
1761132239311115000,6.576114990234375,-5.988676071166992,-3.479356288909912,-3.422423839569092
1761132239321115100,6.586115234375,-1.8037781715393066,-1.2206735610961914,-6.8296990394592285
1761132239331115000,6.596114990234375,3.5273141860961914,0.6719269752502441,-8.631949424743652
1761132239341115100,6.606115234375,10.346831321716309,1.855259895324707,-9.273515701293945
1761132239351115000,6.616114990234375,15.343367576599121,1.9057660102844238,-8.07198429107666
1761132239361115100,6.626115234375,17.792797088623047,2.2368392944335938,-6.404376029968262
1761132239371115300,6.636115234375,17.750593185424805,2.285755157470703,-6.5957207679748535
1761132239381115100,6.646115234375,17.331443786621094,4.884063243865967,-3.372767686843872
1761132239391115300,6.656115234375,14.586080551147461,6.801807880401611,-1.1067769527435303
1761132239401115100,6.666115234375,12.027447700500488,8.222770690917969,1.2038953304290771
1761132239411114200,6.6761142578125,9.57211971282959,8.942054748535156,3.1838085651397705
1761132239421114400,6.6861142578125,6.857657432556152,9.130340576171875,4.4026713371276855
1761132239431114200,6.6961142578125,5.399998664855957,9.068758964538574,4.385419845581055
1761132239441114400,6.7061142578125,6.568255424499512,7.999319076538086,3.4339990615844727
1761132239451114200,6.7161142578125,8.686165809631348,5.445189476013184,2.1053738594055176
1761132239461114400,6.7261142578125,9.338079452514648,3.402733564376831,0.7379300594329834
1761132239471114500,6.736114501953125,9.142011642456055,1.8621084690093994,-0.23290684819221497
1761132239481114600,6.746114501953125,8.112638473510742,0.9853472709655762,-0.7353698015213013
1761132239491114500,6.756114501953125,6.341691970825195,0.8732171058654785,-0.48796334862709045
1761132239501114600,6.766114501953125,4.007004737854004,1.2876900434494019,0.8193663954734802
1761132239511115500,6.776115478515625,1.0700464248657227,2.0758352279663086,3.1423139572143555
1761132239521115400,6.786115478515625,-1.0576677322387695,3.0093443393707275,4.535698413848877
1761132239531115500,6.796115478515625,-2.1887240409851074,3.596942186355591,4.869622230529785
1761132239541115400,6.806115478515625,-2.5405197143554688,3.83719801902771,4.19916296005249
1761132239551115500,6.816115478515625,-3.0020127296447754,3.7771894931793213,3.2640509605407715
1761132239561115400,6.826115478515625,-3.879279136657715,4.0141143798828125,2.838855028152466
1761132239571115500,6.836115478515625,-4.768360614776611,4.98360538482666,3.2363357543945312
1761132239581115400,6.846115478515625,-4.629288673400879,5.635279178619385,4.9536309242248535
1761132239591115500,6.856115478515625,-4.916461944580078,5.49878454208374,6.491975784301758
1761132239601115400,6.866115478515625,-6.576123237609863,4.293373107910156,6.151561260223389
1761132239611114800,6.87611474609375,-8.833648681640625,3.4290761947631836,4.529595851898193
1761132239621114600,6.886114501953125,-10.725057601928711,3.0037429332733154,3.2130227088928223
1761132239631114500,6.896114501953125,-11.555832862854004,2.538804292678833,2.4242186546325684
1761132239641114600,6.906114501953125,-12.057631492614746,2.1469502449035645,2.2498669624328613
1761132239651114500,6.916114501953125,-11.994048118591309,1.5735180377960205,1.99269700050354
1761132239661114600,6.926114501953125,-10.170387268066406,0.019399404525756836,2.9859089851379395
1761132239671114500,6.936114501953125,-10.680244445800781,1.8937469720840454,0.072848379611969
1761132239681114600,6.946114501953125,-10.671758651733398,1.544140100479126,-0.6436902284622192
1761132239691114500,6.956114501953125,-10.385300636291504,-0.4015171527862549,0.2984012961387634
1761132239701114600,6.966114501953125,-9.503924369812012,-0.9432297945022583,-0.3388936519622803
1761132239711115500,6.976115478515625,-8.772438049316406,-1.0261335372924805,-1.1208347082138062
1761132239721115400,6.986115478515625,-8.08388900756836,-1.6729021072387695,-1.2163301706314087
1761132239731115500,6.996115478515625,-7.185205459594727,-2.3202497959136963,-1.0419117212295532
1761132239741115400,7.006115478515625,-6.077563762664795,-2.7398133277893066,-0.9330141544342041
1761132239751115500,7.016115478515625,-4.85292911529541,-2.893366575241089,-0.8785557746887207
1761132239761115400,7.026115478515625,-3.444596290588379,-2.832827091217041,-0.43282532691955566
1761132239771115500,7.036115478515625,-2.0289950370788574,-2.3383612632751465,-0.12009698152542114
1761132239781115400,7.046115478515625,-1.021723747253418,-1.8456114530563354,-0.17814421653747559
1761132239791115500,7.056115478515625,-0.6754732131958008,-1.4822938442230225,-1.2176744937896729
1761132239801115400,7.066115478515625,-0.6934280395507812,-0.8196107149124146,-3.565802574157715
1761132239811114500,7.076114501953125,0.5400371551513672,0.3120253086090088,-5.556270122528076
1761132239821114600,7.086114501953125,4.583046913146973,1.8763186931610107,-7.414812088012695
1761132239831114500,7.096114501953125,12.158124923706055,3.061459541320801,-8.014493942260742
1761132239841114600,7.106114501953125,21.127620697021484,3.458228349685669,-7.3777174949646
1761132239851114500,7.116114501953125,27.854141235351562,2.772706985473633,-6.243823528289795
1761132239861114600,7.126114501953125,27.821849822998047,2.877154588699341,-6.381436347961426
1761132239871114500,7.136114501953125,29.59511947631836,2.1166744232177734,-6.3113112449646
1761132239881114600,7.146114501953125,29.593238830566406,2.1139259338378906,-6.416913986206055
1761132239891114500,7.156114501953125,23.3134765625,2.963505506515503,-4.536271095275879
1761132239901114600,7.166114501953125,19.680557250976562,3.9526164531707764,-2.5547921657562256
1761132239911115500,7.176115478515625,14.912217140197754,5.539585113525391,-0.3770594894886017
1761132239921115400,7.186115478515625,10.478902816772461,6.2416791915893555,2.291261672973633
1761132239931115500,7.196115478515625,7.908166885375977,5.3812479972839355,5.3346991539001465
1761132239941115400,7.206115478515625,5.014352798461914,8.39389419555664,2.9416799545288086
1761132239951115500,7.216115478515625,1.4628114700317383,7.640094757080078,3.043304204940796
1761132239961115400,7.226115478515625,-1.0007448196411133,5.046762943267822,3.729175090789795
1761132239971115500,7.236115478515625,-1.7001218795776367,2.5827677249908447,2.5360913276672363
1761132239981115400,7.246115478515625,-1.738142967224121,1.352351427078247,0.5778889656066895
1761132239991115500,7.256115478515625,-1.199563980102539,0.6135640144348145,-0.7611100673675537
1761132240001115400,7.266115478515625,-0.7275524139404297,0.15913939476013184,-1.079354166984558
1761132240011114500,7.276114501953125,-0.9578304290771484,0.03920173645019531,-0.5251919031143188
1761132240021114600,7.286114501953125,-1.8252654075622559,0.10047781467437744,0.6053023934364319
1761132240031114500,7.296114501953125,-3.035691261291504,0.29934966564178467,2.2004337310791016
1761132240041114600,7.306114501953125,-3.850761890411377,-0.06727111339569092,4.091064453125
1761132240051114500,7.316114501953125,-4.653079032897949,-0.4910733699798584,5.515705585479736
1761132240061114600,7.326114501953125,-6.003063201904297,-0.7516735792160034,5.902757167816162
1761132240071114500,7.336114501953125,-7.941251754760742,-0.9932253360748291,5.466315269470215
1761132240081114600,7.346114501953125,-9.683747291564941,-1.204185962677002,4.366247177124023
1761132240091114500,7.356114501953125,-11.391969680786133,-1.3247637748718262,2.9881653785705566
1761132240101114600,7.366114501953125,-12.482063293457031,-1.546194314956665,2.1392982006073
1761132240111115500,7.376115478515625,-12.778324127197266,-1.8472470045089722,2.0484275817871094
1761132240121115400,7.386115478515625,-12.828200340270996,-2.416494607925415,2.565214157104492
1761132240131115500,7.396115478515625,-12.385009765625,-2.461935043334961,2.578763961791992
1761132240141115400,7.406115478515625,-12.085002899169922,-2.4259033203125,2.755276679992676
1761132240151115500,7.416115478515625,-11.833255767822266,-2.577115058898926,3.0035297870635986
1761132240161115400,7.426115478515625,-11.610495567321777,-2.8774678707122803,2.9228157997131348
1761132240171115500,7.436115478515625,-11.82179069519043,-3.0166103839874268,2.258749485015869
1761132240181115400,7.446115478515625,-11.687944412231445,-3.3111393451690674,1.9946937561035156
1761132240191115500,7.456115478515625,-10.743380546569824,-3.6238887310028076,2.0374202728271484
1761132240201115400,7.466115478515625,-9.91523265838623,-3.899357795715332,2.704326868057251
1761132240211114500,7.476114501953125,-9.324835777282715,-4.648715019226074,3.151397705078125
1761132240221114600,7.486114501953125,-7.474971294403076,-3.942572593688965,1.6016613245010376
1761132240231114500,7.496114501953125,-7.537795543670654,-4.493171691894531,2.0537288188934326
1761132240241114600,7.506114501953125,-7.565646648406982,-4.714653015136719,2.1125543117523193
1761132240251114500,7.516114501953125,-7.388088226318359,-4.1344475746154785,1.365944266319275
1761132240261114600,7.526114501953125,-6.891794204711914,-3.1049580574035645,0.5149529576301575
1761132240271114500,7.536114501953125,-5.619167327880859,-2.3440542221069336,-0.7689794898033142
1761132240281114600,7.546114501953125,-2.3178763389587402,-0.48016834259033203,-4.152865886688232
1761132240291114500,7.556114501953125,0.7221403121948242,0.3583359718322754,-4.0673322677612305
1761132240301114600,7.566114501953125,2.232240676879883,2.08784818649292,-4.834567546844482
1761132240311115500,7.576115478515625,3.9038753509521484,4.018525123596191,-6.54406213760376
1761132240321115400,7.586115478515625,5.9362640380859375,6.1602864265441895,-6.1330342292785645
1761132240331115500,7.596115478515625,6.871864318847656,8.777145385742188,-4.8037285804748535
1761132240341115400,7.606115478515625,8.779067039489746,11.35002326965332,-4.167903423309326
1761132240351115500,7.616115478515625,12.376218795776367,11.725973129272461,-1.6124615669250488
1761132240361115400,7.626115478515625,16.981250762939453,10.546716690063477,1.9446197748184204
1761132240371115500,7.636115478515625,21.588642120361328,8.413267135620117,2.9778740406036377
1761132240381115400,7.646115478515625,25.08129119873047,6.206077575683594,3.3674519062042236
1761132240391115500,7.656115478515625,24.642822265625,4.332789897918701,2.668919563293457
1761132240401115400,7.666115478515625,20.894779205322266,2.9590330123901367,1.390423059463501
1761132240411114500,7.676114501953125,15.469328880310059,2.712559938430786,-0.49340832233428955
1761132240421114600,7.686114501953125,15.414629936218262,2.8012266159057617,-0.39691078662872314
1761132240431114500,7.696114501953125,3.1196136474609375,3.336709499359131,-0.09295713901519775
1761132240441114600,7.706114501953125,0.893585205078125,3.496532440185547,0.23485803604125977
1761132240451114500,7.716114501953125,0.9072227478027344,1.8515193462371826,-0.9700223803520203
1761132240461114600,7.726114501953125,1.1276063919067383,0.9378740787506104,-1.5734816789627075
1761132240471114500,7.736114501953125,1.4473724365234375,0.30497145652770996,-1.720625400543213
1761132240481114600,7.746114501953125,0.5614538192749023,-0.49857091903686523,-1.475386619567871
1761132240491114500,7.756114501953125,-0.20657730102539062,-1.046278476715088,-1.3993933200836182
1761132240501114600,7.766114501953125,-0.9164190292358398,-0.7600301504135132,-1.0914462804794312
1761132240511115300,7.776115234375,-1.8263635635375977,0.08381819725036621,-0.5212633609771729
1761132240521115400,7.786115478515625,-3.5885982513427734,0.516768217086792,0.2903992533683777
1761132240531115300,7.796115234375,-5.464784145355225,0.7731742858886719,0.9979389309883118
1761132240541115400,7.806115478515625,-6.378545761108398,1.147599697113037,1.0310622453689575
1761132240551115300,7.816115234375,-6.459729194641113,1.0705783367156982,0.4043608605861664
1761132240561115400,7.826115478515625,-6.22959041595459,0.572190523147583,-0.43086469173431396
1761132240571115500,7.836115478515625,-6.056516647338867,0.029321908950805664,-1.1700246334075928
1761132240581115400,7.846115478515625,-6.080918312072754,-0.5150587558746338,-1.289458155632019
1761132240591115500,7.856115478515625,-6.395450592041016,-0.8193643093109131,-0.7038111686706543
1761132240601115400,7.866115478515625,-7.21333646774292,-0.8004146814346313,-0.07268136739730835
1761132240611114500,7.876114501953125,-8.27733039855957,-0.7372845411300659,0.621191143989563
1761132240621114600,7.886114501953125,-9.098441123962402,-0.7201724052429199,1.3908544778823853
1761132240631114500,7.896114501953125,-9.543269157409668,-0.6830834150314331,1.929628610610962
1761132240641114400,7.9061142578125,-9.489243507385254,-0.8396435976028442,2.1017391681671143
1761132240651114500,7.916114501953125,-8.994446754455566,-0.8825922012329102,2.098848819732666
1761132240661114400,7.9261142578125,-8.826620101928711,-1.5080339908599854,2.2543859481811523
1761132240671114500,7.936114501953125,-8.926993370056152,-2.1673381328582764,2.250718593597412
1761132240681114400,7.9461142578125,-9.192654609680176,-2.660515785217285,2.25742769241333
1761132240691114500,7.956114501953125,-9.516012191772461,-3.083378314971924,2.250699281692505
1761132240701114400,7.9661142578125,-9.77515697479248,-3.3707547187805176,2.1983935832977295
1761132240711115300,7.976115234375,-9.82446002960205,-3.509573459625244,2.1419179439544678
1761132240721115400,7.986115478515625,-7.335398197174072,-3.9682648181915283,2.7730753421783447
1761132240731115500,7.996115478515625,-5.524325847625732,-3.602397918701172,2.5962882041931152
1761132240741115400,8.006115478515625,-3.1538033485412598,-2.981785297393799,1.8736157417297363
1761132240751115500,8.016115478515625,-0.5500078201293945,-2.4049949645996094,1.3754788637161255
1761132240761115400,8.026115478515624,2.71636962890625,-1.371279001235962,-0.1305842399597168
1761132240771115500,8.036115478515624,5.980141639709473,-0.46811962127685547,-1.755507230758667
1761132240781115400,8.046115478515626,8.87981128692627,1.143688440322876,-2.791038990020752
1761132240791115500,8.056115478515625,9.641071319580078,3.7273120880126953,-2.488877534866333
1761132240801115400,8.066115478515625,8.902177810668945,7.105538368225098,-1.1195322275161743
1761132240811114500,8.076114501953125,8.466854095458984,9.864204406738281,-0.3247443437576294
1761132240821114600,8.086114501953125,9.703487396240234,9.31863021850586,0.9915204048156738
1761132240831114500,8.096114501953124,12.876547813415527,7.4609785079956055,1.980001449584961
1761132240841114600,8.106114501953124,17.710922241210938,4.656057834625244,3.347513198852539
1761132240851114500,8.116114501953126,22.193069458007812,1.7805190086364746,4.444732666015625
1761132240861114600,8.126114501953126,21.989917755126953,-0.3425121307373047,4.1664652824401855
1761132240871114500,8.136114501953125,17.942127227783203,-0.4733896255493164,2.9111151695251465
1761132240881114600,8.146114501953125,11.976929664611816,0.9104316234588623,1.6714924573898315
1761132240891114500,8.156114501953125,5.382391929626465,2.640124797821045,0.9180845022201538
1761132240901114600,8.166114501953125,0.09483051300048828,3.7339162826538086,1.2354605197906494
1761132240911115500,8.176115478515625,-2.151226043701172,3.4179859161376953,1.6054109334945679
1761132240921115400,8.186115478515624,-3.0605435371398926,2.284144878387451,1.0243395566940308
1761132240931115500,8.196115478515624,-3.3683462142944336,1.220308542251587,-0.34551846981048584
1761132240941115400,8.206115478515626,-3.4784746170043945,0.7133610248565674,-1.5013563632965088
1761132240951115500,8.216115478515626,-3.8842854499816895,0.4863314628601074,-1.7608133554458618
1761132240961115400,8.226115478515625,-4.924966335296631,0.3386507034301758,-1.3836569786071777
1761132240971115500,8.236115478515625,-5.94490385055542,0.3472330570220947,-1.0250855684280396
1761132240981115400,8.246115478515625,-6.572092056274414,0.5518357753753662,-0.2743435502052307
1761132240991115500,8.256115478515625,-7.03058385848999,0.7684695720672607,0.8021502494812012
1761132241001115400,8.266115478515625,-7.53382682800293,0.9578957557678223,1.7134194374084473
1761132241011114500,8.276114501953124,-7.522688388824463,1.127593755722046,2.0284223556518555
1761132241021114600,8.286114501953126,-6.949982643127441,1.1733005046844482,1.5043601989746094
1761132241031114500,8.296114501953125,-6.460106372833252,0.9025676250457764,0.7795525789260864
1761132241041114600,8.306114501953125,-6.261013984680176,0.3739795684814453,0.3931944668292999
1761132241051114500,8.316114501953125,-6.5353264808654785,-0.0038864612579345703,0.38832736015319824
1761132241061114600,8.326114501953125,-7.020007133483887,-0.18937349319458008,0.7565267086029053
1761132241071114500,8.336114501953125,-7.8739013671875,-0.2658092975616455,1.1218491792678833
1761132241081114600,8.346114501953124,-8.64045524597168,-0.38295865058898926,1.3869755268096924
1761132241091114500,8.356114501953124,-9.113117218017578,-0.5780088901519775,1.6676146984100342
1761132241101114600,8.366114501953126,-9.382817268371582,-0.8158392906188965,1.953289270401001
1761132241111115500,8.376115478515626,-9.18291187286377,-1.117417573928833,1.6923081874847412
1761132241121115400,8.386115478515626,-9.159831047058105,-1.7686012983322144,1.952967643737793
1761132241131115500,8.396115478515625,-9.288901329040527,-2.6282219886779785,2.081775188446045
1761132241141115400,8.406115478515625,-9.468841552734375,-2.879570245742798,1.5925630331039429
1761132241151115500,8.416115478515625,-9.618841171264648,-3.1662750244140625,1.4184470176696777
1761132241161115400,8.426115478515625,-9.146899223327637,-3.1997833251953125,0.9796507358551025
1761132241171115500,8.436115478515624,-7.866798400878906,-3.0931620597839355,0.6468247175216675
1761132241181115400,8.446115478515624,-4.786221027374268,-2.9717390537261963,-0.06444978713989258
1761132241191115500,8.456115478515626,-1.4315180778503418,-3.4230337142944336,0.6834109425544739
1761132241201115400,8.466115478515626,1.7097101211547852,-3.454357385635376,0.717619001865387
1761132241211114500,8.476114501953125,1.7127904891967773,-3.4684951305389404,0.6609108448028564
1761132241221114600,8.486114501953125,3.788694381713867,-0.4941103458404541,-0.6877068281173706
1761132241231114500,8.496114501953125,3.305002212524414,2.222642183303833,-0.7042220830917358
1761132241241114600,8.506114501953125,3.254544258117676,5.195135116577148,-0.0064536333084106445
1761132241251114500,8.516114501953124,4.463085174560547,5.791599273681641,3.1734237670898438
1761132241261114600,8.526114501953124,6.822750091552734,5.079522609710693,5.619422435760498
1761132241271114500,8.536114501953126,10.119182586669922,3.748473644256592,6.491417407989502
1761132241281114600,8.546114501953125,14.028470039367676,2.228285789489746,5.72781229019165
1761132241291114800,8.55611474609375,19.590618133544922,1.0834786891937256,4.235070705413818
1761132241301114600,8.566114501953125,23.27672576904297,-1.636160135269165,4.36652135848999
1761132241311115500,8.576115478515625,23.5430850982666,-2.5870134830474854,4.092221736907959
1761132241321115400,8.586115478515625,20.77277374267578,-3.0000929832458496,4.232911109924316
1761132241331115500,8.596115478515625,15.766263961791992,-2.0063557624816895,3.119701862335205
1761132241341115400,8.606115478515624,11.328889846801758,1.1750514507293701,0.25826025009155273
1761132241351115500,8.616115478515624,7.364748954772949,3.2914419174194336,-0.8012515902519226
1761132241361115400,8.626115478515626,3.156940460205078,3.476055383682251,-0.05034840106964111
1761132241371115500,8.636115478515626,1.1123285293579102,2.9737319946289062,0.6938670873641968
1761132241381115400,8.646115478515625,0.3670940399169922,2.0008416175842285,0.8093347549438477
1761132241391115500,8.656115478515625,0.18923664093017578,1.634567141532898,1.1968531608581543
1761132241401115400,8.666115478515625,-0.1805429458618164,1.8516814708709717,1.6104627847671509
1761132241411114800,8.67611474609375,-0.534088134765625,1.4794007539749146,1.5349807739257812
1761132241421115000,8.686114990234374,0.4413566589355469,1.7493460178375244,1.9161635637283325
1761132241431114800,8.69611474609375,2.5341691970825195,2.5148017406463623,1.2621630430221558
1761132241441115000,8.706114990234376,3.0190343856811523,3.3724191188812256,0.3117654323577881
1761132241451114800,8.71611474609375,2.4542226791381836,3.589022397994995,-0.05429863929748535
1761132241461115000,8.726114990234375,1.4999198913574219,3.2443299293518066,0.2615405321121216
1761132241471114800,8.73611474609375,-0.04999542236328125,2.7678396701812744,-0.1008344292640686
1761132241481115000,8.746114990234375,-2.056473731994629,2.7970268726348877,-0.9621842503547668
1761132241491114800,8.75611474609375,-3.3728604316711426,3.2774972915649414,-0.514967679977417
1761132241501115000,8.766114990234374,-5.052947521209717,2.9510579109191895,0.3260195255279541
1761132241511115500,8.776115478515624,-7.124162673950195,1.8594812154769897,1.1555006504058838
1761132241521115600,8.78611572265625,-8.68323040008545,1.4669644832611084,1.1257750988006592
1761132241531115500,8.796115478515626,-9.558449745178223,1.4996757507324219,0.7173773646354675
1761132241541115600,8.80611572265625,-9.620378494262695,1.6014829874038696,0.3233785629272461
1761132241551115500,8.816115478515625,-9.6770601272583,1.5155013799667358,0.23695150017738342
1761132241561115600,8.82611572265625,-9.767705917358398,1.1951316595077515,0.2837296724319458
1761132241571115300,8.836115234375,-9.727405548095703,0.7032471895217896,0.4490562677383423
1761132241581115100,8.846115234375,-9.716215133666992,0.1067432165145874,0.4287683963775635
1761132241591115300,8.856115234375,-9.575398445129395,-0.513719916343689,0.4510425925254822
1761132241601115100,8.866115234375,-9.347529411315918,-0.8939100503921509,0.6024554371833801
1761132241611114500,8.876114501953126,-8.96519660949707,-1.153876781463623,0.8280354738235474
1761132241621114400,8.8861142578125,-8.584015846252441,-1.3301451206207275,1.0438393354415894
1761132241631114500,8.896114501953125,-8.199338912963867,-1.4632675647735596,1.2904534339904785
1761132241641114400,8.9061142578125,-7.649254322052002,-1.540826678276062,1.5558701753616333
1761132241651114500,8.916114501953125,-6.391734600067139,-1.6350153684616089,1.5066945552825928
1761132241661114400,8.9261142578125,-4.918754577636719,-1.819175362586975,1.183302879333496
1761132241671114200,8.9361142578125,-3.502903938293457,-1.945625901222229,0.7973942160606384
1761132241681114400,8.9461142578125,-3.4572219848632812,-2.063615322113037,0.8800833821296692
1761132241691114200,8.9561142578125,-1.8169188499450684,-0.6604514122009277,-0.8858787417411804
1761132241701114400,8.9661142578125,-1.424478530883789,0.26316046714782715,-1.0746729373931885
1761132241711115000,8.976114990234375,0.05524921417236328,1.6470272541046143,-1.1602308750152588
1761132241721115100,8.986115234375,2.612194061279297,3.076228141784668,-0.890680193901062
1761132241731115000,8.996114990234375,5.327113151550293,3.7937798500061035,-0.5463238954544067
1761132241741115100,9.006115234375,7.660499572753906,3.9567716121673584,-0.21619391441345215
1761132241751115000,9.016114990234374,10.150843620300293,3.661506414413452,0.2511407136917114
1761132241761115100,9.026115234375,11.689179420471191,2.9532313346862793,0.7706446647644043
1761132241771115000,9.036114990234376,12.521279335021973,2.519146680831909,0.8739989399909973
1761132241781115100,9.046115234375,13.799901008605957,2.532127618789673,0.7135215401649475
1761132241791115000,9.056114990234375,14.792694091796875,2.125959873199463,1.114840030670166
1761132241801115100,9.066115234375,14.33340072631836,1.108874797821045,2.042964458465576
1761132241811114200,9.0761142578125,12.78210163116455,0.6025335788726807,2.2706477642059326
1761132241821114000,9.086114013671875,11.008842468261719,1.423238754272461,1.6939120292663574
1761132241831114200,9.0961142578125,9.43191146850586,2.4341180324554443,1.6773850917816162
1761132241841114000,9.106114013671874,7.644008636474609,2.85001802444458,2.194721221923828
1761132241861114000,9.126114013671875,5.332077980041504,2.2294986248016357,1.8638191223144531
1761132241871114500,9.136114501953125,4.545485496520996,1.6756699085235596,0.7183900475502014
1761132241881114600,9.146114501953125,3.1646156311035156,1.3277521133422852,-0.45027077198028564
1761132241891114800,9.15611474609375,1.4218101501464844,1.182462453842163,-0.8700142502784729
1761132241901114600,9.166114501953125,-0.34149932861328125,1.2229902744293213,-0.6046985387802124
1761132241911115500,9.176115478515625,-1.789358139038086,1.3834774494171143,-0.006294369697570801
1761132241921115400,9.186115478515624,-2.8443961143493652,1.5811803340911865,0.7657412886619568
1761132241931115500,9.196115478515624,-3.416306972503662,1.6839802265167236,1.2085697650909424
1761132241941115400,9.206115478515626,-4.031608581542969,1.6530773639678955,1.1278184652328491
1761132241951115500,9.216115478515626,-4.773752689361572,1.5385921001434326,0.7984620928764343
1761132241961115400,9.226115478515625,-5.216915607452393,1.4261895418167114,0.25624921917915344
1761132241971115500,9.236115478515625,-5.6045050621032715,1.2545857429504395,0.06918919086456299
1761132241981115400,9.246115478515625,-6.040933609008789,1.1148412227630615,0.2057034969329834
1761132241991115500,9.256115478515625,-5.687276840209961,0.567307710647583,0.8583409786224365
1761132242011114500,9.276114501953124,-5.826966285705566,1.2016088962554932,1.1773576736450195
1761132242021114600,9.286114501953126,-5.95448112487793,0.739140510559082,1.694758653640747
1761132242031114500,9.296114501953125,-6.536844253540039,-0.07985281944274902,2.4037351608276367
1761132242041114600,9.306114501953125,-6.5090436935424805,-0.19667744636535645,2.370669364929199
1761132242051114500,9.316114501953125,-6.137117385864258,-1.0109084844589233,2.8004837036132812
1761132242061114600,9.326114501953125,-6.354426383972168,-1.4142462015151978,2.3871259689331055
