time,seconds_elapsed,z,y,x
1761132032615338800,0.1143388671875,0.02524852752685547,0.0015365667641162872,0.0021638870239257812
1761132032635361800,0.13436181640625,0.025249481201171875,0.0015049576759338379,0.002067878842353821
1761132032645362000,0.14436181640625,0.02525043487548828,0.0014825686812400818,0.002050265669822693
1761132032655361800,0.15436181640625,0.02525043487548828,0.0014816410839557648,0.0020499378442764282
1761132032665362000,0.16436181640625,0.02525043487548828,0.0015188753604888916,0.0020264387130737305
1761132032675361800,0.17436181640625,0.025249481201171875,0.0015095658600330353,0.0021260082721710205
1761132032685362000,0.18436181640625,0.025247573852539062,0.001481417566537857,0.0022278428077697754
1761132032695361800,0.19436181640625,0.02524566650390625,0.0014765039086341858,0.002366393804550171
1761132032705362000,0.20436181640625,0.025241851806640625,0.0013859756290912628,0.002632230520248413
1761132032715361800,0.21436181640625,0.025239944458007812,0.0014927387237548828,0.002719372510910034
1761132032735361800,0.23436181640625,0.025236129760742188,0.0015056021511554718,0.0030333995819091797
1761132032745362000,0.24436181640625,0.02523326873779297,0.0014894232153892517,0.0032522082328796387
1761132032755361800,0.25436181640625,0.02523040771484375,0.0015722885727882385,0.0034801065921783447
1761132032765362000,0.26436181640625,0.02522754669189453,0.0015551894903182983,0.003698572516441345
1761132032775361800,0.27436181640625,0.025223731994628906,0.001479707658290863,0.003923207521438599
1761132032785362000,0.28436181640625,0.0252227783203125,0.0015706196427345276,0.004032328724861145
1761132032795361800,0.29436181640625,0.025220870971679688,0.0016063153743743896,0.004186287522315979
1761132032805362000,0.30436181640625,0.02521800994873047,0.0015310980379581451,0.004410997033119202
1761132032815360500,0.314360595703125,0.025213241577148438,0.0013816654682159424,0.004682809114456177
1761132032825360600,0.324360595703125,0.025211334228515625,0.0014202296733856201,0.004856422543525696
1761132032835360500,0.334360595703125,0.053938865661621094,0.0061902739107608795,0.014632493257522583
1761132032845360600,0.344360595703125,0.01323699951171875,0.013454161584377289,0.01466318964958191
1761132032855360500,0.354360595703125,0.025209426879882812,-0.005608167499303818,0.0026234090328216553
1761132032865360600,0.364360595703125,0.020421981811523438,-0.0009023882448673248,0.014563381671905518
1761132032875360500,0.374360595703125,0.015631675720214844,-0.001034468412399292,0.0026458054780960083
1761132032885360600,0.384360595703125,0.008447647094726562,0.0061350129544734955,-0.002081945538520813
1761132032895360500,0.394360595703125,0.0228118896484375,0.003727288916707039,-0.011598244309425354
1761132032905360600,0.404360595703125,0.015628814697265625,0.008501794189214706,0.0076157450675964355
1761132032915360500,0.414360595703125,0.03478050231933594,0.010830594226717949,-0.023383542895317078
1761132032925360600,0.424360595703125,-0.003528594970703125,-0.010862812399864197,0.0006724298000335693
1761132032935360500,0.434360595703125,0.03238391876220703,0.005897417664527893,0.012643575668334961
1761132032945360600,0.444360595703125,0.018019676208496094,-0.0011747851967811584,0.026937827467918396
1761132032955360500,0.454360595703125,0.022808074951171875,-0.01077045127749443,0.012574896216392517
1761132032965360600,0.464360595703125,0.041961669921875,0.0011875592172145844,-0.00412382185459137
1761132032975360800,0.47436083984375,0.020412445068359375,-0.0060674697160720825,-0.001663118600845337
1761132032985360600,0.484360595703125,0.01801776885986328,-0.008476410061120987,-0.015987195074558258
1761132032995360800,0.49436083984375,0.03717231750488281,0.0011489801108837128,-0.016090743243694305
1761132033005360600,0.504360595703125,0.032382965087890625,0.020169701427221298,-0.006460651755332947
1761132033015359700,0.51435986328125,0.022805213928222656,0.008124612271785736,0.0007690936326980591
1761132033025360000,0.52435986328125,0.04913902282714844,-0.003867175430059433,0.003342866897583008
1761132033035359700,0.53435986328125,0.0347747802734375,0.008098144084215164,-0.011080846190452576
1761132033045359900,0.54435986328125,0.008440017700195312,0.000968586653470993,-0.008751064538955688
1761132033055359700,0.55435986328125,0.018016815185546875,0.00813155248761177,0.027163952589035034
1761132033065360000,0.56435986328125,0.02519989013671875,-0.015816580504179,0.017528638243675232
1761132033075359700,0.57435986328125,0.03238201141357422,0.005830291658639908,0.022326156497001648
1761132033085359900,0.58435986328125,0.022805213928222656,0.005814731121063232,0.003213554620742798
1761132033095359700,0.59435986328125,0.018016815185546875,0.0010192617774009705,0.019914254546165466
1761132033105360000,0.60435986328125,0.025200843811035156,0.003506479784846306,-0.020836375653743744
1761132033115360500,0.614360595703125,0.03478050231933594,-0.0012357793748378754,-0.013776987791061401
1761132033125360600,0.624360595703125,0.03477954864501953,-0.0012557990849018097,-0.01377512514591217
1761132033135360500,0.634360595703125,0.020414352416992188,0.0035326052457094193,-0.0065925270318984985
1761132033145360600,0.644360595703125,0.020415306091308594,0.0011109933257102966,-0.006668418645858765
1761132033155360500,0.654360595703125,0.006049156188964844,0.015404561534523964,0.0005809664726257324
1761132033165360600,0.664360595703125,0.03477764129638672,0.008333634585142136,0.0007072687149047852
1761132033175360500,0.674360595703125,0.022806167602539062,0.013106610625982285,0.003142520785331726
1761132033185360600,0.684360595703125,0.018016815185546875,0.005794275552034378,0.005609616637229919
1761132033195360500,0.694360595703125,0.037169456481933594,-0.01344035193324089,0.007992267608642578
1761132033205360600,0.704360595703125,0.044353485107421875,-0.01338145136833191,0.005592092871665955
1761132033215359700,0.71435986328125,0.03477668762207031,-0.0013760216534137726,-0.006422191858291626
1761132033225359600,0.724359619140625,0.04195880889892578,-0.008436422795057297,-0.00158768892288208
1761132033235359700,0.73435986328125,0.010834693908691406,0.001127384603023529,-0.006315410137176514
1761132033245359600,0.744359619140625,0.025197982788085938,0.005960792303085327,-0.00865522027015686
1761132033255359700,0.75435986328125,0.0347747802734375,-0.010876774787902832,-0.013435497879981995
1761132033265359600,0.764359619140625,0.02998638153076172,-0.001321200281381607,-0.0014629215002059937
1761132033275359700,0.77435986328125,0.022805213928222656,0.018000904470682144,-0.003934204578399658
1761132033285359600,0.784359619140625,0.025198936462402344,-0.0059548914432525635,0.003308817744255066
1761132033295359700,0.79435986328125,0.020410537719726562,0.0036022868007421494,0.0009166300296783447
1761132033305359600,0.804359619140625,0.022803306579589844,-0.010841075330972672,0.005713135004043579
1761132033315360500,0.814360595703125,0.044350624084472656,-0.0034881383180618286,0.010621756315231323
1761132033325360600,0.824360595703125,0.03716850280761719,0.006087705492973328,0.0034198909997940063
1761132033335360500,0.834360595703125,0.022802352905273438,-0.005896821618080139,-0.0013079941272735596
1761132033345360600,0.844360595703125,0.02759075164794922,-0.010645821690559387,0.0058706700801849365
1761132033355360500,0.854360595703125,0.02759075164794922,-0.010547194629907608,0.0058797746896743774
1761132033365360600,0.864360595703125,0.029985427856445312,0.0014688186347484589,-0.003642648458480835
1761132033375360500,0.874360595703125,0.010831832885742188,-0.012718923389911652,0.005935266613960266
1761132033385360600,0.884360595703125,0.022802352905273438,-0.003035604953765869,-0.003573581576347351
1761132033395360500,0.894360595703125,0.025197982788085938,-0.017408721148967743,-0.0036515146493911743
1761132033405360600,0.904360595703125,0.034773826599121094,-0.007784869521856308,0.005999207496643066
1761132033415359700,0.91435986328125,0.0036449432373046875,0.023324666544795036,0.011025696992874146
1761132033425359600,0.924359619140625,0.010827064514160156,-0.005551598966121674,0.001562744379043579
1761132033435359700,0.93435986328125,0.03716278076171875,-0.005557850003242493,-0.01046682894229889
1761132033455359700,0.95435986328125,0.02518939971923828,-0.020305152982473373,-0.0055596232414245605
1761132033465359600,0.964359619140625,0.018004417419433594,-0.003750234842300415,0.0017429143190383911
1761132033475359700,0.97435986328125,0.037156105041503906,0.017665930092334747,-0.012568846344947815
1761132033485359600,0.984359619140625,0.02039623260498047,0.019749511033296585,-0.0053341686725616455
1761132033495359200,0.994359130859375,0.013213157653808594,0.0003543458878993988,-0.019752807915210724
1761132033505359400,1.004359375,0.0108184814453125,-0.00002609752118587494,-0.01741722971200943
1761132033515360300,1.0143603515625,0.010817527770996094,0.021140769124031067,-0.007899224758148193
1761132033525360000,1.024360107421875,0.008423805236816406,-0.00562305748462677,-0.0200028195977211
1761132033535360300,1.0343603515625,0.018001556396484375,-0.008385218679904938,-0.010545507073402405
1761132033545360400,1.0443603515625,0.0036382675170898438,0.015298628248274326,-0.017937563359737396
1761132033555360300,1.0543603515625,0.022792816162109375,-0.009073169901967049,-0.0013302862644195557
1761132033565360000,1.064360107421875,0.027581214904785156,0.009756533429026604,0.0033737123012542725
1761132033575360300,1.0743603515625,0.03955268859863281,0.0022124797105789185,0.039225876331329346
1761132033585360100,1.084360107421875,0.03476428985595703,0.0018449090421199799,0.00798189640045166
1761132033595360300,1.0943603515625,0.0419464111328125,-0.012778783217072487,0.010363489389419556
1761132033605360000,1.104360107421875,0.04673290252685547,-0.015547815710306168,0.048670440912246704
1761132033615359200,1.114359130859375,0.04673194885253906,-0.015863995999097824,0.04866407811641693
1761132033625359400,1.124359375,0.013212203979492188,-0.006456369534134865,0.012828022241592407
1761132033635359200,1.134359130859375,0.02039623260498047,0.007866434752941132,-0.01593727618455887
1761132033645359400,1.144359375,0.020395278930664062,0.010121621191501617,-0.020730875432491302
1761132033655359200,1.154359130859375,0.020394325256347656,-0.0067703817039728165,-0.008706614375114441
1761132033665359400,1.164359375,0.027576446533203125,-0.025944018736481667,-0.0015221238136291504
1761132033675359200,1.174359130859375,0.022787094116210938,0.024327341467142105,-0.001402929425239563
1761132033685359400,1.184359375,0.0060253143310546875,-0.007001394405961037,0.02505333721637726
1761132033695359200,1.194359130859375,0.0036287307739257812,-0.014310043305158615,0.025165095925331116
1761132033705359400,1.204359375,0.015600204467773438,-0.0025414805859327316,0.037078723311424255
1761132033715360300,1.2143603515625,0.037148475646972656,0.004354886710643768,0.02023056149482727
1761132033725360400,1.2243603515625,0.03475379943847656,-0.003141859546303749,-0.00369831919670105
1761132033735360300,1.2343603515625,0.03714561462402344,0.010989139787852764,0.0059029459953308105
1761132033745360400,1.2443603515625,0.029962539672851562,0.008522475138306618,-0.017972417175769806
1761132033755360300,1.2543603515625,0.029961585998535156,0.008455080911517143,-0.01786673814058304
1761132033765360400,1.2643603515625,0.010806083679199219,-0.0035428646951913834,-0.010562926530838013
1761132033775360300,1.2743603515625,0.013197898864746094,-0.010607659816741943,0.020746514201164246
1761132033785360400,1.2843603515625,0.010802268981933594,-0.0033930130302906036,0.006496250629425049
1761132033795360800,1.29436083984375,0.010802268981933594,-0.0032092947512865067,0.006555914878845215
1761132033805360600,1.304360595703125,0.020377159118652344,0.020764734596014023,0.011459395289421082
1761132033815359700,1.31435986328125,0.03234577178955078,-0.003065209835767746,0.009191617369651794
1761132033825360000,1.32435986328125,0.022769927978515625,0.013733210042119026,-0.002783477306365967
1761132033835359700,1.33435986328125,0.017981529235839844,-0.024338027462363243,-0.019547902047634125
1761132033845359900,1.34435986328125,0.02037525177001953,0.004608117043972015,-0.009796351194381714
1761132033855359700,1.35435986328125,0.02276897430419922,-0.009573884308338165,0.009416759014129639
1761132033865360000,1.36435986328125,0.04910564422607422,-0.011868517845869064,-0.028881169855594635
1761132033875359700,1.37435986328125,0.034740447998046875,0.012052210979163647,0.0022260695695877075
1761132033885359900,1.38435986328125,0.020376205444335938,0.00971270352602005,0.006969422101974487
1761132033895359700,1.39435986328125,0.013193130493164062,-0.00928366370499134,-0.012200281023979187
1761132033905360000,1.40435986328125,-0.0011692047119140625,-0.013774760067462921,0.01636078953742981
1761132033915360800,1.41436083984375,0.0084075927734375,-0.008947471156716347,-0.0004027336835861206
1761132033925360600,1.424360595703125,0.02038288116455078,-0.032831158488988876,0.008990064263343811
1761132033935360800,1.43436083984375,0.03714179992675781,0.017544442787766457,-0.000596851110458374
1761132033945361000,1.44436083984375,0.02516937255859375,0.005501145496964455,-0.002924501895904541
1761132033955360800,1.45436083984375,0.025171279907226562,0.007947618141770363,-0.007777586579322815
1761132033965361000,1.46436083984375,0.0036230087280273438,-0.0041674114763736725,0.02088916301727295
1761132033975360800,1.47436083984375,0.03714275360107422,0.00791693851351738,-0.007892385125160217
1761132033985361000,1.48436083984375,0.03714466094970703,0.005503429099917412,0.006297111511230469
1761132033995360800,1.49436083984375,0.03954029083251953,0.005494751036167145,-0.0033578872680664062
1761132034005361000,1.50436083984375,0.03475379943847656,0.005482085049152374,-0.010657519102096558
1761132034015359700,1.51435986328125,0.03236103057861328,0.015165595337748528,-0.013161525130271912
1761132034025360000,1.52435986328125,0.034759521484375,0.01053464226424694,-0.02053799480199814
1761132034035359700,1.53435986328125,0.03236675262451172,-0.0035470835864543915,-0.003887370228767395
1761132034049617000,1.548616943359375,0.04194450378417969,0.003865128383040428,0.0008374154567718506
1761132034059617000,1.558616943359375,0.04912853240966797,0.011322729289531708,0.012799322605133057
1761132034069617000,1.568616943359375,0.04913139343261719,0.016518598422408104,0.022313714027404785
1761132034079616800,1.57861669921875,0.020401954650878906,-0.0020381398499011993,0.027157872915267944
1761132034089617000,1.588616943359375,0.039554595947265625,0.00805150717496872,0.027341008186340332
1761132034099616800,1.59861669921875,0.01800537109375,0.003770221024751663,0.03945590555667877
1761132034109617000,1.608616943359375,0.0204010009765625,-0.0004127137362957001,0.00607086718082428
1761132034119617800,1.61861767578125,0.0419464111328125,-0.016614574939012527,0.011096835136413574
1761132034129617700,1.62861767578125,-0.0107269287109375,-0.0040124692022800446,-0.007866501808166504
1761132034139617800,1.63861767578125,0.018003463745117188,0.0037577543407678604,-0.00531710684299469
1761132034149617700,1.64861767578125,0.07546520233154297,-0.0005698874592781067,0.009118154644966125
1761132034159617800,1.65861767578125,-0.010727882385253906,-0.0047819241881370544,-0.005011633038520813
1761132034169617700,1.66861767578125,0.015608787536621094,0.010231085121631622,0.007127821445465088
1761132034179617800,1.67861767578125,0.0012454986572265625,0.013164041563868523,0.016766637563705444
1761132034189617700,1.68861767578125,0.022792816162109375,0.0039049461483955383,-0.009543940424919128
1761132034199617800,1.69861767578125,0.022792816162109375,-0.015031341463327408,0.007231667637825012
1761132034209617700,1.70861767578125,-0.0035429000854492188,-0.024504616856575012,-0.019056282937526703
1761132034219616800,1.71861669921875,0.046736717224121094,-0.022181309759616852,-0.02634984254837036
1761132034229617000,1.728616943359375,0.020401954650878906,-0.0175178125500679,-0.012062013149261475
1761132034239616800,1.73861669921875,0.04434394836425781,-0.044057633727788925,-0.007331401109695435
1761132034249616600,1.74861669921875,0.032372474670410156,-0.005833066999912262,0.023762285709381104
1761132034259616800,1.75861669921875,0.006033897399902344,0.001262068748474121,0.03823518753051758
1761132034269616600,1.76861669921875,-0.020303726196289062,0.020367786288261414,0.038338854908943176
1761132034279616800,1.77861669921875,0.029973983764648438,0.00097627192735672,0.028747588396072388
1761132034289616600,1.78861669921875,0.04673194885253906,-0.028050824999809265,0.026344940066337585
1761132034299616800,1.79861669921875,0.05152320861816406,-0.006700731813907623,0.018966227769851685
1761132034309616600,1.80861669921875,0.027581214904785156,0.01953374221920967,-0.021764084696769714
1761132034319617500,1.818617431640625,0.04434013366699219,0.00990249589085579,-0.04087255895137787
1761132034329617700,1.82861767578125,0.032367706298828125,0.012460397556424141,-0.0336284264922142
1761132034339617500,1.838617431640625,0.053915977478027344,0.017470965161919594,-0.040755495429039
1761132034349617700,1.84861767578125,-0.005939483642578125,0.027208589017391205,-0.05509789288043976
1761132034359617500,1.858617431640625,0.03236675262451172,0.022592931985855103,-0.033410198986530304
1761132034369617700,1.86861767578125,0.02757740020751953,0.0011564083397388458,-0.016524620354175568
1761132034379617500,1.878617431640625,0.04194164276123047,-0.01064440980553627,0.01472020149230957
1761132034389617700,1.88861767578125,0.022787094116210938,-0.015348844230175018,0.012376442551612854
1761132034399617500,1.898617431640625,-0.05143260955810547,0.006245756521821022,0.04836326837539673
1761132034409617700,1.90861767578125,0.32445526123046875,0.0014320127665996552,0.029331177473068237
1761132034419616800,1.91861669921875,-0.010732650756835938,-0.02264164388179779,0.01964166760444641
1761132034429617000,1.928616943359375,0.058696746826171875,-0.006060712039470673,0.01502983272075653
1761132034439616800,1.93861669921875,-0.1711444854736328,0.017866889014840126,-0.009048789739608765
1761132034449617000,1.948616943359375,0.10657978057861328,0.010604750365018845,-0.016045771539211273
1761132034459616800,1.95861669921875,0.04672527313232422,-0.018196184188127518,-0.05685801804065704
1761132034469617000,1.968616943359375,-0.025101661682128906,0.010584991425275803,-0.028014831244945526
1761132034479616800,1.97861669921875,-0.0011587142944335938,0.029590189456939697,-0.018540628254413605
1761132034489617000,1.988616943359375,-0.0251007080078125,0.022327706217765808,-0.0137752965092659
1761132034499616800,1.99861669921875,0.0993967056274414,-0.004003334790468216,0.005436614155769348
1761132034509617000,2.008616943359375,0.02278423309326172,0.0031494423747062683,0.01970629394054413
1761132034519617500,2.018617431640625,0.008419036865234375,-0.00415792316198349,0.04837094247341156
1761132034529617700,2.02861767578125,0.013207435607910156,-0.01860375702381134,0.04596531391143799
1761132034539617800,2.03861767578125,0.06348609924316406,0.003000415861606598,0.02439182996749878
1761132034549617700,2.04861767578125,0.03236103057861328,-0.0043249838054180145,0.002799704670906067
1761132034559617800,2.05861767578125,0.010814666748046875,0.005169341340661049,0.0027687102556228638
1761132034569617700,2.06861767578125,0.037148475646972656,0.01958562061190605,-0.01627185195684433
1761132034579618000,2.0786181640625,0.037146568298339844,0.019639205187559128,-0.016139410436153412
1761132034589618000,2.088617919921875,0.039542198181152344,-0.016175903379917145,-0.028120480477809906
1761132034599618000,2.0986181640625,-0.008341789245605469,-0.008993804454803467,-0.01614966243505478
1761132034609618000,2.108617919921875,0.025177001953125,0.02222822606563568,0.005387917160987854
1761132034619617000,2.118616943359375,0.05630302429199219,0.015152286738157272,0.014855042099952698
1761132034629617200,2.1286171875,0.020391464233398438,-0.030225809663534164,0.01957283914089203
1761132034639617000,2.138616943359375,0.034758567810058594,-0.03246854990720749,0.02909412980079651
1761132034649617200,2.1486171875,0.05391216278076172,-0.0012847669422626495,0.026694059371948242
1761132034659617000,2.158616943359375,0.013211250305175781,-0.015533320605754852,0.033864304423332214
1761132034669617200,2.1686171875,0.02039337158203125,-0.022709935903549194,-0.004384472966194153
1761132034679617000,2.178616943359375,0.025183677673339844,0.0013188645243644714,-0.006886467337608337
1761132034689617200,2.1886171875,0.02997303009033203,0.01090727373957634,0.007398784160614014
1761132034699617000,2.198616943359375,0.015605926513671875,0.008547663688659668,-0.02359117567539215
1761132034709617200,2.2086171875,0.02518463134765625,0.013381840661168098,-0.014137722551822662
1761132034719617800,2.21861767578125,0.010820388793945312,-0.005780480802059174,0.002543613314628601
1761132034729618000,2.228617919921875,0.03236865997314453,0.018215982243418694,-0.0022899359464645386
1761132034739617800,2.23861767578125,0.03236961364746094,0.011123854666948318,0.0024295449256896973
1761132034749618000,2.248617919921875,0.00603485107421875,0.011242803186178207,0.026378780603408813
1761132034759617800,2.25861767578125,0.02997875213623047,-0.015053756535053253,0.028591111302375793
1761132034769618000,2.268617919921875,0.03716278076171875,-0.007879737764596939,0.02851305902004242
1761132034779618000,2.2786181640625,0.010827064514160156,-0.0031195059418678284,0.011677473783493042
1761132034789618000,2.288617919921875,0.010829925537109375,-0.003123372793197632,0.011460646986961365
1761132034799618000,2.2986181640625,0.03716754913330078,0.011173121631145477,-0.012572765350341797
1761132034809618000,2.308617919921875,0.053928375244140625,-0.0032178424298763275,0.011312708258628845
1761132034819617000,2.318616943359375,0.027588844299316406,0.00156354159116745,-0.0005391091108322144
1761132034829617200,2.3286171875,0.013223648071289062,0.011059775948524475,-0.0029448717832565308
1761132034839617000,2.338616943359375,0.013225555419921875,0.008659020066261292,-0.0030034035444259644
1761132034849617200,2.3486171875,0.02759075164794922,0.018151557072997093,0.008917197585105896
1761132034859617000,2.358616943359375,0.020410537719726562,-0.010533090680837631,0.004005447030067444
1761132034869617200,2.3686171875,0.029987335205078125,-0.00102219358086586,0.02308744192123413
1761132034879616800,2.37861669921875,0.013226509094238281,-0.025041934102773666,-0.0032406598329544067
1761132034889617000,2.388616943359375,0.020412445068359375,0.020449310541152954,0.00855286419391632
1761132034899616800,2.39861669921875,0.02041339874267578,0.0014517493546009064,-0.015405483543872833
1761132034909617000,2.408616943359375,0.025203704833984375,-0.022503066807985306,0.0108136385679245
1761132034919617800,2.41861767578125,0.013234138488769531,0.0015456601977348328,0.005915418267250061
1761132034929617700,2.42861767578125,0.04914569854736328,0.03499054163694382,-0.017979420721530914
1761132034939617800,2.43861767578125,0.018021583557128906,0.008693203330039978,0.0011700540781021118
1761132034949617700,2.44861767578125,0.018021583557128906,-0.005672954022884369,-0.006012767553329468
1761132034959617800,2.45861767578125,0.018022537231445312,-0.005698706954717636,-0.006069302558898926
1761132034969617700,2.46861767578125,0.0228118896484375,0.0063251350075006485,-0.0037397146224975586
1761132034979617800,2.47861767578125,0.03957176208496094,-0.0032721199095249176,0.013021528720855713
1761132034989617700,2.48861767578125,0.01084136962890625,0.020486045628786087,0.0057792067527771
1761132034999617800,2.49861767578125,0.034783363342285156,-0.02268926426768303,0.015344813466072083
1761132035009617700,2.50861767578125,0.029994964599609375,0.0011298507452011108,0.017692819237709045
1761132035019616800,2.51861669921875,0.04675483703613281,-0.006139062345027924,0.008046090602874756
1761132035029617000,2.528616943359375,0.027599334716796875,0.008153852075338364,-0.0038583874702453613
1761132035039617000,2.538616943359375,0.01802349090576172,0.0033592022955417633,-0.013493746519088745
1761132035049617000,2.548616943359375,0.029996871948242188,0.010652601718902588,0.003194853663444519
1761132035059617000,2.558616943359375,0.03478527069091797,-0.0013379156589508057,-0.02792772650718689
1761132035069617000,2.568616943359375,0.022812843322753906,-0.01823565363883972,0.0031917691230773926
1761132035079616800,2.57861669921875,0.027601242065429688,-0.006265211850404739,0.007980108261108398
1761132035089617000,2.588616943359375,0.03478431701660156,0.0009038783609867096,-0.0015361756086349487
1761132035099616800,2.59861669921875,0.018022537231445312,0.012722915038466454,-0.0014808475971221924
1761132035109617000,2.608616943359375,0.020414352416992188,-0.006489679217338562,0.001097172498703003
1761132035119617800,2.61861767578125,0.02280902862548828,0.0006209425628185272,0.005755305290222168
1761132035129617700,2.62861767578125,0.013232231140136719,-0.008969418704509735,-0.0013666599988937378
1761132035139617800,2.63861767578125,0.013230323791503906,-0.009041458368301392,-0.001300022006034851
1761132035149617700,2.64861767578125,0.0395660400390625,-0.006778903305530548,-0.008429184556007385
1761132035159617800,2.65861767578125,0.02999114990234375,-0.004457239061594009,-0.00855952501296997
1761132035169617700,2.66861767578125,0.02759552001953125,0.007436003535985947,-0.0061570703983306885
1761132035179617800,2.67861767578125,0.02759552001953125,0.0050873663276433945,-0.006102606654167175
1761132035189617700,2.68861767578125,0.03477954864501953,0.00017319992184638977,0.010590940713882446
1761132035199617800,2.69861767578125,0.04675006866455078,-0.0021865777671337128,0.010547667741775513
1761132035209617700,2.70861767578125,0.015625,0.00007553771138191223,0.01060110330581665
1761132035219616800,2.71861669921875,0.02999114990234375,0.002344030886888504,-0.006224289536476135
1761132035229617000,2.728616943359375,0.02280712127685547,-0.01934172585606575,0.0033475160598754883
1761132035239616800,2.73861669921875,0.041960716247558594,-0.007554817944765091,0.008076116442680359
1761132035249617000,2.748616943359375,0.008442878723144531,-0.0051863715052604675,0.0032311826944351196
1761132035259616800,2.75861669921875,0.03478050231933594,-0.005253564566373825,-0.01599452644586563
1761132035269617000,2.768616943359375,0.02520275115966797,-0.010184243321418762,0.0007207989692687988
1761132035279616800,2.77861669921875,0.02759838104248047,-0.0030160434544086456,0.0005842000246047974
1761132035289617000,2.788616943359375,0.03478240966796875,-0.00792773813009262,-0.006644740700721741
1761132035299616800,2.79861669921875,0.0228118896484375,-0.012723911553621292,0.002854183316230774
1761132035309617000,2.808616943359375,0.025205612182617188,-0.0007660277187824249,0.026856839656829834
1761132035319617800,2.81861767578125,0.015628814697265625,0.0015491992235183716,0.0029227882623672485
1761132035329617700,2.82861767578125,0.03957080841064453,-0.0056534335017204285,0.007713034749031067
1761132035339617800,2.83861767578125,0.0060520172119140625,-0.008114315569400787,-0.004329875111579895
1761132035349617700,2.84861767578125,0.013234138488769531,0.027785200625658035,0.014884263277053833
1761132035359617800,2.85861767578125,0.013234138488769531,0.02781796082854271,0.014821603894233704
1761132035369617700,2.86861767578125,0.029996871948242188,0.011001182720065117,-0.006897687911987305
1761132035379617300,2.8786171875,0.027601242065429688,-0.008233066648244858,0.0074561238288879395
1761132035389617400,2.888617431640625,0.018024444580078125,0.00611824169754982,-0.004454523324966431
1761132035399617300,2.8986171875,0.022812843322753906,0.0013098940253257751,0.01470114290714264
1761132035409617400,2.908617431640625,0.03238964080810547,0.003684455528855324,-0.0020562708377838135
1761132035419616500,2.918616455078125,0.02999591827392578,0.0060716308653354645,0.0026732832193374634
1761132035429616400,2.928616455078125,0.022812843322753906,-0.005854375660419464,0.021881282329559326
1761132035439616500,2.938616455078125,0.02999401092529297,-0.0011988691985607147,0.0027809590101242065
1761132035449616400,2.948616455078125,0.015628814697265625,-0.010795313864946365,-0.013976454734802246
1761132035459616500,2.958616455078125,0.032387733459472656,0.003569377586245537,-0.0067940354347229
1761132035469616400,2.968616455078125,0.018021583557128906,0.008284613490104675,-0.02111179381608963
1761132035479616500,2.978616455078125,0.0467529296875,-0.011010967195034027,-0.004396528005599976
1761132035489616400,2.988616455078125,0.03478240966796875,-0.003830142319202423,-0.004415944218635559
1761132035499616500,2.998616455078125,0.022808074951171875,-0.011156950145959854,-0.0018885135650634766
1761132035509616400,3.008616455078125,0.022808074951171875,-0.0039744749665260315,0.0005056411027908325
1761132035519617300,3.0186171875,0.013234138488769531,0.005568418651819229,-0.011599913239479065
1761132035529617200,3.0286171875,0.022809982299804688,0.0007222741842269897,-0.006805121898651123
1761132035539617300,3.0386171875,0.020416259765625,-0.004085376858711243,0.014744818210601807
1761132035549617400,3.048617431640625,0.03478240966796875,0.005424227565526962,0.012278541922569275
1761132035559617300,3.0586171875,0.015628814697265625,0.005398601293563843,0.005039438605308533
1761132035569617400,3.068617431640625,0.034781455993652344,0.005327392369508743,0.0027120262384414673
1761132035579617300,3.0786171875,0.018022537231445312,-0.023409273475408554,0.02420125901699066
1761132035589617400,3.088617431640625,0.00844573974609375,0.010043645277619362,0.007370218634605408
1761132035599617300,3.0986171875,0.022812843322753906,-0.006741523742675781,0.00013110041618347168
1761132035609617200,3.1086171875,0.058724403381347656,-0.0043608322739601135,0.007374212145805359
1761132035619616500,3.118616455078125,0.03478240966796875,-0.00675547868013382,-0.00938519835472107
1761132035629616400,3.128616455078125,0.020417213439941406,0.005134951323270798,0.016939491033554077
1761132035639616500,3.138616455078125,0.010842323303222656,-0.006804119795560837,-0.0046711266040802
1761132035649616400,3.148616455078125,0.025208473205566406,-0.0043580420315265656,0.002446681261062622
1761132035659616500,3.158616455078125,0.025208473205566406,-0.018743149936199188,-0.0023398101329803467
1761132035669616400,3.168616455078125,0.04196643829345703,-0.001936737447977066,-0.004659995436668396
1761132035689617000,3.188616943359375,0.029996871948242188,0.00038496777415275574,-0.011973068118095398
1761132035699616800,3.19861669921875,0.034786224365234375,-0.011489074677228928,0.009564489126205444
1761132035709617000,3.208616943359375,0.041970252990722656,-0.00426071509718895,-0.00492405891418457
1761132035719617500,3.218617431640625,0.032393455505371094,0.0028562936931848526,-0.002582445740699768
1761132035729617700,3.22861767578125,0.025211334228515625,-0.0018934868276119232,-0.00019244849681854248
1761132035739617500,3.238617431640625,0.027604103088378906,0.014793457463383675,0.004662573337554932
1761132035749617700,3.24861767578125,0.03957557678222656,-0.011438801884651184,0.0023166537284851074
1761132035759617800,3.25861767578125,0.020421981811523438,-0.004098668694496155,-0.00486283004283905
1761132035769617700,3.26861767578125,0.013239860534667969,0.010379889979958534,-0.01449073851108551
1761132035779617800,3.27861767578125,0.013240814208984375,0.0008619092404842377,-0.007314309477806091
1761132035789617700,3.28861767578125,0.022815704345703125,0.008140772581100464,-0.007146969437599182
1761132035799617800,3.29861767578125,0.037178993225097656,-0.015866633504629135,0.004949390888214111
1761132035809617700,3.30861767578125,0.006053924560546875,0.010336989536881447,-0.0117567777633667
1761132035819616800,3.31861669921875,0.01802349090576172,0.007987793534994125,0.028999045491218567
1761132035829617000,3.328616943359375,0.03238964080810547,-0.006342615932226181,0.019379109144210815
1761132035839616800,3.33861669921875,0.020418167114257812,0.010461496189236641,0.007462531328201294
1761132035849617000,3.348616943359375,0.034783363342285156,0.0033365022391080856,0.007456079125404358
1761132035859616800,3.35861669921875,0.00844573974609375,-0.01343642920255661,-0.0020602047443389893
1761132035869617000,3.368616943359375,0.013234138488769531,-0.006215371191501617,0.012300863862037659
1761132035879616800,3.37861669921875,0.029994964599609375,0.012976862490177155,0.00032563507556915283
1761132035889617000,3.388616943359375,0.03717803955078125,-0.0036640316247940063,0.012303858995437622
1761132035899616800,3.39861669921875,0.02999591827392578,-0.017873715609312057,0.01946994662284851
1761132035909617000,3.408616943359375,0.022812843322753906,-0.0034476816654205322,-0.0020643919706344604
1761132035919617500,3.418617431640625,0.008447647094726562,-0.008190952241420746,0.00277845561504364
1761132035929617700,3.42861767578125,0.022810935974121094,-0.005751356482505798,0.014803990721702576
1761132035939617800,3.43861767578125,0.037177085876464844,0.0015303045511245728,-0.004340514540672302
1761132035949617700,3.44861767578125,0.020420074462890625,0.003909831866621971,0.0003112107515335083
1761132035959617800,3.45861767578125,0.010843276977539062,0.0063441358506679535,-0.009250372648239136
1761132035969617700,3.46861767578125,0.03478527069091797,-0.008023686707019806,0.009883671998977661
1761132035979617800,3.47861767578125,0.025208473205566406,0.0063223280012607574,-0.004479542374610901
1761132035989617700,3.48861767578125,0.01323699951171875,0.016058003529906273,0.007494941353797913
1761132035999617800,3.49861767578125,0.04436206817626953,-0.022143658250570297,0.0027743130922317505
1761132036009617700,3.50861767578125,0.037178993225097656,-0.005267336964607239,0.00036782026290893555
1761132036019617000,3.518616943359375,0.0276031494140625,0.001909017562866211,0.014674454927444458
1761132036029617000,3.528616943359375,0.01802825927734375,0.004395017400383949,-0.002153530716896057
1761132036039617000,3.538616943359375,0.01802825927734375,-0.0027877166867256165,0.00981740653514862
1761132036049617000,3.548616943359375,0.032390594482421875,-0.007596079260110855,0.009997159242630005
1761132036059617000,3.558616943359375,0.04196643829345703,0.006814267486333847,-0.0019194036722183228
1761132036069617000,3.568616943359375,0.02520751953125,-0.0026630908250808716,-0.011486947536468506
1761132036079616800,3.57861669921875,0.02041912078857422,0.014096580445766449,0.014849364757537842
1761132036089617000,3.588616943359375,0.02520751953125,0.004500655457377434,0.012457340955734253
1761132036099616800,3.59861669921875,0.02041912078857422,-0.005095399916172028,-0.0019057393074035645
1761132036109617000,3.608616943359375,0.039572715759277344,0.0045463573187589645,0.019694417715072632
1761132036119617800,3.61861767578125,0.02999401092529297,0.004533363506197929,-0.0017926841974258423
1761132036129617700,3.62861767578125,0.04196453094482422,-0.01703409105539322,0.0006035268306732178
1761132036139617800,3.63861767578125,0.029994964599609375,-0.00029756873846054077,0.01973932981491089
1761132036149617700,3.64861767578125,0.03478240966796875,-0.014621850103139877,0.0029952973127365112
1761132036159617800,3.65861767578125,0.03957176208496094,0.002077002078294754,-0.008989110589027405
1761132036169617700,3.66861767578125,0.01562786102294922,0.00683850422501564,-0.008868023753166199
1761132036179617800,3.67861767578125,0.010838508605957031,0.011671876534819603,0.0127343088388443
1761132036189617700,3.68861767578125,0.008444786071777344,0.002147071063518524,0.0030927062034606934
1761132036199617800,3.69861767578125,0.03717517852783203,-0.005055554211139679,-0.004088059067726135
1761132036209617700,3.70861767578125,0.03238677978515625,0.009309090673923492,-0.008876502513885498
1761132036219617000,3.718616943359375,0.015628814697265625,-0.009812146425247192,0.012608543038368225
1761132036229617000,3.728616943359375,0.02759838104248047,-0.021854236721992493,0.007886946201324463
1761132036239616800,3.73861669921875,0.03238677978515625,-0.005095005035400391,0.0007044374942779541
1761132036249617000,3.748616943359375,0.018021583557128906,0.009251009672880173,0.0031006336212158203
1761132036259616800,3.75861669921875,0.010839462280273438,0.014017868787050247,0.010265782475471497
1761132036269617000,3.768616943359375,0.02520465850830078,-0.014713119715452194,0.012659922242164612
1761132036279616800,3.77861669921875,0.02999401092529297,-0.02192109450697899,0.017391949892044067
1761132036289617000,3.788616943359375,0.027599334716796875,0.00914422795176506,0.0006383806467056274
1761132036299616800,3.79861669921875,0.013236045837402344,0.016311978921294212,0.005290180444717407
1761132036309617000,3.808616943359375,0.015630722045898438,0.00904509425163269,0.00045137107372283936
1761132036319617800,3.81861767578125,0.03478431701660156,-0.01982404664158821,-0.0211016908288002
1761132036329617700,3.82861767578125,0.020417213439941406,-0.007985103875398636,-0.009077250957489014
1761132036339617800,3.83861767578125,0.013234138488769531,0.003969473764300346,-0.018644504249095917
1761132036349617700,3.84861767578125,0.027597427368164062,0.013432163745164871,0.0005723237991333008
1761132036359617800,3.85861767578125,0.02999401092529297,0.0014333538711071014,-0.0066863298416137695
1761132036369617700,3.86861767578125,0.025205612182617188,-0.0009638890624046326,0.0028394609689712524
1761132036379617800,3.87861767578125,0.02041912078857422,-0.0033261440694332123,-0.004405945539474487
1761132036389617700,3.88861767578125,0.00844573974609375,-0.008182905614376068,-0.0019062310457229614
1761132036399617800,3.89861767578125,0.032387733459472656,-0.005734693259000778,-0.009133964776992798
1761132036409617700,3.90861767578125,0.022810935974121094,-0.010602463036775589,0.007614195346832275
1761132036419616800,3.91861669921875,0.03238677978515625,-0.005763381719589233,-0.0018497109413146973
1761132036429617000,3.928616943359375,0.010838508605957031,-0.008109595626592636,0.010195374488830566
1761132036439616800,3.93861669921875,0.010837554931640625,0.006300229579210281,0.007855445146560669
1761132036449617000,3.948616943359375,0.015625,-0.010349545627832413,-0.004008769989013672
1761132036459616800,3.95861669921875,0.020412445068359375,0.006396345794200897,-0.011130854487419128
1761132036469617000,3.968616943359375,0.027593612670898438,-0.010434586554765701,-0.020640842616558075
1761132036479616800,3.97861669921875,0.025201797485351562,-0.003344021737575531,0.0031728744506835938
1761132036489617000,3.988616943359375,0.01801776885986328,-0.001007266342639923,0.0007850229740142822
1761132036499616800,3.99861669921875,0.0395660400390625,-0.005815558135509491,0.02951735258102417
1761132036509617000,4.008616943359375,0.041960716247558594,-0.02497585490345955,0.015093564987182617
1761132036519617800,4.01861767578125,0.03477954864501953,-0.008361659944057465,-0.016095004975795746
1761132036529617700,4.02861767578125,0.013231277465820312,0.01311948150396347,0.007775098085403442
1761132036539617800,4.03861767578125,0.041962623596191406,-0.010784085839986801,0.00777098536491394
1761132036549617700,4.04861767578125,0.02759838104248047,0.01327158510684967,-0.011433780193328857
1761132036559617800,4.05861767578125,0.022809982299804688,0.010915832594037056,0.01250411570072174
1761132036569617700,4.06861767578125,0.010840415954589844,-0.001003161072731018,-0.009108498692512512
1761132036579617800,4.07861767578125,0.027599334716796875,-0.0034170001745224,-0.006712302565574646
1761132036589617700,4.08861767578125,0.020417213439941406,0.0014164075255393982,-0.006657898426055908
1761132036599617800,4.09861767578125,0.03478240966796875,-0.0033719949424266815,0.007707312703132629
1761132036609617700,4.10861767578125,0.025203704833984375,0.0061904676258563995,0.010161861777305603
1761132036619616800,4.11861669921875,0.02520465850830078,0.006283797323703766,0.010112613439559937
1761132036629617000,4.128616943359375,0.018022537231445312,0.006281629204750061,-0.004272162914276123
1761132036639616800,4.13861669921875,0.022810935974121094,-0.010496899485588074,0.005306839942932129
1761132036649617000,4.148616943359375,0.02760028839111328,-0.012838829308748245,0.012424767017364502
1761132036659616800,4.15861669921875,0.02760028839111328,-0.015259604901075363,0.00039708614349365234
1761132036669617000,4.168616943359375,0.02520751953125,0.0038289781659841537,-0.011626467108726501
1761132036679616800,4.17861669921875,0.022813796997070312,-0.0009071528911590576,-0.011691153049468994
1761132036689617000,4.188616943359375,0.01802539825439453,0.0014678016304969788,-0.004506424069404602
1761132036699616800,4.19861669921875,0.022813796997070312,0.00623045489192009,-0.021322347223758698
1761132036709617000,4.208616943359375,0.051545143127441406,-0.00807662308216095,0.01219022274017334
1761132036719617800,4.21861767578125,0.029996871948242188,0.006214071065187454,0.00505472719669342
1761132036729617700,4.22861767578125,0.022812843322753906,0.013318128883838654,-0.009302511811256409
1761132036739617800,4.23861767578125,0.022813796997070312,0.01570660062134266,0.007398515939712524
1761132036749617700,4.24861767578125,0.022815704345703125,-0.008144520223140717,0.009723812341690063
1761132036759617800,4.25861767578125,0.025208473205566406,-0.005700413137674332,0.019413262605667114
1761132036769617700,4.26861767578125,0.008448600769042969,-0.017691880464553833,0.0026556849479675293
1761132036779617800,4.27861767578125,0.01323699951171875,0.00868947058916092,-0.0020782798528671265
1761132036789617700,4.28861767578125,0.02520751953125,-0.00568925216794014,-0.013988777995109558
1761132036799617800,4.29861767578125,0.027601242065429688,-0.0008424632251262665,-0.01878335326910019
1761132036809617700,4.30861767578125,0.02520751953125,-0.005708631128072739,0.012349545955657959
1761132036819616800,4.31861669921875,0.02520751953125,-0.008064210414886475,-0.009202510118484497
1761132036829617000,4.328616943359375,0.025208473205566406,-0.007950995117425919,-0.009253665804862976
1761132036839616800,4.33861669921875,0.020421981811523438,-0.0007230639457702637,0.012170806527137756
1761132036849617000,4.348616943359375,0.029996871948242188,-0.017555590718984604,-0.004541307687759399
1761132036859616800,4.35861669921875,0.04196739196777344,0.0015198662877082825,0.0026494264602661133
1761132036869617000,4.368616943359375,0.0036602020263671875,0.006366610527038574,-0.0021450072526931763
1761132036879616800,4.37861669921875,0.01802539825439453,-0.005623467266559601,0.0170106440782547
1761132036889617000,4.388616943359375,0.032390594482421875,-0.010425824671983719,0.01707114279270172
1761132036899616800,4.39861669921875,0.027602195739746094,0.006314776837825775,0.005102276802062988
1761132036909617000,4.408616943359375,0.01323699951171875,0.001584768295288086,0.012278735637664795
1761132036919617500,4.418617431640625,0.01562976837158203,-0.008019257336854935,-0.004359588027000427
1761132036929617700,4.42861767578125,0.01562976837158203,0.006346646696329117,-0.001965269446372986
1761132036939617800,4.43861767578125,0.025205612182617188,0.008727338165044785,-0.004298970103263855
1761132036949617700,4.44861767578125,0.029992103576660156,-0.0008559189736843109,0.003002867102622986
1761132036959617800,4.45861767578125,0.027597427368164062,-0.005666427314281464,0.002985343337059021
1761132036969617700,4.46861767578125,0.025203704833984375,0.022985445335507393,0.02214692533016205
1761132036979617800,4.47861767578125,0.029992103576660156,0.003812326118350029,-0.00897565484046936
1761132036989617700,4.48861767578125,0.04675102233886719,-0.005705706775188446,0.01017192006111145
1761132036999617800,4.49861767578125,0.05153942108154297,-0.008180100470781326,0.0029779374599456787
1761132037009617700,4.50861767578125,0.013232231140136719,0.0014377608895301819,0.014964371919631958
1761132037019616800,4.51861669921875,0.025203704833984375,-0.008016455918550491,0.005433782935142517
1761132037029617000,4.528616943359375,0.0180206298828125,-0.0009120069444179535,0.0030477046966552734
1761132037039616800,4.53861669921875,0.03238487243652344,0.008652113378047943,-0.01125684380531311
1761132037049617000,4.548616943359375,0.02041339874267578,0.003908449783921242,-0.0040199607610702515
1761132037059616800,4.55861669921875,0.03477668762207031,0.006294820457696915,-0.001506716012954712
1761132037069617000,4.568616943359375,0.03477668762207031,0.0063394345343112946,-0.0014524608850479126
1761132037079616800,4.57861669921875,0.034775733947753906,-0.015221893787384033,-0.015757165849208832
1761132037089617000,4.588616943359375,0.013226509094238281,-0.012841083109378815,0.010639607906341553
1761132037099616800,4.59861669921875,0.03238105773925781,-0.02483827993273735,-0.003782138228416443
1761132037109617000,4.608616943359375,0.013225555419921875,-0.0032393373548984528,-0.006063416600227356
1761132037119617800,4.61861767578125,0.02998828887939453,0.0015953443944454193,0.010572820901870728
1761132037129617700,4.62861767578125,0.044353485107421875,-0.008001096546649933,0.010574817657470703
1761132037139617800,4.63861767578125,0.02041149139404297,-0.003213208168745041,0.015363052487373352
1761132037149617700,4.64861767578125,0.04914093017578125,0.011072320863604546,-0.003801777958869934
1761132037159617800,4.65861767578125,0.03717041015625,-0.020078055560588837,-0.013435110449790955
1761132037169617700,4.66861767578125,0.02041149139404297,-0.01517031341791153,0.0033316612243652344
1761132037179617800,4.67861767578125,0.02519989013671875,-0.019919835031032562,0.012904345989227295
1761132037189617700,4.68861767578125,0.027593612670898438,-0.027056489139795303,-0.00858888030052185
1761132037199617800,4.69861767578125,0.01801586151123047,-0.010212291032075882,0.010615319013595581
1761132037209617700,4.70861767578125,0.013226509094238281,-0.010187175124883652,0.008277416229248047
1761132037219616800,4.71861669921875,0.03956317901611328,-0.00046770647168159485,-0.0036493539810180664
1761132037229617000,4.728616943359375,0.013225555419921875,-0.0004336610436439514,0.015638872981071472
1761132037239616800,4.73861669921875,0.029985427856445312,-0.017135068774223328,0.006055742502212524
1761132037249617000,4.748616943359375,0.029985427856445312,-0.00031917914748191833,0.008424311876296997
1761132037259616800,4.75861669921875,0.02519702911376953,0.0020025596022605896,-0.005874261260032654
1761132037269617000,4.768616943359375,0.022800445556640625,-0.00040554627776145935,0.006157100200653076
1761132037279616800,4.77861669921875,0.029982566833496094,0.00197475403547287,-0.0057535320520401
1761132037289617000,4.788616943359375,0.0060405731201171875,-0.0076211728155612946,-0.008145540952682495
1761132037299616800,4.79861669921875,0.006041526794433594,0.021167639642953873,-0.017728514969348907
1761132037309617000,4.808616943359375,0.02040576934814453,0.004270719364285469,-0.012945085763931274
1761132037319617800,4.81861767578125,0.027586936950683594,-0.01496053859591484,0.003822624683380127
1761132037329617700,4.82861767578125,0.029981613159179688,-0.007839057594537735,0.006203368306159973
1761132037339617500,4.838617431640625,0.025194168090820312,-0.007923711091279984,0.008547022938728333
1761132037349617700,4.84861767578125,0.025193214416503906,-0.0008727535605430603,0.0229656845331192
1761132037359617500,4.858617431640625,0.025191307067871094,-0.001064300537109375,0.023025035858154297
1761132037369617700,4.86861767578125,0.02998065948486328,-0.020526442676782608,0.00614030659198761
1761132037379617500,4.878617431640625,0.02998065948486328,-0.020770803093910217,0.006067097187042236
1761132037389617700,4.88861767578125,0.029979705810546875,-0.013878107070922852,0.010905817151069641
1761132037399617500,4.898617431640625,0.020401954650878906,0.00041193142533302307,0.003751024603843689
1761132037409617700,4.90861767578125,0.027584075927734375,-0.0022092051804065704,-0.02028564363718033
1761132037419616800,4.91861669921875,0.03476905822753906,-0.009523177519440651,-0.022804006934165955
1761132037429617000,4.928616943359375,0.008432388305664062,0.014157403260469437,-0.013278752565383911
1761132037439616800,4.93861669921875,0.02998065948486328,0.006910415366292,-0.03009050339460373
1761132037449617000,4.948616943359375,0.029979705810546875,0.018806658685207367,0.010657981038093567
1761132037459616800,4.95861669921875,0.025193214416503906,-0.005088817328214645,0.005746498703956604
1761132037469617000,4.968616943359375,0.034770965576171875,-0.01708635687828064,0.010478109121322632
1761132037479616800,4.97861669921875,0.05153083801269531,-0.017217673361301422,0.027113214135169983
1761132037489617000,4.988616943359375,0.03477191925048828,-0.01496301218867302,0.027107805013656616
1761132037499616800,4.99861669921875,0.03716564178466797,-0.019809674471616745,0.01993142068386078
1761132037509617000,5.008616943359375,0.046744346618652344,-0.005374211817979813,0.0222395658493042
1761132037519617500,5.018617431640625,0.0084381103515625,-0.005371151491999626,0.0005336254835128784
1761132037529617700,5.02861767578125,0.0036516189575195312,-0.0053595490753650665,-0.02109416574239731
1761132037539617800,5.03861767578125,0.013228416442871094,0.0018210168927907944,-0.018719471991062164
1761132037549617700,5.04861767578125,0.02759265899658203,0.004137886688113213,-0.004346013069152832
1761132037559617800,5.05861767578125,0.022805213928222656,0.0017374362796545029,-0.025952398777008057
1761132037569617700,5.06861767578125,0.022806167602539062,-0.0294725950807333,-0.011656790971755981
1761132037579617800,5.07861767578125,0.02041149139404297,-0.0008593350648880005,0.005114808678627014
1761132037589617700,5.08861767578125,0.027593612670898438,-0.034458354115486145,0.03622804582118988
1761132037599617800,5.09861767578125,0.03238201141357422,-0.024922601878643036,0.01945321261882782
1761132037609617700,5.10861767578125,0.0395660400390625,-0.00585530512034893,0.024171695113182068
1761132037619616800,5.11861669921875,0.029990196228027344,-0.015500962734222412,-0.007044389843940735
1761132037629617000,5.128616943359375,0.053931236267089844,0.008405297994613647,-0.002213001251220703
1761132037639616800,5.13861669921875,0.022806167602539062,0.0011685583740472794,0.009803086519241333
1761132037649617000,5.148616943359375,0.02759552001953125,-0.013209458440542221,-0.002285003662109375
1761132037659616800,5.15861669921875,0.02999114990234375,0.017906220629811287,-0.021516911685466766
1761132037669617000,5.168616943359375,0.02999114990234375,0.013164820149540901,-0.016654469072818756
1761132037679616800,5.17861669921875,0.015626907348632812,0.0036407168954610825,0.014405474066734314
1761132037689617000,5.188616943359375,0.015626907348632812,0.003614962100982666,0.01434895396232605
1761132037699616800,5.19861669921875,0.041962623596191406,-0.008357694372534752,0.01911798119544983
1761132037709617000,5.208616943359375,0.020415306091308594,0.001199863851070404,0.009543284773826599
1761132037719617800,5.21861767578125,0.025203704833984375,0.003574429079890251,0.014333710074424744
1761132037729617700,5.22861767578125,0.022808074951171875,0.005955245345830917,0.019182652235031128
1761132037749617700,5.24861767578125,0.0180206298828125,0.010783180594444275,0.014390349388122559
1761132037759617800,5.25861767578125,0.018019676208496094,-0.0035949833691120148,0.0024799108505249023
1761132037769617700,5.26861767578125,0.01801776885986328,-0.0036666300147771835,0.00254666805267334
1761132037779617800,5.27861767578125,0.020412445068359375,0.005955571308732033,0.0026011914014816284
1761132037789617700,5.28861767578125,0.027594566345214844,-0.0013070981949567795,-0.006986960768699646
1761132037799617800,5.29861767578125,0.02041149139404297,-0.0013653580099344254,-0.026134371757507324
1761132037809617700,5.30861767578125,0.04195880889892578,-0.006173398345708847,0.004992246627807617
1761132037819616800,5.31861669921875,0.015623092651367188,0.005778104066848755,-0.0021883100271224976
1761132037829617000,5.328616943359375,0.03238201141357422,0.005763811990618706,0.000266149640083313
1761132037839616800,5.33861669921875,0.027594566345214844,0.0057555194944143295,0.01694747805595398
1761132037849617000,5.348616943359375,0.027594566345214844,-0.006235556676983833,0.00976686179637909
1761132037859616800,5.35861669921875,0.02998828887939453,0.003385983407497406,0.012215390801429749
1761132037869617000,5.368616943359375,0.039565086364746094,0.0034402944147586823,-0.006983399391174316
1761132037879616800,5.37861669921875,0.04195976257324219,-0.015734609216451645,-0.004606589674949646
1761132037889617000,5.388616943359375,0.020412445068359375,0.017844343557953835,0.0025894194841384888
1761132037899616800,5.39861669921875,0.010834693908691406,0.008312538266181946,-0.016509808599948883
1761132037909617000,5.408616943359375,0.027593612670898438,-0.0012196507304906845,0.002698078751564026
1761132037919617500,5.418617431640625,0.015624046325683594,0.006053410470485687,-0.018918640911579132
1761132037929617700,5.42861767578125,0.020412445068359375,-0.0011872779577970505,0.00024110078811645508
1761132037939617800,5.43861767578125,0.029989242553710938,-0.010725639760494232,0.009813770651817322
1761132037949617700,5.44861767578125,0.032382965087890625,-0.02264476753771305,0.0025663524866104126
1761132037959617800,5.45861767578125,0.022806167602539062,0.010854415595531464,-0.002220049500465393
1761132037969617700,5.46861767578125,0.025200843811035156,-0.010653601959347725,0.004958733916282654
1761132037979617800,5.47861767578125,0.027596473693847656,0.008612839505076408,-0.014246165752410889
1761132037989617700,5.48861767578125,0.02759552001953125,0.0038100965321063995,0.016938820481300354
1761132037999617800,5.49861767578125,0.03238487243652344,0.0014549121260643005,0.02172313630580902
1761132038009617700,5.50861767578125,0.015625953674316406,-0.005668869242072105,0.00016917288303375244
1761132038019616800,5.51861669921875,0.03717231750488281,-0.0056824274361133575,-0.0021643787622451782
1761132038029617000,5.528616943359375,0.018019676208496094,-0.022467993199825287,0.0025673657655715942
1761132038039616800,5.53861669921875,0.029990196228027344,-0.010510366410017014,-0.006948888301849365
1761132038049617000,5.548616943359375,0.02280712127685547,0.008701244369149208,-0.004560992121696472
1761132038059616800,5.55861669921875,0.020414352416992188,0.02315772883594036,0.012129664421081543
1761132038069617000,5.568616943359375,0.018019676208496094,-0.01030014269053936,-0.002222016453742981
1761132038079616800,5.57861669921875,0.013231277465820312,-0.003138827160000801,0.00015479326248168945
1761132038089617000,5.588616943359375,0.02999114990234375,0.0063013117760419846,0.009745821356773376
1761132038099616800,5.59861669921875,0.01801776885986328,-0.01052592322230339,0.0050631314516067505
1761132038109617000,5.608616943359375,0.029989242553710938,0.0013665445148944855,0.0170421302318573
1761132038119617800,5.61861767578125,0.02519989013671875,-0.003482600674033165,0.014634639024734497
1761132038129617700,5.62861767578125,0.03717041015625,0.015592471696436405,0.021825209259986877
1761132038139617800,5.63861767578125,0.03717041015625,-0.00596955232322216,0.00033783912658691406
1761132038149617700,5.64861767578125,0.022805213928222656,0.008433761075139046,0.005121856927871704
1761132038159617800,5.65861767578125,0.022805213928222656,-0.0010846573859453201,0.0003272742033004761
1761132038169617700,5.66861767578125,0.03477668762207031,-0.01061645895242691,-0.011589333415031433
1761132038179617800,5.67861767578125,0.027593612670898438,-0.0010657161474227905,0.02187301218509674
1761132038189617700,5.68861767578125,0.022806167602539062,-0.015318488702178001,-0.006908848881721497
1761132038199617800,5.69861767578125,0.022808074951171875,0.008669670671224594,-0.01182045042514801
1761132038209617700,5.70861767578125,0.02999114990234375,-0.01529146358370781,0.009729519486427307
1761132038219616800,5.71861669921875,0.03238487243652344,0.006373647600412369,0.007323175668716431
1761132038229617000,5.728616943359375,0.010837554931640625,0.006474306806921959,0.021697893738746643
1761132038239616800,5.73861669921875,0.015625953674316406,-0.01754656247794628,0.009715810418128967
1761132038249617000,5.748616943359375,0.010837554931640625,-0.0007799435406923294,-0.0069848597049713135
1761132038259616800,5.75861669921875,0.020414352416992188,-0.019895106554031372,0.012164637446403503
1761132038269617000,5.768616943359375,0.046749114990234375,-0.003148255869746208,0.01940794289112091
1761132038279616800,5.77861669921875,0.03238391876220703,-0.01029198057949543,0.007432803511619568
1761132038289617000,5.788616943359375,0.03717231750488281,-0.0007157381623983383,0.00025016069412231445
1761132038299616800,5.79861669921875,0.02999114990234375,-0.005472160875797272,-0.006995365023612976
1761132038309617000,5.808616943359375,0.032382965087890625,0.0017035752534866333,0.0027006566524505615
1761132038319617800,5.81861767578125,0.03477764129638672,-0.0054405368864536285,-0.006880417466163635
1761132038329617700,5.82861767578125,0.010835647583007812,-0.02471093088388443,0.012285545468330383
1761132038339617500,5.838617431640625,0.037171363830566406,0.0135166235268116,0.01706273853778839
1761132038349617700,5.84861767578125,0.01801776885986328,0.013555893674492836,-0.016460083425045013
1761132038359617500,5.858617431640625,0.018016815185546875,0.013602545484900475,-0.016386322677135468
1761132038369617700,5.86861767578125,0.025200843811035156,0.006418291479349136,0.005142122507095337
1761132038379617500,5.878617431640625,0.02759265899658203,0.001557469367980957,0.00760282576084137
1761132038389617700,5.88861767578125,0.008440017700195312,0.01589692384004593,-0.01639571040868759
1761132038399617500,5.898617431640625,0.04195976257324219,-0.0032042954117059708,0.009875863790512085
1761132038409617700,5.90861767578125,0.029989242553710938,-0.008013159036636353,0.007483527064323425
1761132038419616800,5.91861669921875,0.029990196228027344,-0.02472113072872162,0.0002361088991165161
1761132038429617000,5.928616943359375,0.015623092651367188,-0.029535993933677673,0.012328192591667175
1761132038439616800,5.93861669921875,0.01801586151123047,-0.01518416777253151,0.0004177391529083252
1761132038449616600,5.94861669921875,0.02759265899658203,-0.015184340998530388,-0.004370570182800293
1761132038459616800,5.95861669921875,0.03477764129638672,0.006369002163410187,0.014644414186477661
1761132038469616600,5.96861669921875,0.018016815185546875,-0.003279712051153183,0.009922698140144348
1761132038479616800,5.97861669921875,0.0012578964233398438,0.0038893800228834152,-0.00917041301727295
1761132038489616600,5.98861669921875,0.022805213928222656,0.018287306651473045,0.002738088369369507
1761132038499616800,5.99861669921875,0.022806167602539062,0.0038558468222618103,-0.0069106221199035645
1761132038509616600,6.00861669921875,0.04195976257324219,-0.0033852793276309967,0.00027811527252197266
1761132038519617500,6.018617431640625,0.0036516189575195312,-0.0010032430291175842,0.014723256230354309
1761132038529617700,6.02861767578125,0.02519989013671875,0.01094786636531353,0.000359952449798584
1761132038539617500,6.038617431640625,0.037169456481933594,0.01567775383591652,0.017125487327575684
1761132038549617700,6.04861767578125,0.02041149139404297,-0.0010483786463737488,0.012274622917175293
1761132038559617500,6.058617431640625,0.02280426025390625,-0.010677974671125412,0.01712752878665924
1761132038569617700,6.06861767578125,0.02998828887939453,0.006116369739174843,-0.026011183857917786
1761132038579617500,6.078617431640625,0.018016815185546875,0.022934691980481148,-0.014046162366867065
1761132038589617700,6.08861767578125,0.03477668762207031,-0.008207397535443306,-0.004447832703590393
1761132038599617500,6.098617431640625,0.032382965087890625,-0.003425898030400276,-0.018871821463108063
1761132038609617700,6.10861767578125,0.034775733947753906,0.010867372155189514,0.0027427971363067627
1761132038619616800,6.11861669921875,0.03716850280761719,0.01804232783615589,-0.004320859909057617
1761132038629617000,6.128616943359375,0.015621185302734375,0.0012773536145687103,0.002803295850753784
1761132038639616800,6.13861669921875,0.025197982788085938,0.02280605211853981,0.014776468276977539
1761132038649617000,6.148616943359375,0.025197982788085938,0.006049072369933128,-0.004357516765594482
1761132038659616800,6.15861669921875,0.04195690155029297,-0.003592768684029579,0.029108792543411255
1761132038669617000,6.168616943359375,0.0084381103515625,0.0011818613857030869,0.010015591979026794
1761132038679616800,6.17861669921875,0.025197982788085938,0.008403480052947998,0.012405723333358765
1761132038689617000,6.188616943359375,0.020407676696777344,-0.0012391041964292526,0.01971353590488434
1761132038699616800,6.19861669921875,0.03477191925048828,-0.001310618594288826,-0.006555870175361633
1761132038709617000,6.208616943359375,0.03477191925048828,-0.0037698522210121155,-0.0161852166056633
1761132038719617800,6.21861767578125,0.027589797973632812,0.003406628966331482,-0.013849526643753052
1761132038729617700,6.22861767578125,0.029985427856445312,0.017708109691739082,0.00046359002590179443
1761132038739617800,6.23861767578125,0.018013954162597656,-0.011099904775619507,-0.009105056524276733
1761132038749617700,6.24861767578125,0.018011093139648438,-0.008771480992436409,0.0029911547899246216
1761132038759617800,6.25861767578125,0.027587890625,-0.011165684089064598,0.02214476466178894
1761132038769617700,6.26861767578125,0.020404815673828125,-0.004120057448744774,0.01737065613269806
1761132038779617800,6.27861767578125,0.027587890625,-0.004184266552329063,0.002953052520751953
1761132038789617700,6.28861767578125,0.027588844299316406,-0.004267636686563492,0.0029029548168182373
1761132038799617800,6.29861767578125,0.0299835205078125,-0.016296599060297012,0.005303308367729187
1761132038809617700,6.30861767578125,0.0299835205078125,0.0076392944902181625,-0.004332020878791809
1761132038819616800,6.31861669921875,0.03237724304199219,-0.011408621445298195,-0.0042641907930374146
1761132038829617000,6.328616943359375,0.02519512176513672,-0.016138939186930656,-0.011452898383140564
1761132038839616800,6.33861669921875,0.010829925537109375,-0.008916059508919716,-0.0018609315156936646
1761132038849617000,6.348616943359375,0.03477191925048828,-0.006541796028614044,-0.011435702443122864
1761132038859616800,6.35861669921875,0.03477001190185547,-0.020959358662366867,-0.001794382929801941
1761132038869617000,6.368616943359375,0.025194168090820312,0.024565793573856354,-0.0018373429775238037
1761132038879616800,6.37861669921875,0.022800445556640625,-0.016141759231686592,0.005286738276481628
1761132038889617000,6.388616943359375,0.022798538208007812,-0.016207542270421982,0.005411937832832336
1761132038899616800,6.39861669921875,0.03955841064453125,0.007675569504499435,0.005417928099632263
1761132038909617000,6.408616943359375,0.032375335693359375,0.0004665125161409378,0.002967134118080139
1761132038919617500,6.418617431640625,0.03716564178466797,0.010037194937467575,-0.00427401065826416
1761132038929617700,6.42861767578125,0.04913520812988281,0.002663610503077507,0.0005738437175750732
1761132038939617800,6.43861767578125,0.008432388305664062,-0.00459076464176178,0.012611567974090576
1761132038949617700,6.44861767578125,0.022797584533691406,-0.006924407556653023,-0.004134461283683777
1761132038959617800,6.45861767578125,-0.0011444091796875,0.007420908659696579,-0.011315152049064636
1761132038969617700,6.46861767578125,0.018009185791015625,-0.02610364928841591,-0.004190951585769653
1761132038979617800,6.47861767578125,0.022795677185058594,-0.023715058341622353,0.003130123019218445
1761132038989617700,6.48861767578125,0.013218879699707031,-0.01655195653438568,-0.006444647908210754
1761132038999617800,6.49861767578125,0.032372474670410156,0.00033265724778175354,0.007986336946487427
1761132039009617700,6.50861767578125,0.03237342834472656,0.0027792546898126602,0.0031332969665527344
1761132039019617000,6.518616943359375,0.001251220703125,-0.004303077235817909,-0.01379440724849701
1761132039029617200,6.5286171875,0.025194168090820312,-0.023337997496128082,0.005366325378417969
1761132039039617300,6.5386171875,0.015620231628417969,-0.011386185884475708,0.00040224194526672363
1761132039049617200,6.5486171875,0.0299835205078125,0.007695140317082405,0.007651388645172119
1761132039059617300,6.5586171875,0.02519512176513672,0.0004922449588775635,0.012441590428352356
1761132039069617200,6.5686171875,0.015618324279785156,0.00043372809886932373,0.031601324677467346
1761132039079617000,6.578616943359375,0.03477191925048828,-0.01395098865032196,0.0100555419921875
1761132039089617200,6.5886171875,0.018012046813964844,0.00275307334959507,0.002886146306991577
1761132039099617000,6.598616943359375,0.027588844299316406,0.0003389716148376465,0.010070651769638062
1761132039109617200,6.6086171875,0.0299835205078125,0.007521577179431915,-0.016265563666820526
1761132039119618000,6.6186181640625,0.034770965576171875,-0.006860705092549324,-0.013849690556526184
1761132039129618000,6.628617919921875,0.006041526794433594,0.005162836983799934,-0.016308479011058807
1761132039139618000,6.6386181640625,0.01561737060546875,-0.011674994602799416,-0.009117856621742249
1761132039149618000,6.648617919921875,0.03237628936767578,0.0074782297015190125,-0.013906389474868774
1761132039159618000,6.6586181640625,0.020404815673828125,-0.026051944121718407,-0.001855313777923584
1761132039169618000,6.668617919921875,0.0299835205078125,-0.021211570128798485,0.019627884030342102
1761132039179618000,6.6786181640625,0.015620231628417969,-0.0044647809118032455,0.033875927329063416
1761132039189618000,6.688617919921875,0.02759075164794922,-0.009252794086933136,0.007539823651313782
1761132039199618000,6.6986181640625,0.020407676696777344,-0.009269827976822853,0.012349769473075867
1761132039209618000,6.708617919921875,0.03477191925048828,0.029102426022291183,0.007613912224769592
1761132039219617000,6.718616943359375,0.03477191925048828,-0.00926332175731659,-0.006745189428329468
1761132039229617200,6.7286171875,0.020406723022460938,0.012199526652693748,-0.01397828757762909
1761132039239617000,6.738616943359375,0.027588844299316406,0.0074700769037008286,-0.004407614469528198
1761132039249617200,6.7486171875,0.01801300048828125,-0.004459364339709282,0.012367427349090576
1761132039259617000,6.758616943359375,0.020406723022460938,-0.006788536906242371,-0.004339471459388733
1761132039269617200,6.7686171875,0.013223648071289062,-0.006809171289205551,-0.0067192018032073975
1761132039279617000,6.778616943359375,0.03237628936767578,-0.002034153789281845,0.0005239695310592651
1761132039289617200,6.7886171875,0.02040576934814453,-0.030645499005913734,0.017290636897087097
1761132039299617000,6.798616943359375,0.029982566833496094,0.005327656865119934,0.007727205753326416
1761132039309617200,6.8086171875,0.008434295654296875,-0.011450830847024918,0.012517645955085754
1761132039319617800,6.81861767578125,0.013222694396972656,-0.0018939599394798279,0.017308101058006287
1761132039329617700,6.82861767578125,0.01322174072265625,-0.0018877927213907242,0.0006070882081985474
1761132039339617500,6.838617431640625,0.022797584533691406,0.0148002365604043,-0.0017202645540237427
1761132039349617700,6.84861767578125,0.02040386199951172,-0.018782837316393852,-0.01853194087743759
1761132039359617500,6.858617431640625,0.015615463256835938,0.0051396749913692474,0.007806316018104553
1761132039369617700,6.86861767578125,0.04195213317871094,-0.009229619055986404,0.005373105406761169
1761132039379617500,6.878617431640625,0.032375335693359375,0.0003276783972978592,0.007769346237182617
1761132039389617700,6.88861767578125,0.010828018188476562,-0.0020080003887414932,0.005369022488594055
1761132039399617500,6.898617431640625,0.03955841064453125,0.0027023758739233017,0.01734820008277893
1761132039409617700,6.90861767578125,0.025193214416503906,0.01227879524230957,0.01734808087348938
1761132039419616800,6.91861669921875,0.0251922607421875,-0.018798256292939186,0.005451127886772156
1761132039429617000,6.928616943359375,0.027584075927734375,0.005137840285897255,0.036695122718811035
1761132039439616800,6.93861669921875,0.032372474670410156,0.00035394541919231415,0.008003711700439453
1761132039449617000,6.948616943359375,0.04434394836425781,-0.0021094121038913727,0.005518108606338501
1761132039459616800,6.95861669921875,0.037161827087402344,-0.006978267803788185,0.005506649613380432
1761132039469617000,6.968616943359375,0.008429527282714844,0.0027107466012239456,0.008027300238609314
1761132039479616800,6.97861669921875,0.032372474670410156,0.012281432747840881,-0.006396427750587463
1761132039489617000,6.988616943359375,0.02758312225341797,0.005085442215204239,-0.0063358694314956665
1761132039499616800,6.99861669921875,0.013218879699707031,-0.011619102209806442,0.007984206080436707
1761132039509617000,7.008616943359375,0.034766197204589844,0.0002933871001005173,-0.0015864521265029907
1761132039519617500,7.018617431640625,0.02040386199951172,0.0099103432148695,0.007808655500411987
1761132039529617700,7.02861767578125,0.04195213317871094,-0.004577126353979111,0.005368486046791077
1761132039539617500,7.038617431640625,0.044345855712890625,-0.0021958723664283752,0.01979425549507141
1761132039549617700,7.04861767578125,0.02758502960205078,0.0074276793748140335,0.017474010586738586
1761132039559617500,7.058617431640625,0.02998065948486328,0.00508587621152401,0.003044143319129944
1761132039569617700,7.06861767578125,0.020402908325195312,0.005133053287863731,-0.00645872950553894
1761132039579617800,7.07861767578125,0.015614509582519531,0.002739669755101204,0.0031182020902633667
1761132039589617700,7.08861767578125,0.015613555908203125,0.002786455675959587,0.003192022442817688
1761132039599617500,7.098617431640625,0.025190353393554688,-0.004337633028626442,-0.008785098791122437
1761132039609617700,7.10861767578125,0.025190353393554688,-0.004296191036701202,0.01277826726436615
1761132039619616800,7.11861669921875,0.025191307067871094,-0.0043019261211156845,0.012719884514808655
1761132039629617000,7.128616943359375,0.015615463256835938,-0.001787818968296051,0.007938861846923828
1761132039639616800,7.13861669921875,0.022796630859375,-0.008924338966608047,0.03432968258857727
1761132039649617000,7.148616943359375,0.015614509582519531,0.0006491616368293762,-0.004016295075416565
1761132039659616800,7.15861669921875,0.03955554962158203,0.010213013738393784,0.0032268762588500977
1761132039669617000,7.168616943359375,0.032372474670410156,0.0054051075130701065,0.012805715203285217
1761132039679616800,7.17861669921875,0.027584075927734375,-0.004171313717961311,0.010411635041236877
1761132039689617000,7.188616943359375,0.034766197204589844,0.0006699971854686737,0.015332385897636414
1761132039699616800,7.19861669921875,0.020399093627929688,-0.006642643362283707,0.017799511551856995
1761132039709617000,7.208616943359375,0.027581214904785156,-0.018680332228541374,-0.006214410066604614
1761132039719617500,7.218617431640625,0.03955364227294922,-0.0018819086253643036,0.0105409175157547
1761132039729617700,7.22861767578125,0.025188446044921875,-0.0018817801028490067,-0.0038242489099502563
1761132039739617500,7.238617431640625,0.03236961364746094,-0.00913589634001255,0.01539619266986847
1761132039749617700,7.24861767578125,0.022792816162109375,-0.0043060146272182465,0.005834802985191345
1761132039759617500,7.258617431640625,0.03715705871582031,0.007789766415953636,0.01068897545337677
1761132039769617700,7.26861767578125,0.03715705871582031,-0.004082450643181801,0.005909636616706848
1761132039779617800,7.27861767578125,0.01800537109375,-0.0064246803522109985,-0.003731831908226013
1761132039789617700,7.28861767578125,0.02279376983642578,0.005546757951378822,-0.00612601637840271
1761132039799617800,7.29861767578125,0.015610694885253906,0.005587810650467873,0.001072019338607788
1761132039819616800,7.31861669921875,0.020397186279296875,-0.011196332052350044,-0.010758370161056519
1761132039829617000,7.328616943359375,0.032367706298828125,0.010416513308882713,0.013236179947853088
1761132039839616800,7.33861669921875,0.022790908813476562,0.0008136909455060959,0.013179570436477661
1761132039849616600,7.34861669921875,0.032367706298828125,0.0032095033675432205,0.0036222636699676514
1761132039859616800,7.35861669921875,0.04194450378417969,0.00337371788918972,-0.010681241750717163
1761132039869616400,7.368616455078125,0.010820388793945312,-0.02290915884077549,0.001225307583808899
1761132039879615200,7.378615234375,0.03955078125,-0.006160270422697067,-0.0010886937379837036
1761132039899615500,7.398615478515625,0.015608787536621094,-0.003665683791041374,0.01568014919757843
1761132039909615400,7.408615478515625,0.027579307556152344,0.015429413877427578,0.0156862735748291
1761132039919616300,7.4186162109375,0.04194450378417969,-0.0012914203107357025,0.0013169646263122559
1761132039929616100,7.4286162109375,0.015608787536621094,-0.018056519329547882,0.010835260152816772
1761132039939616300,7.4386162109375,0.037156105041503906,0.005887104198336601,0.006066367030143738
1761132039949616000,7.4486162109375,0.022792816162109375,-0.02745980955660343,0.0060089826583862305
1761132039959616300,7.4586162109375,0.027582168579101562,0.0013640634715557098,0.015536591410636902
1761132039969616100,7.4686162109375,0.034763336181640625,-0.0010382197797298431,-0.003498092293739319
1761132039979616300,7.4786162109375,0.02758026123046875,-0.005826622247695923,0.010867118835449219
1761132039999616300,7.4986162109375,0.039549827575683594,0.008394088596105576,0.006211981177330017
1761132040009616400,7.508616455078125,0.018001556396484375,-0.020355839282274246,0.006214037537574768
1761132040019615500,7.518615478515625,0.02997112274169922,-0.018015235662460327,0.020643621683120728
1761132040029615400,7.528615478515625,0.02757549285888672,0.0011286884546279907,0.023137256503105164
1761132040039615500,7.538615478515625,0.03475761413574219,0.010774601250886917,0.0064693838357925415
1761132040049615400,7.548615478515625,0.029969215393066406,0.008378783240914345,-0.007915318012237549
1761132040059615500,7.558615478515625,0.0323638916015625,-0.005866570398211479,-0.005513593554496765
1761132040069615400,7.568615478515625,0.015605926513671875,0.006212474778294563,-0.015199922025203705
1761132040079615500,7.578615478515625,0.0323638916015625,0.025233622640371323,-0.005569815635681152
1761132040089615400,7.588615478515625,0.03954601287841797,-0.0036271754652261734,0.004079669713973999
1761132040099615200,7.598615234375,0.020391464233398438,-0.010823085904121399,0.0017461925745010376
1761132040109615400,7.608615478515625,0.013208389282226562,0.020361199975013733,0.018518701195716858
1761132040119616300,7.6186162109375,0.015604019165039062,-0.017833882942795753,0.013678908348083496
1761132040129616100,7.6286162109375,0.03715229034423828,0.01571838930249214,0.0016453415155410767
1761132040139616300,7.6386162109375,0.02039337158203125,-0.005945693701505661,0.0040520429611206055
1761132040149616400,7.648616455078125,0.017996788024902344,-0.008346732705831528,-0.00540567934513092
1761132040159616500,7.658616455078125,0.03236103057861328,0.0036108922213315964,-0.0005567073822021484
1761132040169617000,7.668616943359375,0.0060253143310546875,-0.00598299503326416,-0.005323439836502075
1761132040179617800,7.67861767578125,0.022785186767578125,-0.008443491533398628,-0.0030010193586349487
1761132040189617700,7.68861767578125,0.03475475311279297,-0.010967686772346497,-0.0053224265575408936
1761132040199617800,7.69861767578125,0.027570724487304688,0.012960515916347504,-0.010050266981124878
1761132040209617700,7.70861767578125,0.02996540069580078,0.003444824367761612,-0.02440205216407776
1761132040219616800,7.71861669921875,0.02756977081298828,-0.008539572358131409,-0.0027936846017837524
1761132040229617000,7.728616943359375,0.010811805725097656,-0.008546119555830956,-0.002852201461791992
1761132040239616800,7.73861669921875,0.02278423309326172,-0.015680402517318726,0.004226759076118469
1761132040249617000,7.748616943359375,0.008419036865234375,0.00826122798025608,0.025774449110031128
1761132040259616800,7.75861669921875,0.029967308044433594,0.0058410149067640305,0.011352628469467163
1761132040269617000,7.768616943359375,0.05391120910644531,0.0034544654190540314,-0.007919922471046448
1761132040279616800,7.77861669921875,0.027574539184570312,0.0009818468242883682,-0.0031235069036483765
1761132040289617000,7.788616943359375,0.03236198425292969,-0.008605916053056717,0.0017451047897338867
1761132040299616800,7.79861669921875,0.010813713073730469,0.0034102238714694977,0.011376336216926575
1761132040309617000,7.808616943359375,0.025178909301757812,-0.001379380002617836,-0.0005949139595031738
1761132040319617500,7.818617431640625,0.020391464233398438,0.005976742133498192,-0.003026992082595825
1761132040329617700,7.82861767578125,0.010813713073730469,-0.010921258479356766,-0.0030322372913360596
1761132040339617500,7.838617431640625,0.010813713073730469,-0.013432364910840988,0.008951067924499512
1761132040349617700,7.84861767578125,0.027573585510253906,0.0009653493762016296,0.01846514642238617
1761132040359617500,7.858617431640625,0.027573585510253906,0.0009677764028310776,0.028061598539352417
1761132040369617700,7.86861767578125,0.0275726318359375,-0.01341000385582447,0.01615127921104431
1761132040379617500,7.878617431640625,0.039544105529785156,-0.0014414209872484207,0.006554827094078064
1761132040389617700,7.88861767578125,0.02996826171875,0.003340858966112137,0.004102110862731934
1761132040399617500,7.898617431640625,0.010813713073730469,0.020087681710720062,-0.007788956165313721
1761132040409617700,7.90861767578125,0.008419036865234375,0.0009153746068477631,-0.005392581224441528
1761132040419617000,7.918616943359375,0.022783279418945312,-0.006386304274201393,-0.010188266634941101
1761132040429616400,7.928616455078125,0.029967308044433594,0.007914261892437935,0.004124552011489868
1761132040439616000,7.938615966796875,0.03714752197265625,0.0030540823936462402,0.0089796781539917
1761132040449615400,7.948615478515625,0.03714752197265625,0.0005879737436771393,-0.007713049650192261
1761132040459615000,7.958614990234375,0.013207435607910156,0.0005753468722105026,0.01611180603504181
1761132040469614300,7.9686142578125,0.039542198181152344,-0.006679156795144081,0.001813262701034546
1761132040479614500,7.978614501953125,0.04193592071533203,0.0029516983777284622,0.006556406617164612
1761132040489614300,7.9886142578125,0.04193592071533203,-0.0019082222133874893,0.020988434553146362
1761132040499614500,7.998614501953125,0.020387649536132812,-0.006709620356559753,0.004289701581001282
1761132040509614300,8.0086142578125,0.022780418395996094,-0.016300201416015625,-0.007620871067047119
1761132040519615200,8.018615234375,0.05390453338623047,-0.01617419719696045,0.006810247898101807
1761132040529615000,8.028614990234376,0.049117088317871094,-0.004215853288769722,-0.01485460251569748
1761132040539615200,8.038615234375,0.017993927001953125,0.0006859395653009415,0.00185355544090271
1761132040549615400,8.048615478515625,0.03235626220703125,-0.0017263665795326233,-0.0171007439494133
1761132040559615200,8.058615234375,0.02517414093017578,0.017369115725159645,0.0020591169595718384
1761132040569615000,8.068614990234375,0.022779464721679688,-0.004139261320233345,0.004449233412742615
1761132040579615200,8.078615234375,0.015596389770507812,-0.004072580486536026,0.009309545159339905
1761132040589615000,8.088614990234374,0.03235626220703125,-0.004098637029528618,-0.002717941999435425
1761132040599615200,8.098615234375,0.02517414093017578,-0.013733530417084694,-0.009894415736198425
1761132040609615000,8.108614990234376,0.017992019653320312,0.014865572564303875,-0.007624521851539612
1761132040619614200,8.1186142578125,0.03235626220703125,-0.0020242631435394287,0.006813481450080872
1761132040629614300,8.1286142578125,0.03714179992675781,-0.02369600348174572,-0.00023765861988067627
1761132040639614200,8.1386142578125,0.03474903106689453,-0.011730985715985298,0.004492253065109253
1761132040649614300,8.1486142578125,0.0443267822265625,0.0026675015687942505,0.011612385511398315
1761132040659614200,8.1586142578125,0.0227813720703125,0.0003927573561668396,0.006653383374214172
1761132040669614000,8.168614013671874,0.022782325744628906,0.00032768771052360535,0.025754600763320923
1761132040679613400,8.178613525390626,0.02756977081298828,-0.0068678706884384155,-0.014886267483234406
1761132040689613600,8.188613525390625,0.03235816955566406,-0.01405416987836361,-0.007742539048194885
1761132040699613400,8.198613525390625,0.04432868957519531,0.0050803180783987045,0.016201645135879517
1761132040709613600,8.208613525390625,0.008416175842285156,-0.011620575562119484,-0.014929108321666718
1761132040719613400,8.218613525390625,0.020387649536132812,-0.01163761131465435,0.006640270352363586
1761132040729613300,8.22861328125,0.032357215881347656,-0.009316127747297287,-0.0028699934482574463
1761132040739613200,8.23861328125,0.013202667236328125,-0.006934931501746178,0.021132707595825195
1761132040749612800,8.24861279296875,0.017992019653320312,0.009818488731980324,0.013891637325286865
1761132040759612700,8.25861279296875,0.027568817138671875,-0.004492279142141342,-0.007701322436332703
1761132040769612500,8.268612548828125,0.01081085205078125,0.002748459577560425,0.02341705560684204
1761132040779612000,8.27861181640625,0.020386695861816406,-0.018812309950590134,0.018689215183258057
1761132040789611800,8.28861181640625,0.032355308532714844,-0.016544457525014877,0.014012634754180908
1761132040799612000,8.29861181640625,0.02996063232421875,0.005027327686548233,0.02841491997241974
1761132040809611800,8.30861181640625,0.029961585998535156,-0.006948571652173996,0.014010593295097351
1761132040819611000,8.31861083984375,0.025175094604492188,0.005105691030621529,-0.0005013644695281982
1761132040829611000,8.328611083984375,0.03475379943847656,0.0003672633320093155,0.00180855393409729
1761132040839611000,8.33861083984375,0.025177001953125,0.0195151399821043,-0.005432456731796265
1761132040849611000,8.348611083984375,0.017993927001953125,0.002736220136284828,0.001752212643623352
1761132040859611000,8.35861083984375,0.02996540069580078,-0.00929274782538414,0.0017583668231964111
1761132040869611000,8.368611083984375,0.025175094604492188,-0.006903389468789101,0.00429128110408783
1761132040879610400,8.3786103515625,0.03714466094970703,-0.016612663865089417,0.016315579414367676
1761132040889609500,8.388609375,0.017991065979003906,-0.0070533230900764465,0.013942927122116089
1761132040899608800,8.39860888671875,0.0060214996337890625,-0.02143077366054058,-0.007721930742263794
1761132040909608400,8.4086083984375,0.03954029083251953,-0.009400047361850739,0.018608421087265015
1761132040919609300,8.418609375,0.03954029083251953,-0.016524944454431534,0.016207978129386902
1761132040979607600,8.478607666015625,0.02039051055908203,-0.008984599262475967,0.006475165486335754
1761132040989607700,8.488607666015625,0.020391464233398438,-0.008912689983844757,0.006408482789993286
1761132040999607600,8.498607666015625,0.03715229034423828,-0.02083091251552105,0.0015555769205093384
1761132041009607400,8.508607421875,0.025180816650390625,-0.00648355670273304,0.013548001646995544
1761132041019607300,8.518607177734374,0.03715038299560547,-0.008795268833637238,0.01836739480495453
1761132041029608000,8.52860791015625,0.0323638916015625,-0.0015992745757102966,0.013518422842025757
1761132041039608800,8.53860888671875,0.034758567810058594,0.012763509526848793,-0.008049026131629944
1761132041049609500,8.548609375,0.04433631896972656,0.003238670527935028,-0.01050788164138794
1761132041059610000,8.558610107421876,0.015604972839355469,0.0007867682725191116,0.008651986718177795
1761132041069610800,8.56861083984375,0.022787094116210938,-0.006474245339632034,-0.010493606328964233
1761132041079612700,8.57861279296875,0.03715229034423828,0.017388926818966866,0.0062738507986068726
1761132041089612500,8.588612548828126,0.039546966552734375,0.02463260293006897,-0.008077815175056458
1761132041099612400,8.5986123046875,0.010816574096679688,0.014978975988924503,0.01826682686805725
1761132041109612500,8.608612548828125,0.03236103057861328,0.010125208646059036,0.004026815295219421
1761132041119613400,8.618613525390625,0.032362937927246094,0.007782982662320137,0.013538986444473267
1761132041129613300,8.62861328125,0.039546966552734375,0.0029880739748477936,-0.00327908992767334
1761132041139613400,8.638613525390625,0.02518177032470703,-0.004014894366264343,0.008712589740753174
1761132041149612800,8.64861279296875,0.04194068908691406,0.005542796105146408,0.011108964681625366
1761132041159612700,8.65861279296875,0.03715229034423828,-0.003975491970777512,-0.0032623708248138428
1761132041169612800,8.66861279296875,0.02518177032470703,0.007917487993836403,0.013505205512046814
1761132041179613400,8.678613525390626,0.0323638916015625,-0.01604403369128704,0.008718833327293396
1761132041189614000,8.688614013671875,-0.0059452056884765625,0.01035928726196289,0.0040023475885391235
1761132041199615000,8.698614990234375,0.034758567810058594,-0.004011914134025574,-0.012815535068511963
1761132041209614600,8.708614501953125,0.020391464233398438,-0.0230732224881649,-0.00789874792098999
1761132041219613700,8.71861376953125,0.034755706787109375,-0.0015172455459833145,-0.0030323266983032227
1761132041229614600,8.728614501953125,0.0275726318359375,0.003375193104147911,-0.01734907180070877
1761132041239615500,8.738615478515625,0.027571678161621094,0.0009639076888561249,0.0018262118101119995
1761132041259615500,8.758615478515624,0.03236198425292969,0.001010192558169365,0.013674065470695496
1761132041269616000,8.7686162109375,0.03475761413574219,0.005853038281202316,-0.003130480647087097
1761132041279615500,8.778615478515626,0.027574539184570312,-0.0014071650803089142,0.030396506190299988
1761132041289615600,8.78861572265625,0.017996788024902344,-0.02534349448978901,0.008907198905944824
1761132041299615500,8.798615478515625,0.04193878173828125,-0.008667794987559319,0.0016742348670959473
1761132041309615600,8.80861572265625,0.02518177032470703,-0.013403285294771194,0.01358078420162201
1761132041319616300,8.8186162109375,0.02518177032470703,-0.01580195128917694,-0.0151887908577919
1761132041329616400,8.828616455078125,0.013210296630859375,-0.008573826402425766,-0.0007689893245697021
1761132041339616500,8.838616455078125,0.013209342956542969,-0.010907856747508049,-0.0007557421922683716
1761132041349616400,8.848616455078124,0.032364845275878906,-0.0036789681762456894,0.020668908953666687
1761132041359616500,8.858616455078124,0.029970169067382812,-0.006145074963569641,0.0015819817781448364
1761132041369616400,8.868616455078126,0.0323638916015625,-0.003631414845585823,-0.01517004519701004
1761132041379615200,8.878615234375,0.0323638916015625,0.008327024057507515,-0.01032094657421112
1761132041389615400,8.888615478515625,0.02517986297607422,0.008322564885020256,0.0017889142036437988
1761132041399615500,8.898615478515625,0.008418083190917969,0.013038674369454384,0.011432260274887085
1761132041409615400,8.908615478515625,0.032360076904296875,0.0009893812239170074,-0.002924874424934387
1761132041419614500,8.918614501953124,0.01320648193359375,-0.01576964743435383,0.00904625654220581
1761132041429614600,8.928614501953126,0.03475379943847656,-0.0038185324519872665,0.011442378163337708
1761132041439614500,8.938614501953126,0.02039051055908203,0.0010832194238901138,0.011391252279281616
1761132041449615000,8.948614990234375,0.03714942932128906,-0.01807689480483532,0.016121014952659607
1761132041459615000,8.958614990234375,0.0060253143310546875,-0.006125390529632568,0.0017578452825546265
1761132041469616000,8.9686162109375,0.029967308044433594,-0.020548736676573753,-0.0030243247747421265
1761132041479616300,8.9786162109375,0.01560211181640625,0.00817033089697361,0.009026750922203064
1761132041489616100,8.9886162109375,0.032360076904296875,-0.0014259833842515945,0.009028792381286621
1761132041499616000,8.998615966796875,0.01320648193359375,-0.020580366253852844,-0.0005482733249664307
1761132041509617000,9.008616943359375,0.05151176452636719,0.008142353966832161,0.004359215497970581
1761132041519617800,9.01861767578125,0.0012340545654296875,0.008124502375721931,-0.0004077702760696411
1761132041529617700,9.02861767578125,0.0012331008911132812,0.008228154852986336,-0.00035944581031799316
1761132041539617800,9.03861767578125,0.03714466094970703,0.0009944699704647064,-0.00508292019367218
1761132041549617200,9.0486171875,0.027568817138671875,-0.010803015902638435,0.006850242614746094
1761132041559617000,9.058616943359375,0.017992019653320312,0.013178393244743347,0.009240493178367615
1761132041569617000,9.068616943359375,0.03475189208984375,0.0060425736010074615,0.002131715416908264
1761132041579617800,9.07861767578125,0.013202667236328125,-0.0010883938521146774,-0.002543613314628601
1761132041589617700,9.08861767578125,0.032355308532714844,-0.0011464860290288925,-0.004931703209877014
1761132041599617800,9.09861767578125,0.02517414093017578,-0.017865275964140892,0.00944894552230835
1761132041609617700,9.10861767578125,0.029962539672851562,0.006012532860040665,0.014184951782226562
1761132041619616800,9.11861669921875,0.03953838348388672,0.008209632709622383,-0.00017938017845153809
1761132041629617000,9.128616943359376,0.03714275360107422,0.012946529313921928,-0.009691253304481506
1761132041639616800,9.13861669921875,0.03714275360107422,-0.013349022716283798,0.011871859431266785
1761132041649617000,9.148616943359375,0.03235435485839844,0.0033437106758356094,-0.0025652647018432617
1761132041659616800,9.15861669921875,0.0179901123046875,-0.0037848353385925293,0.011754676699638367
1761132041669617000,9.168616943359375,0.027566909790039062,-0.0038624759763479233,0.00936877727508545
1761132041679616800,9.17861669921875,0.029962539672851562,0.005649697035551071,0.002133771777153015
1761132041689616600,9.18861669921875,0.029962539672851562,0.005584673956036568,0.002081245183944702
1761132041699616800,9.19861669921875,0.027568817138671875,0.010347450152039528,0.006813153624534607
1761132041709616600,9.20861669921875,0.03235626220703125,-0.011136539280414581,-0.0051055848598480225
1761132041719617500,9.218617431640626,0.03714466094970703,0.003275841474533081,-0.007425829768180847
1761132041729617700,9.22861767578125,0.044327735900878906,-0.001460157334804535,-0.00030784308910369873
1761132041739617500,9.238617431640625,0.02756786346435547,-0.006266413256525993,-0.017045848071575165
1761132041749617700,9.24861767578125,0.0012331008911132812,-0.003878330811858177,0.004443451762199402
1761132041759617500,9.258617431640625,0.0036268234252929688,-0.0014447327703237534,0.01880471408367157
1761132041769616600,9.26861669921875,0.03235626220703125,-0.00873851403594017,-0.00027823448181152344
1761132041779616500,9.278616455078126,0.046721458435058594,0.0031487327069044113,-0.0003284662961959839
1761132041789615900,9.288615966796876,0.03714466094970703,-0.030309533700346947,-0.007497698068618774
1761132041799616000,9.298615966796875,0.034750938415527344,0.0007951967418193817,0.011657819151878357
1761132041809616000,9.308615966796875,0.017989158630371094,0.015095003880560398,-0.01694726198911667
1761132041819615000,9.318614990234375,0.02756500244140625,-0.013767069205641747,0.0046539753675460815
1761132041829614300,9.3286142578125,0.027565956115722656,-0.013776879757642746,0.004556566476821899
1761132041839614200,9.3386142578125,0.03474998474121094,-0.016238143667578697,-0.00509229302406311
1761132041849615000,9.348614990234376,0.03953742980957031,0.01237574778497219,0.0021027326583862305
1761132041859615000,9.358614990234376,0.02277851104736328,-0.006920911371707916,0.004452556371688843
1761132041869615000,9.368614990234375,0.0203857421875,-0.00919845700263977,0.011622786521911621
1761132041879614500,9.378614501953125,0.03714466094970703,-0.004310913383960724,-0.00033889710903167725
1761132041889614300,9.3886142578125,0.03235626220703125,0.0005319323390722275,0.01398119330406189
1761132041899614500,9.398614501953125,0.02517414093017578,-0.021015452221035957,-0.0027782320976257324
1761132041909614300,9.4086142578125,0.013203620910644531,-0.006656356155872345,0.01871107518672943
1761132041919615200,9.418615234375,0.03475189208984375,-0.006740929558873177,0.01147809624671936
1761132041929615000,9.428614990234376,0.025175094604492188,0.012354161590337753,0.021061018109321594
1761132041939615000,9.438614990234376,0.013203620910644531,-0.004483278840780258,-0.010055437684059143
1761132041949615000,9.448614990234375,0.046722412109375,0.005093958228826523,-0.014843843877315521
1761132041959615200,9.458615234375,0.02996349334716797,0.00016246363520622253,0.013842329382896423
1761132041969615000,9.468614990234375,0.025175094604492188,0.007402816787362099,-0.017288662493228912
1761132041979615200,9.478615234375,0.022779464721679688,-0.0071573276072740555,-0.010085627436637878
1761132041989615000,9.488614990234375,-0.0035562515258789062,0.0215015672147274,-0.01001882553100586
1761132041999615200,9.498615234375,0.015597343444824219,0.00234183669090271,0.01147046685218811
1761132042009615000,9.508614990234374,0.022779464721679688,-0.016870297491550446,0.016265004873275757
1761132042019614200,9.5186142578125,0.039539337158203125,-0.02174241468310356,0.0018494278192520142
1761132042029614300,9.5286142578125,0.03954124450683594,-0.02163149230182171,0.0017786622047424316
1761132042039614200,9.5386142578125,0.02996349334716797,-0.0025363992899656296,0.004178985953330994
1761132042049614300,9.5486142578125,0.02756786346435547,-0.016906457021832466,0.021077096462249756
1761132042059614200,9.5586142578125,0.03475189208984375,0.0047116149216890335,0.006625831127166748
1761132042069614300,9.5686142578125,0.02517414093017578,-0.0024781357496976852,-0.005226045846939087
1761132042079614200,9.5786142578125,0.029961585998535156,-0.00010343827307224274,-0.017195023596286774
1761132042089614800,9.58861474609375,0.015595436096191406,-0.002450469881296158,-0.007544264197349548
1761132042099614700,9.59861474609375,0.020384788513183594,-0.0024569742381572723,-0.0028145015239715576
1761132042109614800,9.60861474609375,0.034750938415527344,0.009568087756633759,-0.002859771251678467
1761132042119615700,9.61861572265625,0.029962539672851562,-0.014334917068481445,0.013895586133003235
1761132042129616400,9.628616455078125,0.02756786346435547,0.02391378954052925,0.0019306838512420654
1761132042139616500,9.638616455078125,0.034750938415527344,-0.007230762392282486,0.009115338325500488
1761132042149616400,9.648616455078125,0.02996349334716797,-0.011970849707722664,0.0018290728330612183
1761132042159616500,9.658616455078125,0.015598297119140625,-0.007124306634068489,0.013793841004371643
1761132042169616400,9.668616455078125,0.029964447021484375,0.0024488046765327454,0.006572335958480835
1761132042179617000,9.678616943359375,0.020389556884765625,-0.004687897861003876,-0.0007335394620895386
1761132042189617200,9.6886171875,0.02996540069580078,0.007269719615578651,0.001721218228340149
1761132042199617000,9.698616943359376,0.02996540069580078,0.007331224158406258,0.0017347782850265503
1761132042209617000,9.708616943359376,0.022780418395996094,0.0002014748752117157,-0.010103762149810791
1761132042219616300,9.7186162109375,0.032357215881347656,-0.007000632584095001,0.009051889181137085
1761132042229616400,9.728616455078125,0.015600204467773438,-0.011742327362298965,-0.003042280673980713
1761132042239616300,9.7386162109375,0.0754556655883789,-0.054841648787260056,0.1238115131855011
1761132042249616400,9.748616455078125,-0.03229045867919922,0.009518738836050034,-0.050462506711483
1761132042259616300,9.7586162109375,-0.030066490173339844,0.026066310703754425,-0.04788260906934738
1761132042269616400,9.768616455078124,0.008150100708007812,0.032372333109378815,-0.02172209322452545
1761132042279617300,9.7786171875,0.039275169372558594,-0.005993081256747246,-0.019321680068969727
1761132042289617400,9.788617431640626,0.03934764862060547,-0.003426719456911087,-0.02495352178812027
1761132042299617300,9.7986171875,0.037070274353027344,-0.016493549570441246,0.08133965730667114
1761132042309617400,9.808617431640625,-0.044257164001464844,0.028636550530791283,-0.010111898183822632
