time,seconds_elapsed,z,y,x
1761132032605362000,0.10436181640625,-0.0013744467869400978,-0.0006108652451075613,0.00015271631127689034
1761132032638795800,0.137795654296875,-0.0013744467869400978,-0.0006108652451075613,0.00015271631127689034
1761132032648803300,0.14780322265625,-0.0013744467869400978,-0.0006108652451075613,0.00015271631127689034
1761132032658809000,0.15780908203125,0.00045814894838258624,-0.0012217304902151227,-0.00045814894838258624
1761132032668813800,0.167813720703125,-0.00015271631127689034,0,0.00015271631127689034
1761132032678817500,0.177817626953125,0.0010690141934901476,0,0.00015271631127689034
1761132032688820700,0.18782080078125,0.00045814894838258624,0,0.00015271631127689034
1761132032698823700,0.19782373046875,-0.00015271631127689034,0.0012217304902151227,0.0007635815418325365
1761132032708826400,0.207826416015625,-0.0013744467869400978,-0.0006108652451075613,-0.0010690141934901476
1761132032718828500,0.21782861328125,-0.0013744467869400978,0,-0.00045814894838258624
1761132032738832600,0.23783251953125,0.00045814894838258624,0.0006108652451075613,0.00015271631127689034
1761132032748834300,0.247834228515625,-0.00015271631127689034,0.0006108652451075613,-0.0010690141934901476
1761132032758836000,0.2578359375,-0.0007635815418325365,0.0006108652451075613,0.00015271631127689034
1761132032768837600,0.267837646484375,-0.0007635815418325365,0.0006108652451075613,0.0007635815418325365
1761132032778839000,0.277839111328125,0.0010690141934901476,-0.0006108652451075613,-0.0010690141934901476
1761132032788840400,0.28784033203125,-0.00015271631127689034,0,-0.00045814894838258624
1761132032798841600,0.297841552734375,-0.00015271631127689034,0.0006108652451075613,0.0007635815418325365
1761132032808842800,0.3078427734375,-0.0007635815418325365,0.0012217304902151227,0.0013744467869400978
1761132032818843000,0.3178427734375,0.0010690141934901476,0,-0.00045814894838258624
1761132032828844000,0.327843994140625,0.00045814894838258624,0.0006108652451075613,0.00015271631127689034
1761132032838845000,0.337844970703125,-0.0013744467869400978,-0.0006108652451075613,-0.0010690141934901476
1761132032848846000,0.34784619140625,-0.00015271631127689034,-0.0012217304902151227,-0.0010690141934901476
1761132032858847000,0.357846923828125,-0.0007635815418325365,-0.0006108652451075613,0.0007635815418325365
1761132032868847900,0.367847900390625,0.00045814894838258624,0.0006108652451075613,0.0013744467869400978
1761132032878848800,0.377848876953125,0.00045814894838258624,0.0006108652451075613,0.00015271631127689034
1761132032888849700,0.387849609375,-0.00015271631127689034,0.0006108652451075613,0.00015271631127689034
1761132032898850300,0.397850341796875,-0.0007635815418325365,0.0006108652451075613,0.00015271631127689034
1761132032908851200,0.407851318359375,0.00045814894838258624,0.0012217304902151227,0.0007635815418325365
1761132032918851800,0.417851806640625,0.00045814894838258624,0.0012217304902151227,0.0013744467869400978
1761132032928852000,0.42785205078125,0.0010690141934901476,0,0.00015271631127689034
1761132032938852000,0.43785205078125,-0.0007635815418325365,-0.0006108652451075613,-0.0010690141934901476
1761132032948852000,0.44785205078125,0.0010690141934901476,0,0.00015271631127689034
1761132032958852000,0.45785205078125,0.00045814894838258624,0.0006108652451075613,0.00015271631127689034
1761132032968852000,0.46785205078125,-0.0007635815418325365,0.0006108652451075613,0.0007635815418325365
1761132032978852000,0.47785205078125,0.0010690141934901476,0.0006108652451075613,0.00015271631127689034
1761132032988852000,0.48785205078125,0.00045814894838258624,-0.0012217304902151227,-0.00045814894838258624
1761132032998852000,0.49785205078125,-0.0007635815418325365,0.0006108652451075613,0.0013744467869400978
1761132033008852000,0.50785205078125,-0.00015271631127689034,0.0006108652451075613,0.0007635815418325365
1761132033018851000,0.51785107421875,-0.00015271631127689034,0.001832595793530345,0.00015271631127689034
1761132033028851200,0.527851318359375,0.00045814894838258624,-0.0006108652451075613,0.00015271631127689034
1761132033038851000,0.53785107421875,0.0010690141934901476,-0.0006108652451075613,-0.00045814894838258624
1761132033048851200,0.547851318359375,-0.00015271631127689034,0,0.00015271631127689034
1761132033058851000,0.55785107421875,-0.00015271631127689034,-0.0006108652451075613,0.00015271631127689034
1761132033068851200,0.567851318359375,-0.0007635815418325365,0,-0.0010690141934901476
1761132033078851000,0.57785107421875,-0.00015271631127689034,0.0006108652451075613,0.00015271631127689034
1761132033088851200,0.587851318359375,-0.0013744467869400978,-0.0006108652451075613,0.00015271631127689034
1761132033098851000,0.59785107421875,-0.0007635815418325365,-0.0006108652451075613,-0.0010690141934901476
1761132033108851200,0.607851318359375,-0.00015271631127689034,-0.0012217304902151227,-0.00045814894838258624
1761132033118851800,0.617851806640625,-0.0007635815418325365,0,0.00015271631127689034
1761132033128852000,0.62785205078125,-0.00015271631127689034,0,0.00015271631127689034
1761132033138851800,0.637851806640625,0.00045814894838258624,-0.0006108652451075613,0.00015271631127689034
1761132033148852000,0.64785205078125,0.00045814894838258624,0.0006108652451075613,0.0007635815418325365
1761132033158851800,0.657851806640625,-0.00015271631127689034,0.0012217304902151227,-0.0010690141934901476
1761132033168852000,0.66785205078125,-0.00015271631127689034,0.0006108652451075613,0.00015271631127689034
1761132033178851800,0.677851806640625,0.0010690141934901476,0.0006108652451075613,0.0013744467869400978
1761132033188852000,0.68785205078125,-0.0013744467869400978,0,0.0007635815418325365
1761132033198851800,0.697851806640625,0.00045814894838258624,0,-0.00045814894838258624
1761132033208852000,0.70785205078125,-0.0007635815418325365,-0.0006108652451075613,-0.00045814894838258624
1761132033218851000,0.71785107421875,-0.0013744467869400978,0.0006108652451075613,-0.0010690141934901476
1761132033228851200,0.727851318359375,0.00045814894838258624,0.0006108652451075613,0.00015271631127689034
1761132033238851000,0.73785107421875,-0.00015271631127689034,0.0006108652451075613,-0.00045814894838258624
1761132033248851000,0.747850830078125,-0.00015271631127689034,0,0.0007635815418325365
1761132033258851000,0.75785107421875,-0.0025961773935705423,0,0.00015271631127689034
1761132033268851000,0.767850830078125,-0.0013744467869400978,-0.0006108652451075613,-0.001679879380390048
1761132033278851000,0.77785107421875,-0.0007635815418325365,0.0006108652451075613,0.00015271631127689034
1761132033288851000,0.787850830078125,-0.00015271631127689034,0,0.00015271631127689034
1761132033298851000,0.79785107421875,-0.00015271631127689034,0,0.0007635815418325365
1761132033308851000,0.807850830078125,-0.00015271631127689034,0.0012217304902151227,-0.001679879380390048
1761132033318851800,0.817851806640625,0.001679879380390048,0,0.00015271631127689034
1761132033328852000,0.82785205078125,-0.00015271631127689034,0.0006108652451075613,0.00015271631127689034
1761132033338851800,0.837851806640625,0.00045814894838258624,0,-0.00045814894838258624
1761132033348852000,0.84785205078125,-0.0013744467869400978,0,-0.0010690141934901476
1761132033358851800,0.857851806640625,-0.00015271631127689034,0.0006108652451075613,-0.00045814894838258624
1761132033368852000,0.86785205078125,-0.00015271631127689034,0,-0.001679879380390048
1761132033378851800,0.877851806640625,0.0010690141934901476,0.0006108652451075613,-0.0010690141934901476
1761132033388852000,0.88785205078125,0.00045814894838258624,-0.0006108652451075613,0.00015271631127689034
1761132033398851800,0.897851806640625,-0.00015271631127689034,0.0006108652451075613,-0.00045814894838258624
1761132033408852000,0.90785205078125,-0.0007635815418325365,0.0024434609804302454,0.00015271631127689034
1761132033418851000,0.91785107421875,-0.00015271631127689034,0.0012217304902151227,0.0013744467869400978
1761132033428851000,0.927850830078125,-0.00015271631127689034,-0.0006108652451075613,0.00015271631127689034
1761132033438851000,0.93785107421875,-0.0013744467869400978,0.0006108652451075613,0.0013744467869400978
1761132033458851000,0.95785107421875,-0.00015271631127689034,0.0012217304902151227,0.0019853119738399982
1761132033468851000,0.967850830078125,0.0010690141934901476,0.0006108652451075613,0.0013744467869400978
1761132033478851000,0.97785107421875,-0.0007635815418325365,0.0006108652451075613,0.0032070425804704428
1761132033488851000,0.987850830078125,0.0010690141934901476,-0.0006108652451075613,0.0025961773935705423
1761132033498850800,0.997850830078125,0.00045814894838258624,-0.0006108652451075613,0.003817907767370343
1761132033508850700,1.0078505859375,-0.00015271631127689034,-0.0006108652451075613,0.003817907767370343
1761132033518851600,1.0178515625,0.00045814894838258624,-0.0012217304902151227,0.004428773187100887
1761132033528851500,1.0278515625,-0.0007635815418325365,-0.0012217304902151227,0.003817907767370343
1761132033538851600,1.0378515625,0.00045814894838258624,-0.0024434609804302454,0.0025961773935705423
1761132033548851700,1.047851806640625,0.00045814894838258624,-0.001832595793530345,0.004428773187100887
1761132033558851600,1.0578515625,0.00045814894838258624,-0.0012217304902151227,0.0032070425804704428
1761132033568851700,1.067851806640625,-0.00015271631127689034,-0.0006108652451075613,0.003817907767370343
1761132033578851600,1.0778515625,-0.00015271631127689034,-0.0012217304902151227,0.003817907767370343
1761132033588851700,1.087851806640625,-0.0013744467869400978,0,0.0025961773935705423
1761132033598851600,1.0978515625,-0.00015271631127689034,0,0.003817907767370343
1761132033608851500,1.1078515625,-0.00015271631127689034,0,0.0032070425804704428
1761132033618850600,1.1178505859375,0.00045814894838258624,0.0012217304902151227,0.0019853119738399982
1761132033628850700,1.1278505859375,0.0010690141934901476,0,0.0007635815418325365
1761132033638850600,1.1378505859375,-0.0007635815418325365,0,0.0013744467869400978
1761132033648850700,1.1478505859375,-0.00015271631127689034,0.0006108652451075613,0.0013744467869400978
1761132033658850600,1.1578505859375,-0.0007635815418325365,0,0.00015271631127689034
1761132033668850700,1.1678505859375,0.00045814894838258624,0.0012217304902151227,0.00015271631127689034
1761132033678850600,1.1778505859375,0.00045814894838258624,0.0012217304902151227,0.0019853119738399982
1761132033688850700,1.1878505859375,0.00045814894838258624,0.0012217304902151227,0.0013744467869400978
1761132033698850600,1.1978505859375,0.0010690141934901476,-0.0006108652451075613,0.0019853119738399982
1761132033708850700,1.2078505859375,-0.0013744467869400978,-0.0006108652451075613,0.0032070425804704428
1761132033718851600,1.2178515625,-0.00015271631127689034,0.0006108652451075613,0.0032070425804704428
1761132033728851700,1.227851806640625,-0.00015271631127689034,0.0006108652451075613,0.0025961773935705423
1761132033738851600,1.2378515625,-0.0007635815418325365,0.0006108652451075613,0.0007635815418325365
1761132033748851700,1.247851806640625,0.00045814894838258624,0.0012217304902151227,0.0007635815418325365
1761132033758851600,1.2578515625,-0.00015271631127689034,0.0012217304902151227,0.00015271631127689034
1761132033768851700,1.267851806640625,-0.00015271631127689034,0.001832595793530345,-0.0010690141934901476
1761132033778851600,1.2778515625,0.00045814894838258624,0.0012217304902151227,-0.00045814894838258624
1761132033788851700,1.287851806640625,-0.00015271631127689034,0.0006108652451075613,-0.001679879380390048
1761132033798852000,1.29785205078125,0.00045814894838258624,0.0012217304902151227,-0.00045814894838258624
1761132033808852000,1.30785205078125,0.00045814894838258624,0.0012217304902151227,-0.0010690141934901476
1761132033818851000,1.31785107421875,-0.00015271631127689034,0,-0.00045814894838258624
1761132033828851200,1.327851318359375,-0.00015271631127689034,0,-0.0022907445672899485
1761132033838851000,1.33785107421875,0.00045814894838258624,0.001832595793530345,-0.0022907445672899485
1761132033848851200,1.347851318359375,-0.0007635815418325365,0.0006108652451075613,-0.001679879380390048
1761132033858851000,1.35785107421875,-0.00015271631127689034,0,-0.0010690141934901476
1761132033868851200,1.367851318359375,0.00045814894838258624,0,0.00015271631127689034
1761132033878851000,1.37785107421875,0.00045814894838258624,-0.0006108652451075613,-0.00045814894838258624
1761132033888851200,1.387851318359375,0.001679879380390048,0,-0.001679879380390048
1761132033898851000,1.39785107421875,-0.0007635815418325365,-0.001832595793530345,-0.0029016099870204926
1761132033908851200,1.407851318359375,-0.00015271631127689034,0,-0.00045814894838258624
1761132033918852000,1.41785205078125,-0.0019853119738399982,-0.001832595793530345,-0.00045814894838258624
1761132033928852200,1.427852294921875,-0.00015271631127689034,0,-0.0010690141934901476
1761132033938852000,1.43785205078125,-0.0007635815418325365,0.0006108652451075613,0.0007635815418325365
1761132033948852200,1.447852294921875,-0.00015271631127689034,-0.0006108652451075613,-0.00045814894838258624
1761132033958852000,1.45785205078125,0.0010690141934901476,-0.0006108652451075613,0.0013744467869400978
1761132033968852200,1.467852294921875,0.00045814894838258624,-0.0006108652451075613,-0.0010690141934901476
1761132033978852000,1.47785205078125,-0.0013744467869400978,-0.001832595793530345,0.00015271631127689034
1761132033988852200,1.487852294921875,-0.0007635815418325365,-0.0006108652451075613,0.00015271631127689034
1761132033998852000,1.49785205078125,-0.0007635815418325365,-0.0012217304902151227,0.00015271631127689034
1761132034008852200,1.507852294921875,-0.00015271631127689034,-0.0012217304902151227,-0.0010690141934901476
1761132034018851000,1.51785107421875,0.00045814894838258624,-0.001832595793530345,-0.001679879380390048
1761132034028851200,1.527851318359375,-0.0013744467869400978,-0.0012217304902151227,-0.0029016099870204926
1761132034038851000,1.53785107421875,-0.0007635815418325365,-0.0006108652451075613,-0.0022907445672899485
1761132034049617000,1.548616943359375,-0.00015271631127689034,0,-0.0029016099870204926
1761132034059617000,1.558616943359375,-0.00015271631127689034,-0.0006108652451075613,-0.004123340360820293
1761132034069617000,1.568616943359375,-0.0007635815418325365,0.0006108652451075613,-0.005955935921519995
1761132034079616800,1.57861669921875,0.0010690141934901476,0.001832595793530345,-0.005345070734620094
1761132034089617000,1.588616943359375,-0.0013744467869400978,0.001832595793530345,-0.005345070734620094
1761132034099616800,1.59861669921875,-0.00015271631127689034,0.001832595793530345,-0.0065668015740811825
1761132034109617000,1.608616943359375,0.00045814894838258624,0.003054326167330146,-0.005955935921519995
1761132034119617800,1.61861767578125,-0.00015271631127689034,0.0024434609804302454,-0.0065668015740811825
1761132034129617700,1.62861767578125,-0.0007635815418325365,0.001832595793530345,-0.005955935921519995
1761132034139617800,1.63861767578125,-0.00015271631127689034,0.0006108652451075613,-0.004734205547720194
1761132034149617700,1.64861767578125,-0.0007635815418325365,0.0024434609804302454,-0.005955935921519995
1761132034159617800,1.65861767578125,-0.0013744467869400978,0.001832595793530345,-0.0065668015740811825
1761132034169617700,1.66861767578125,-0.00015271631127689034,0.0006108652451075613,-0.005345070734620094
1761132034179617800,1.67861767578125,-0.0007635815418325365,0.0006108652451075613,-0.003512475173920393
1761132034189617700,1.68861767578125,-0.0019853119738399982,0,-0.0022907445672899485
1761132034199617800,1.69861767578125,-0.00015271631127689034,0.0006108652451075613,-0.0010690141934901476
1761132034209617700,1.70861767578125,-0.00015271631127689034,-0.0012217304902151227,0.0007635815418325365
1761132034219616800,1.71861669921875,-0.0013744467869400978,-0.0006108652451075613,0.0013744467869400978
1761132034229617000,1.728616943359375,-0.0007635815418325365,-0.0006108652451075613,0.0019853119738399982
1761132034239616800,1.73861669921875,-0.0007635815418325365,-0.0006108652451075613,0.0013744467869400978
1761132034249616600,1.74861669921875,-0.00015271631127689034,0.0012217304902151227,0.0013744467869400978
1761132034259616800,1.75861669921875,0.00045814894838258624,0.0012217304902151227,0.0007635815418325365
1761132034269616600,1.76861669921875,0.00045814894838258624,0,0.0025961773935705423
1761132034279616800,1.77861669921875,-0.00015271631127689034,0.0006108652451075613,0.0032070425804704428
1761132034289616600,1.78861669921875,0.00045814894838258624,-0.0012217304902151227,0.0025961773935705423
1761132034299616800,1.79861669921875,-0.00015271631127689034,0.0006108652451075613,0.0013744467869400978
1761132034309616600,1.80861669921875,-0.00015271631127689034,0.0006108652451075613,0.0007635815418325365
1761132034319617500,1.818617431640625,-0.0007635815418325365,0.0006108652451075613,-0.001679879380390048
1761132034329617700,1.82861767578125,-0.0007635815418325365,0.0006108652451075613,-0.0022907445672899485
1761132034339617500,1.838617431640625,0.0010690141934901476,0,-0.001679879380390048
1761132034349617700,1.84861767578125,0.00045814894838258624,0.0006108652451075613,-0.0022907445672899485
1761132034359617500,1.858617431640625,-0.0007635815418325365,0,-0.001679879380390048
1761132034369617700,1.86861767578125,-0.00015271631127689034,0,-0.0022907445672899485
1761132034379617500,1.878617431640625,-0.00015271631127689034,0,-0.0010690141934901476
1761132034389617700,1.88861767578125,-0.0007635815418325365,0.0006108652451075613,-0.00045814894838258624
1761132034399617500,1.898617431640625,0.0022907445672899485,0.0012217304902151227,0.00015271631127689034
1761132034409617700,1.90861767578125,0.0010690141934901476,-0.0012217304902151227,0.0013744467869400978
1761132034419616800,1.91861669921875,0.00045814894838258624,0.001832595793530345,0.0019853119738399982
1761132034429617000,1.928616943359375,-0.00015271631127689034,-0.0012217304902151227,0.00015271631127689034
1761132034439616800,1.93861669921875,-0.0007635815418325365,0.001832595793530345,0.0007635815418325365
1761132034449617000,1.948616943359375,0.00045814894838258624,-0.0012217304902151227,0.0007635815418325365
1761132034459616800,1.95861669921875,-0.0007635815418325365,0.0012217304902151227,-0.00045814894838258624
1761132034469617000,1.968616943359375,0.00045814894838258624,-0.0012217304902151227,0.0013744467869400978
1761132034479616800,1.97861669921875,-0.0013744467869400978,-0.0006108652451075613,0.0007635815418325365
1761132034489617000,1.988616943359375,-0.0013744467869400978,0,-0.00045814894838258624
1761132034499616800,1.99861669921875,-0.00015271631127689034,-0.0012217304902151227,0.00015271631127689034
1761132034509617000,2.008616943359375,0.00045814894838258624,-0.0006108652451075613,0.0013744467869400978
1761132034519617500,2.018617431640625,-0.0007635815418325365,0,0.0007635815418325365
1761132034529617700,2.02861767578125,-0.00015271631127689034,0,-0.00045814894838258624
1761132034539617800,2.03861767578125,-0.00015271631127689034,0,0.0013744467869400978
1761132034549617700,2.04861767578125,-0.0007635815418325365,0,0.0007635815418325365
1761132034559617800,2.05861767578125,-0.00015271631127689034,0.0012217304902151227,-0.00045814894838258624
1761132034569617700,2.06861767578125,0.00045814894838258624,0.0012217304902151227,-0.00045814894838258624
1761132034579618000,2.0786181640625,0.00045814894838258624,0,-0.0010690141934901476
1761132034589618000,2.088617919921875,-0.0007635815418325365,0,0.00015271631127689034
1761132034599618000,2.0986181640625,-0.00015271631127689034,0,-0.0010690141934901476
1761132034609618000,2.108617919921875,-0.00015271631127689034,-0.0012217304902151227,-0.0010690141934901476
1761132034619617000,2.118616943359375,0.0010690141934901476,-0.0006108652451075613,-0.0010690141934901476
1761132034629617200,2.1286171875,-0.0007635815418325365,-0.0006108652451075613,-0.001679879380390048
1761132034639617000,2.138616943359375,0.0010690141934901476,0,-0.00045814894838258624
1761132034649617200,2.1486171875,-0.0007635815418325365,0,-0.0010690141934901476
1761132034659617000,2.158616943359375,-0.00015271631127689034,0.0012217304902151227,0.00015271631127689034
1761132034669617200,2.1686171875,-0.0007635815418325365,-0.0006108652451075613,-0.00045814894838258624
1761132034679617000,2.178616943359375,0.00045814894838258624,-0.0006108652451075613,0.00015271631127689034
1761132034689617200,2.1886171875,0.0010690141934901476,0.0012217304902151227,-0.00045814894838258624
1761132034699617000,2.198616943359375,-0.0007635815418325365,-0.0012217304902151227,-0.00045814894838258624
1761132034709617200,2.2086171875,-0.0007635815418325365,-0.0006108652451075613,0.00015271631127689034
1761132034719617800,2.21861767578125,-0.00015271631127689034,-0.0006108652451075613,-0.00045814894838258624
1761132034729618000,2.228617919921875,-0.0013744467869400978,-0.0006108652451075613,-0.0010690141934901476
1761132034739617800,2.23861767578125,-0.00015271631127689034,0,-0.0010690141934901476
1761132034749618000,2.248617919921875,-0.0007635815418325365,-0.001832595793530345,-0.00045814894838258624
1761132034759617800,2.25861767578125,-0.0007635815418325365,-0.0006108652451075613,0.00015271631127689034
1761132034769618000,2.268617919921875,-0.0007635815418325365,-0.0006108652451075613,0.00015271631127689034
1761132034779618000,2.2786181640625,-0.0013744467869400978,-0.001832595793530345,0.00015271631127689034
1761132034789618000,2.288617919921875,-0.00015271631127689034,-0.0006108652451075613,0.0007635815418325365
1761132034799618000,2.2986181640625,-0.00015271631127689034,-0.0006108652451075613,0.00015271631127689034
1761132034809618000,2.308617919921875,0.00045814894838258624,0.0012217304902151227,0.00015271631127689034
1761132034819617000,2.318616943359375,-0.0007635815418325365,0,0.0007635815418325365
1761132034829617200,2.3286171875,-0.0007635815418325365,-0.0006108652451075613,0.00015271631127689034
1761132034839617000,2.338616943359375,-0.00015271631127689034,-0.0006108652451075613,0.0007635815418325365
1761132034849617200,2.3486171875,-0.0007635815418325365,-0.0012217304902151227,-0.00045814894838258624
1761132034859617000,2.358616943359375,0.0010690141934901476,-0.0006108652451075613,0.0007635815418325365
1761132034869617200,2.3686171875,0.00045814894838258624,0,0.0007635815418325365
1761132034879616800,2.37861669921875,0.00045814894838258624,-0.001832595793530345,0.00015271631127689034
1761132034889617000,2.388616943359375,-0.00015271631127689034,0,-0.001679879380390048
1761132034899616800,2.39861669921875,-0.0007635815418325365,-0.0012217304902151227,0.00015271631127689034
1761132034909617000,2.408616943359375,-0.00015271631127689034,-0.0012217304902151227,-0.0010690141934901476
1761132034919617800,2.41861767578125,-0.00015271631127689034,0.0006108652451075613,0.0007635815418325365
1761132034929617700,2.42861767578125,-0.00015271631127689034,0,-0.00045814894838258624
1761132034939617800,2.43861767578125,-0.0013744467869400978,0,0.00015271631127689034
1761132034949617700,2.44861767578125,-0.00015271631127689034,-0.0006108652451075613,0.00015271631127689034
1761132034959617800,2.45861767578125,0.00045814894838258624,-0.0006108652451075613,-0.00045814894838258624
1761132034969617700,2.46861767578125,-0.0013744467869400978,0,0.00015271631127689034
1761132034979617800,2.47861767578125,-0.00015271631127689034,-0.0006108652451075613,0.0019853119738399982
1761132034989617700,2.48861767578125,0.00045814894838258624,0,0.0007635815418325365
1761132034999617800,2.49861767578125,0.00045814894838258624,-0.0006108652451075613,0.0013744467869400978
1761132035009617700,2.50861767578125,-0.00015271631127689034,-0.0006108652451075613,0.0007635815418325365
1761132035019616800,2.51861669921875,-0.0007635815418325365,0.0006108652451075613,0.0007635815418325365
1761132035029617000,2.528616943359375,-0.00015271631127689034,-0.0006108652451075613,0.00015271631127689034
1761132035039617000,2.538616943359375,-0.00015271631127689034,-0.0006108652451075613,-0.0010690141934901476
1761132035049617000,2.548616943359375,-0.00015271631127689034,0,0.00015271631127689034
1761132035059617000,2.558616943359375,0.00045814894838258624,0,0.0013744467869400978
1761132035069617000,2.568616943359375,-0.0007635815418325365,0,0.00015271631127689034
1761132035079616800,2.57861669921875,-0.00015271631127689034,0.0006108652451075613,0.00015271631127689034
1761132035089617000,2.588616943359375,-0.00015271631127689034,0.0006108652451075613,0.0013744467869400978
1761132035099616800,2.59861669921875,0.0010690141934901476,0.001832595793530345,0.0007635815418325365
1761132035109617000,2.608616943359375,0.0010690141934901476,-0.0012217304902151227,0.0007635815418325365
1761132035119617800,2.61861767578125,-0.00015271631127689034,0.0006108652451075613,0.00015271631127689034
1761132035129617700,2.62861767578125,-0.00015271631127689034,0.0006108652451075613,0.0007635815418325365
1761132035139617800,2.63861767578125,0.0010690141934901476,0.0006108652451075613,0.0013744467869400978
1761132035149617700,2.64861767578125,0.00045814894838258624,-0.0012217304902151227,0.0007635815418325365
1761132035159617800,2.65861767578125,0.00045814894838258624,0,0.0007635815418325365
1761132035169617700,2.66861767578125,0.00045814894838258624,0.0006108652451075613,-0.00045814894838258624
1761132035179617800,2.67861767578125,-0.0007635815418325365,-0.0006108652451075613,0.0013744467869400978
1761132035189617700,2.68861767578125,-0.0007635815418325365,-0.0006108652451075613,-0.00045814894838258624
1761132035199617800,2.69861767578125,0.00045814894838258624,0.0006108652451075613,0.0013744467869400978
1761132035209617700,2.70861767578125,-0.0007635815418325365,-0.0006108652451075613,0.0013744467869400978
1761132035219616800,2.71861669921875,0.0010690141934901476,0,0.0013744467869400978
1761132035229617000,2.728616943359375,-0.0007635815418325365,-0.0006108652451075613,0.0019853119738399982
1761132035239616800,2.73861669921875,-0.00015271631127689034,-0.0006108652451075613,0.00015271631127689034
1761132035249617000,2.748616943359375,-0.0007635815418325365,-0.0006108652451075613,0.0007635815418325365
1761132035259616800,2.75861669921875,0.00045814894838258624,-0.0006108652451075613,0.0013744467869400978
1761132035269617000,2.768616943359375,-0.00015271631127689034,-0.0012217304902151227,0.00015271631127689034
1761132035279616800,2.77861669921875,-0.00015271631127689034,-0.0006108652451075613,0.0013744467869400978
1761132035289617000,2.788616943359375,0.00045814894838258624,-0.0006108652451075613,0.00015271631127689034
1761132035299616800,2.79861669921875,0.00045814894838258624,0.0006108652451075613,0.00015271631127689034
1761132035309617000,2.808616943359375,-0.0013744467869400978,0,0.0007635815418325365
1761132035319617800,2.81861767578125,-0.0007635815418325365,0,0.00015271631127689034
1761132035329617700,2.82861767578125,-0.00015271631127689034,-0.0006108652451075613,0.0007635815418325365
1761132035339617800,2.83861767578125,-0.00015271631127689034,0.0006108652451075613,0.00015271631127689034
1761132035349617700,2.84861767578125,-0.00015271631127689034,-0.0006108652451075613,-0.00045814894838258624
1761132035359617800,2.85861767578125,-0.00015271631127689034,-0.001832595793530345,0.0007635815418325365
1761132035369617700,2.86861767578125,-0.0007635815418325365,0,0.0007635815418325365
1761132035379617300,2.8786171875,-0.0007635815418325365,0.0006108652451075613,0.00015271631127689034
1761132035389617400,2.888617431640625,-0.0007635815418325365,0,0.00015271631127689034
1761132035399617300,2.8986171875,-0.00015271631127689034,0,0.00015271631127689034
1761132035409617400,2.908617431640625,-0.0013744467869400978,-0.0006108652451075613,0.00015271631127689034
1761132035419616500,2.918616455078125,-0.00015271631127689034,0.0006108652451075613,-0.00045814894838258624
1761132035429616400,2.928616455078125,-0.0007635815418325365,0.0006108652451075613,0.0013744467869400978
1761132035439616500,2.938616455078125,-0.00015271631127689034,0,0.00015271631127689034
1761132035449616400,2.948616455078125,-0.0007635815418325365,0,0.00015271631127689034
1761132035459616500,2.958616455078125,0.0010690141934901476,0.0006108652451075613,0.0007635815418325365
1761132035469616400,2.968616455078125,0.0010690141934901476,-0.0006108652451075613,0.0013744467869400978
1761132035479616500,2.978616455078125,0.00045814894838258624,0,0.00015271631127689034
1761132035489616400,2.988616455078125,-0.0007635815418325365,0.0012217304902151227,0.0013744467869400978
1761132035499616500,2.998616455078125,-0.00015271631127689034,0,0.00015271631127689034
1761132035509616400,3.008616455078125,-0.00015271631127689034,-0.0012217304902151227,0.00015271631127689034
1761132035519617300,3.0186171875,0.0010690141934901476,0,0.0007635815418325365
1761132035529617200,3.0286171875,0.00045814894838258624,0,0.00015271631127689034
1761132035539617300,3.0386171875,-0.0007635815418325365,-0.0006108652451075613,0.0007635815418325365
1761132035549617400,3.048617431640625,-0.00015271631127689034,-0.0006108652451075613,0.00015271631127689034
1761132035559617300,3.0586171875,0.0010690141934901476,0.0006108652451075613,0.0007635815418325365
1761132035569617400,3.068617431640625,-0.00015271631127689034,-0.0006108652451075613,0.00015271631127689034
1761132035579617300,3.0786171875,0.0010690141934901476,-0.0006108652451075613,0.0007635815418325365
1761132035589617400,3.088617431640625,-0.00015271631127689034,-0.0006108652451075613,0.00015271631127689034
1761132035599617300,3.0986171875,-0.00015271631127689034,0.0006108652451075613,0.00015271631127689034
1761132035609617200,3.1086171875,-0.0007635815418325365,0,0.00015271631127689034
1761132035619616500,3.118616455078125,-0.0007635815418325365,0,0.0007635815418325365
1761132035629616400,3.128616455078125,-0.0013744467869400978,-0.0006108652451075613,-0.00045814894838258624
1761132035639616500,3.138616455078125,-0.0007635815418325365,-0.0006108652451075613,-0.00045814894838258624
1761132035649616400,3.148616455078125,-0.0007635815418325365,0,0.00015271631127689034
1761132035659616500,3.158616455078125,-0.00015271631127689034,0.0006108652451075613,-0.00045814894838258624
1761132035669616400,3.168616455078125,0.0010690141934901476,-0.0006108652451075613,0.0007635815418325365
1761132035679616800,3.17861669921875,-0.0007635815418325365,-0.0006108652451075613,0.00015271631127689034
1761132035689617000,3.188616943359375,-0.0007635815418325365,0,-0.0010690141934901476
1761132035699616800,3.19861669921875,-0.0007635815418325365,-0.0012217304902151227,-0.00045814894838258624
1761132035709617000,3.208616943359375,-0.0013744467869400978,-0.0006108652451075613,0.0007635815418325365
1761132035719617500,3.218617431640625,-0.0007635815418325365,0,-0.00045814894838258624
1761132035729617700,3.22861767578125,-0.0007635815418325365,0.0006108652451075613,0.0007635815418325365
1761132035739617500,3.238617431640625,0.00045814894838258624,0.0006108652451075613,-0.0010690141934901476
1761132035749617700,3.24861767578125,-0.0007635815418325365,0,-0.001679879380390048
1761132035759617800,3.25861767578125,0.00045814894838258624,-0.0006108652451075613,-0.0010690141934901476
1761132035769617700,3.26861767578125,0.00045814894838258624,0,-0.00045814894838258624
1761132035779617800,3.27861767578125,-0.00015271631127689034,0.001832595793530345,-0.0010690141934901476
1761132035789617700,3.28861767578125,0.00045814894838258624,0.0012217304902151227,0.0007635815418325365
1761132035799617800,3.29861767578125,-0.00015271631127689034,0.0006108652451075613,0.0013744467869400978
1761132035809617700,3.30861767578125,-0.00015271631127689034,0.0006108652451075613,-0.00045814894838258624
1761132035819616800,3.31861669921875,-0.00015271631127689034,-0.0006108652451075613,-0.00045814894838258624
1761132035829617000,3.328616943359375,-0.0007635815418325365,0.0006108652451075613,-0.00045814894838258624
1761132035839616800,3.33861669921875,-0.0013744467869400978,0,-0.00045814894838258624
1761132035849617000,3.348616943359375,-0.00015271631127689034,0.0006108652451075613,0.00015271631127689034
1761132035859616800,3.35861669921875,-0.0007635815418325365,0,-0.00045814894838258624
1761132035869617000,3.368616943359375,-0.0007635815418325365,0,-0.00045814894838258624
1761132035879616800,3.37861669921875,-0.0007635815418325365,0,-0.0010690141934901476
1761132035889617000,3.388616943359375,-0.0007635815418325365,0,-0.001679879380390048
1761132035899616800,3.39861669921875,0.00045814894838258624,0,-0.00045814894838258624
1761132035909617000,3.408616943359375,-0.00015271631127689034,0.0006108652451075613,-0.00045814894838258624
1761132035919617500,3.418617431640625,0.00045814894838258624,0.0006108652451075613,-0.00045814894838258624
1761132035929617700,3.42861767578125,-0.0007635815418325365,0,-0.0010690141934901476
1761132035939617800,3.43861767578125,-0.0007635815418325365,-0.0012217304902151227,0.00015271631127689034
1761132035949617700,3.44861767578125,-0.0013744467869400978,0,-0.00045814894838258624
1761132035959617800,3.45861767578125,-0.0007635815418325365,0,0.00015271631127689034
1761132035969617700,3.46861767578125,0.00045814894838258624,0,0.00015271631127689034
1761132035979617800,3.47861767578125,0.0010690141934901476,0,-0.001679879380390048
1761132035989617700,3.48861767578125,-0.00015271631127689034,0.0006108652451075613,-0.0010690141934901476
1761132035999617800,3.49861767578125,-0.00015271631127689034,0,-0.0010690141934901476
1761132036009617700,3.50861767578125,-0.00015271631127689034,-0.0006108652451075613,0.00015271631127689034
1761132036019617000,3.518616943359375,0.00045814894838258624,-0.0006108652451075613,-0.0010690141934901476
1761132036029617000,3.528616943359375,-0.00015271631127689034,0,0.00015271631127689034
1761132036039617000,3.538616943359375,0.0010690141934901476,0.001832595793530345,0.00015271631127689034
1761132036049617000,3.548616943359375,-0.00015271631127689034,0.0006108652451075613,-0.00045814894838258624
1761132036059617000,3.558616943359375,-0.00015271631127689034,0,-0.0010690141934901476
1761132036069617000,3.568616943359375,0.00045814894838258624,0,0.00015271631127689034
1761132036079616800,3.57861669921875,0.00045814894838258624,0,0.00015271631127689034
1761132036089617000,3.588616943359375,0.00045814894838258624,0,0.00015271631127689034
1761132036099616800,3.59861669921875,0.00045814894838258624,0.0006108652451075613,-0.00045814894838258624
1761132036109617000,3.608616943359375,0.00045814894838258624,0.0006108652451075613,0.00015271631127689034
1761132036119617800,3.61861767578125,-0.00015271631127689034,0,0.00015271631127689034
1761132036129617700,3.62861767578125,-0.0019853119738399982,0,0.00015271631127689034
1761132036139617800,3.63861767578125,-0.00015271631127689034,0,-0.00045814894838258624
1761132036149617700,3.64861767578125,-0.00015271631127689034,0,0.0007635815418325365
1761132036159617800,3.65861767578125,-0.00015271631127689034,0.0012217304902151227,0.00015271631127689034
1761132036169617700,3.66861767578125,-0.00015271631127689034,0.0006108652451075613,-0.00045814894838258624
1761132036179617800,3.67861767578125,-0.0007635815418325365,-0.0006108652451075613,-0.00045814894838258624
1761132036189617700,3.68861767578125,-0.0007635815418325365,0,0.00015271631127689034
1761132036199617800,3.69861767578125,-0.0007635815418325365,0,0.00015271631127689034
1761132036209617700,3.70861767578125,-0.0007635815418325365,-0.0006108652451075613,-0.00045814894838258624
1761132036219617000,3.718616943359375,0.0010690141934901476,0.0006108652451075613,0.0007635815418325365
1761132036229617000,3.728616943359375,-0.00015271631127689034,0,0.00015271631127689034
1761132036239616800,3.73861669921875,0.00045814894838258624,0,0.00015271631127689034
1761132036249617000,3.748616943359375,-0.00015271631127689034,0,0.00015271631127689034
1761132036259616800,3.75861669921875,-0.0007635815418325365,0,0.00015271631127689034
1761132036269617000,3.768616943359375,0.00045814894838258624,-0.0006108652451075613,0.00015271631127689034
1761132036279616800,3.77861669921875,-0.0013744467869400978,0,0.0007635815418325365
1761132036289617000,3.788616943359375,-0.0007635815418325365,-0.0012217304902151227,0.00015271631127689034
1761132036299616800,3.79861669921875,-0.00015271631127689034,-0.0006108652451075613,0.0007635815418325365
1761132036309617000,3.808616943359375,-0.00015271631127689034,0,0.0013744467869400978
1761132036319617800,3.81861767578125,0.00045814894838258624,0.0006108652451075613,0.0013744467869400978
1761132036329617700,3.82861767578125,-0.0007635815418325365,0,0.00015271631127689034
1761132036339617800,3.83861767578125,0.00045814894838258624,0.0006108652451075613,0.0013744467869400978
1761132036349617700,3.84861767578125,-0.00015271631127689034,-0.0006108652451075613,0.00015271631127689034
1761132036359617800,3.85861767578125,-0.0007635815418325365,-0.0006108652451075613,0.00015271631127689034
1761132036369617700,3.86861767578125,-0.0013744467869400978,-0.0006108652451075613,-0.00045814894838258624
1761132036379617800,3.87861767578125,-0.0007635815418325365,0.0012217304902151227,0.0007635815418325365
1761132036389617700,3.88861767578125,-0.0007635815418325365,-0.0006108652451075613,-0.00045814894838258624
1761132036399617800,3.89861767578125,0.0010690141934901476,0,0.0007635815418325365
1761132036409617700,3.90861767578125,-0.0007635815418325365,0.0012217304902151227,-0.00045814894838258624
1761132036419616800,3.91861669921875,0.0010690141934901476,0.0006108652451075613,-0.00045814894838258624
1761132036429617000,3.928616943359375,-0.0007635815418325365,0.0006108652451075613,-0.00045814894838258624
1761132036439616800,3.93861669921875,-0.00015271631127689034,0.0012217304902151227,-0.0010690141934901476
1761132036449617000,3.948616943359375,-0.00015271631127689034,0.0006108652451075613,0.00015271631127689034
1761132036459616800,3.95861669921875,0.00045814894838258624,0.0006108652451075613,0.0007635815418325365
1761132036469617000,3.968616943359375,0.00045814894838258624,-0.0012217304902151227,0.0007635815418325365
1761132036479616800,3.97861669921875,0.001679879380390048,0,0.0007635815418325365
1761132036489617000,3.988616943359375,-0.0007635815418325365,0,0.00015271631127689034
1761132036499616800,3.99861669921875,-0.0007635815418325365,-0.0006108652451075613,0.00015271631127689034
1761132036509617000,4.008616943359375,-0.0007635815418325365,-0.0006108652451075613,0.0013744467869400978
1761132036519617800,4.01861767578125,-0.00015271631127689034,-0.0006108652451075613,0.0007635815418325365
1761132036529617700,4.02861767578125,-0.0007635815418325365,0,-0.00045814894838258624
1761132036539617800,4.03861767578125,0.0010690141934901476,-0.0006108652451075613,-0.0010690141934901476
1761132036549617700,4.04861767578125,-0.0007635815418325365,0,-0.00045814894838258624
1761132036559617800,4.05861767578125,-0.0007635815418325365,-0.0006108652451075613,-0.00045814894838258624
1761132036569617700,4.06861767578125,-0.00015271631127689034,0,0.00015271631127689034
1761132036579617800,4.07861767578125,-0.00015271631127689034,0.0006108652451075613,-0.00045814894838258624
1761132036589617700,4.08861767578125,-0.00015271631127689034,0,0.00015271631127689034
1761132036599617800,4.09861767578125,-0.0013744467869400978,0.0006108652451075613,0.00015271631127689034
1761132036609617700,4.10861767578125,-0.00015271631127689034,-0.0006108652451075613,-0.0010690141934901476
1761132036619616800,4.11861669921875,-0.00015271631127689034,0,0.00015271631127689034
1761132036629617000,4.128616943359375,0.00045814894838258624,0,0.00015271631127689034
1761132036639616800,4.13861669921875,-0.00015271631127689034,-0.0006108652451075613,-0.00045814894838258624
1761132036649617000,4.148616943359375,-0.0013744467869400978,-0.0006108652451075613,0.00015271631127689034
1761132036659616800,4.15861669921875,-0.0007635815418325365,-0.0006108652451075613,0.0007635815418325365
1761132036669617000,4.168616943359375,-0.00015271631127689034,-0.0006108652451075613,-0.00045814894838258624
1761132036679616800,4.17861669921875,0.00045814894838258624,0,0.00015271631127689034
1761132036689617000,4.188616943359375,-0.00015271631127689034,-0.0006108652451075613,0.00015271631127689034
1761132036699616800,4.19861669921875,-0.0007635815418325365,0,-0.00045814894838258624
1761132036709617000,4.208616943359375,-0.0007635815418325365,0.0006108652451075613,0.0007635815418325365
1761132036719617800,4.21861767578125,-0.0007635815418325365,0,0.0007635815418325365
1761132036729617700,4.22861767578125,0.00045814894838258624,-0.0006108652451075613,0.00015271631127689034
1761132036739617800,4.23861767578125,-0.0007635815418325365,-0.0006108652451075613,-0.0010690141934901476
1761132036749617700,4.24861767578125,-0.0019853119738399982,0.0012217304902151227,-0.00045814894838258624
1761132036759617800,4.25861767578125,-0.0013744467869400978,0,0.00015271631127689034
1761132036769617700,4.26861767578125,-0.00015271631127689034,0.0006108652451075613,-0.00045814894838258624
1761132036779617800,4.27861767578125,-0.00015271631127689034,0.0006108652451075613,0.00015271631127689034
1761132036789617700,4.28861767578125,-0.00015271631127689034,0,-0.00045814894838258624
1761132036799617800,4.29861767578125,0.00045814894838258624,0,0.0007635815418325365
1761132036809617700,4.30861767578125,-0.0007635815418325365,0,-0.00045814894838258624
1761132036819616800,4.31861669921875,0.00045814894838258624,-0.0006108652451075613,-0.0010690141934901476
1761132036829617000,4.328616943359375,-0.0013744467869400978,-0.0012217304902151227,-0.00045814894838258624
1761132036839616800,4.33861669921875,0.0010690141934901476,0.0006108652451075613,0.0007635815418325365
1761132036849617000,4.348616943359375,-0.00015271631127689034,0,0.0007635815418325365
1761132036859616800,4.35861669921875,-0.00015271631127689034,0,-0.00045814894838258624
1761132036869617000,4.368616943359375,0.00045814894838258624,0,0.00015271631127689034
1761132036879616800,4.37861669921875,-0.0007635815418325365,0.0006108652451075613,0.00015271631127689034
1761132036889617000,4.388616943359375,0.0010690141934901476,0,0.00015271631127689034
1761132036899616800,4.39861669921875,-0.00015271631127689034,0,-0.00045814894838258624
1761132036909617000,4.408616943359375,-0.0007635815418325365,0.0012217304902151227,0.00015271631127689034
1761132036919617500,4.418617431640625,0.0010690141934901476,0,0.00015271631127689034
1761132036929617700,4.42861767578125,-0.00015271631127689034,0.0006108652451075613,0.00015271631127689034
1761132036939617800,4.43861767578125,0.0010690141934901476,0.0012217304902151227,0.00015271631127689034
1761132036949617700,4.44861767578125,-0.0007635815418325365,0,0.00015271631127689034
1761132036959617800,4.45861767578125,-0.0007635815418325365,0,0.0007635815418325365
1761132036969617700,4.46861767578125,-0.00015271631127689034,0,0.00015271631127689034
1761132036979617800,4.47861767578125,0.00045814894838258624,0,-0.00045814894838258624
1761132036989617700,4.48861767578125,-0.00015271631127689034,0,0.0007635815418325365
1761132036999617800,4.49861767578125,-0.00015271631127689034,0,-0.00045814894838258624
1761132037009617700,4.50861767578125,-0.0007635815418325365,0.0006108652451075613,-0.0010690141934901476
1761132037019616800,4.51861669921875,-0.00015271631127689034,0,0.0007635815418325365
1761132037029617000,4.528616943359375,0.0010690141934901476,0.0006108652451075613,0.00015271631127689034
1761132037039616800,4.53861669921875,-0.0007635815418325365,0.0006108652451075613,-0.00045814894838258624
1761132037049617000,4.548616943359375,-0.0007635815418325365,0.0012217304902151227,0.00015271631127689034
1761132037059616800,4.55861669921875,-0.0007635815418325365,0.0006108652451075613,-0.00045814894838258624
1761132037069617000,4.568616943359375,-0.00015271631127689034,0.0006108652451075613,0.00015271631127689034
1761132037079616800,4.57861669921875,-0.00015271631127689034,0.0006108652451075613,0.00015271631127689034
1761132037089617000,4.588616943359375,-0.0007635815418325365,-0.0006108652451075613,0.00015271631127689034
1761132037099616800,4.59861669921875,-0.00015271631127689034,0.0012217304902151227,-0.00045814894838258624
1761132037109617000,4.608616943359375,-0.00015271631127689034,-0.0012217304902151227,-0.00045814894838258624
1761132037119617800,4.61861767578125,-0.00015271631127689034,0,0.00015271631127689034
1761132037129617700,4.62861767578125,-0.0007635815418325365,0,0.00015271631127689034
1761132037139617800,4.63861767578125,0.00045814894838258624,0,0.0007635815418325365
1761132037149617700,4.64861767578125,-0.00015271631127689034,-0.0006108652451075613,0.00015271631127689034
1761132037159617800,4.65861767578125,0.00045814894838258624,0,-0.0010690141934901476
1761132037169617700,4.66861767578125,-0.00015271631127689034,0,-0.00045814894838258624
1761132037179617800,4.67861767578125,0.0010690141934901476,0.0006108652451075613,-0.00045814894838258624
1761132037189617700,4.68861767578125,0.0010690141934901476,0.0006108652451075613,-0.00045814894838258624
1761132037199617800,4.69861767578125,-0.0007635815418325365,0.0006108652451075613,0.00015271631127689034
1761132037209617700,4.70861767578125,-0.00015271631127689034,0.0006108652451075613,-0.0010690141934901476
1761132037219616800,4.71861669921875,0.00045814894838258624,0.0012217304902151227,-0.00045814894838258624
1761132037229617000,4.728616943359375,-0.0007635815418325365,0,-0.00045814894838258624
1761132037239616800,4.73861669921875,-0.00015271631127689034,0,-0.00045814894838258624
1761132037249617000,4.748616943359375,-0.0007635815418325365,0.0006108652451075613,0.0007635815418325365
1761132037259616800,4.75861669921875,-0.0007635815418325365,0.0006108652451075613,0.00015271631127689034
1761132037269617000,4.768616943359375,-0.0007635815418325365,0.0006108652451075613,0.00015271631127689034
1761132037279616800,4.77861669921875,0.00045814894838258624,0,0.00015271631127689034
1761132037289617000,4.788616943359375,-0.00015271631127689034,0,-0.00045814894838258624
1761132037299616800,4.79861669921875,0.001679879380390048,0,0.0013744467869400978
1761132037309617000,4.808616943359375,0.00045814894838258624,0,0.0007635815418325365
1761132037319617800,4.81861767578125,-0.0007635815418325365,0,0.0007635815418325365
1761132037329617700,4.82861767578125,-0.0007635815418325365,-0.0006108652451075613,0.0007635815418325365
1761132037339617500,4.838617431640625,0.0010690141934901476,0.0006108652451075613,0.0013744467869400978
1761132037349617700,4.84861767578125,-0.0007635815418325365,0.0006108652451075613,0.0019853119738399982
1761132037359617500,4.858617431640625,0.00045814894838258624,-0.0012217304902151227,0.0032070425804704428
1761132037369617700,4.86861767578125,-0.00015271631127689034,-0.0006108652451075613,0.0025961773935705423
1761132037379617500,4.878617431640625,0.0010690141934901476,0.0006108652451075613,0.0032070425804704428
1761132037389617700,4.88861767578125,0.0010690141934901476,0.0006108652451075613,0.0013744467869400978
1761132037399617500,4.898617431640625,-0.00015271631127689034,-0.0006108652451075613,0.0025961773935705423
1761132037409617700,4.90861767578125,-0.00015271631127689034,-0.0012217304902151227,0.0013744467869400978
1761132037419616800,4.91861669921875,0.00045814894838258624,-0.0006108652451075613,0.0025961773935705423
1761132037429617000,4.928616943359375,0.00045814894838258624,-0.0006108652451075613,0.0007635815418325365
1761132037439616800,4.93861669921875,-0.0013744467869400978,0.0006108652451075613,0.0007635815418325365
1761132037449617000,4.948616943359375,0.00045814894838258624,-0.0012217304902151227,-0.00045814894838258624
1761132037459616800,4.95861669921875,-0.0013744467869400978,-0.0006108652451075613,0.00015271631127689034
1761132037469617000,4.968616943359375,-0.00015271631127689034,-0.0012217304902151227,0.0013744467869400978
1761132037479616800,4.97861669921875,-0.0013744467869400978,0,0.0013744467869400978
1761132037489617000,4.988616943359375,0.00045814894838258624,0,0.0007635815418325365
1761132037499616800,4.99861669921875,0.00045814894838258624,-0.0006108652451075613,-0.00045814894838258624
1761132037509617000,5.008616943359375,-0.00015271631127689034,-0.0012217304902151227,0.00015271631127689034
1761132037519617500,5.018617431640625,0.00045814894838258624,-0.0006108652451075613,0.00015271631127689034
1761132037529617700,5.02861767578125,-0.00015271631127689034,0,0.00015271631127689034
1761132037539617800,5.03861767578125,0.0010690141934901476,0,0.0007635815418325365
1761132037549617700,5.04861767578125,-0.00015271631127689034,-0.0006108652451075613,0.00015271631127689034
1761132037559617800,5.05861767578125,0.0010690141934901476,-0.0006108652451075613,0.0007635815418325365
1761132037569617700,5.06861767578125,-0.00015271631127689034,0,0.0013744467869400978
1761132037579617800,5.07861767578125,-0.00015271631127689034,0,0.0007635815418325365
1761132037589617700,5.08861767578125,-0.00015271631127689034,0,0.0007635815418325365
1761132037599617800,5.09861767578125,-0.00015271631127689034,-0.0006108652451075613,0.0013744467869400978
1761132037609617700,5.10861767578125,-0.00015271631127689034,-0.0006108652451075613,0.0013744467869400978
1761132037619616800,5.11861669921875,-0.0013744467869400978,0.0006108652451075613,0.0007635815418325365
1761132037629617000,5.128616943359375,0.00045814894838258624,0.0006108652451075613,0.0007635815418325365
1761132037639616800,5.13861669921875,-0.0007635815418325365,-0.0012217304902151227,0.00015271631127689034
1761132037649617000,5.148616943359375,-0.0013744467869400978,-0.0006108652451075613,0.00015271631127689034
1761132037659616800,5.15861669921875,-0.00015271631127689034,0.0006108652451075613,-0.00045814894838258624
1761132037669617000,5.168616943359375,0.00045814894838258624,-0.0006108652451075613,-0.00045814894838258624
1761132037679616800,5.17861669921875,-0.00015271631127689034,-0.0006108652451075613,0.00015271631127689034
1761132037689617000,5.188616943359375,0.00045814894838258624,0,0.00015271631127689034
1761132037699616800,5.19861669921875,0.00045814894838258624,0,0.00015271631127689034
1761132037709617000,5.208616943359375,-0.00015271631127689034,0,0.00015271631127689034
1761132037719617800,5.21861767578125,-0.00015271631127689034,0.0006108652451075613,0.00015271631127689034
1761132037729617700,5.22861767578125,0.00045814894838258624,0,-0.00045814894838258624
1761132037749617700,5.24861767578125,0.00045814894838258624,0.0006108652451075613,0.00015271631127689034
1761132037759617800,5.25861767578125,0.00045814894838258624,0.0006108652451075613,0.0007635815418325365
1761132037769617700,5.26861767578125,0.00045814894838258624,0.0006108652451075613,-0.00045814894838258624
1761132037779617800,5.27861767578125,-0.00015271631127689034,0,0.0007635815418325365
1761132037789617700,5.28861767578125,0.00045814894838258624,0,0.0007635815418325365
1761132037799617800,5.29861767578125,-0.00015271631127689034,0,0.00015271631127689034
1761132037809617700,5.30861767578125,-0.00015271631127689034,0,0.00015271631127689034
1761132037819616800,5.31861669921875,-0.0013744467869400978,0.0006108652451075613,0.00015271631127689034
1761132037829617000,5.328616943359375,-0.00015271631127689034,-0.0006108652451075613,0.00015271631127689034
1761132037839616800,5.33861669921875,-0.0007635815418325365,0,0.00015271631127689034
1761132037849617000,5.348616943359375,-0.0007635815418325365,0.0006108652451075613,-0.00045814894838258624
1761132037859616800,5.35861669921875,-0.00015271631127689034,-0.0006108652451075613,-0.00045814894838258624
1761132037869617000,5.368616943359375,0.00045814894838258624,0,0.00015271631127689034
1761132037879616800,5.37861669921875,-0.0007635815418325365,0,-0.00045814894838258624
1761132037889617000,5.388616943359375,-0.00015271631127689034,0.0006108652451075613,-0.00045814894838258624
1761132037899616800,5.39861669921875,-0.0007635815418325365,0.0006108652451075613,-0.00045814894838258624
1761132037909617000,5.408616943359375,-0.0013744467869400978,-0.0006108652451075613,-0.0010690141934901476
1761132037919617500,5.418617431640625,0.00045814894838258624,0,0.0007635815418325365
1761132037929617700,5.42861767578125,-0.0007635815418325365,0,-0.00045814894838258624
1761132037939617800,5.43861767578125,-0.0007635815418325365,-0.0006108652451075613,-0.00045814894838258624
1761132037949617700,5.44861767578125,-0.00015271631127689034,0,0.00015271631127689034
1761132037959617800,5.45861767578125,0.0010690141934901476,0,-0.00045814894838258624
1761132037969617700,5.46861767578125,-0.00015271631127689034,-0.0006108652451075613,-0.0010690141934901476
1761132037979617800,5.47861767578125,-0.0013744467869400978,0.0006108652451075613,0.00015271631127689034
1761132037989617700,5.48861767578125,-0.00015271631127689034,0,-0.00045814894838258624
1761132037999617800,5.49861767578125,0.00045814894838258624,0,-0.00045814894838258624
1761132038009617700,5.50861767578125,-0.00015271631127689034,0.0006108652451075613,0.00015271631127689034
1761132038019616800,5.51861669921875,-0.0007635815418325365,-0.0006108652451075613,0.00015271631127689034
1761132038029617000,5.528616943359375,-0.00015271631127689034,0.0006108652451075613,0.00015271631127689034
1761132038039616800,5.53861669921875,-0.0007635815418325365,0,-0.00045814894838258624
1761132038049617000,5.548616943359375,-0.00015271631127689034,-0.0006108652451075613,-0.0010690141934901476
1761132038059616800,5.55861669921875,0.00045814894838258624,0,-0.00045814894838258624
1761132038069617000,5.568616943359375,0.00045814894838258624,0,0.00015271631127689034
1761132038079616800,5.57861669921875,-0.00015271631127689034,0,0.0013744467869400978
1761132038089617000,5.588616943359375,-0.00015271631127689034,0.0012217304902151227,0.0007635815418325365
1761132038099616800,5.59861669921875,-0.0007635815418325365,0,0.0007635815418325365
1761132038109617000,5.608616943359375,-0.00015271631127689034,0,0.0007635815418325365
1761132038119617800,5.61861767578125,-0.0007635815418325365,0,0.0007635815418325365
1761132038129617700,5.62861767578125,-0.0013744467869400978,0.0006108652451075613,0.00015271631127689034
1761132038139617800,5.63861767578125,-0.0013744467869400978,0,-0.00045814894838258624
1761132038149617700,5.64861767578125,-0.00015271631127689034,0,-0.00045814894838258624
1761132038159617800,5.65861767578125,-0.00015271631127689034,0.0006108652451075613,-0.00045814894838258624
1761132038169617700,5.66861767578125,-0.0007635815418325365,-0.0006108652451075613,0.00015271631127689034
1761132038179617800,5.67861767578125,-0.0007635815418325365,-0.0006108652451075613,-0.0010690141934901476
1761132038189617700,5.68861767578125,-0.00015271631127689034,-0.0012217304902151227,-0.00045814894838258624
1761132038199617800,5.69861767578125,0.00045814894838258624,0,0.00015271631127689034
1761132038209617700,5.70861767578125,0.00045814894838258624,0,-0.0010690141934901476
1761132038219616800,5.71861669921875,0.001679879380390048,0,-0.0010690141934901476
1761132038229617000,5.728616943359375,0.001679879380390048,0,0.0007635815418325365
1761132038239616800,5.73861669921875,0.001679879380390048,0.0006108652451075613,0.00015271631127689034
1761132038249617000,5.748616943359375,-0.0007635815418325365,0,-0.00045814894838258624
1761132038259616800,5.75861669921875,0.0010690141934901476,0.0006108652451075613,0.00015271631127689034
1761132038269617000,5.768616943359375,-0.00015271631127689034,0,-0.00045814894838258624
1761132038279616800,5.77861669921875,-0.0007635815418325365,0,0.00015271631127689034
1761132038289617000,5.788616943359375,-0.0013744467869400978,-0.0006108652451075613,-0.00045814894838258624
1761132038299616800,5.79861669921875,0.00045814894838258624,0.0012217304902151227,0.00015271631127689034
1761132038309617000,5.808616943359375,-0.0007635815418325365,0,-0.00045814894838258624
1761132038319617800,5.81861767578125,0.00045814894838258624,0,0.0013744467869400978
1761132038329617700,5.82861767578125,0.00045814894838258624,0,0.0007635815418325365
1761132038339617500,5.838617431640625,0.00045814894838258624,0,-0.00045814894838258624
1761132038349617700,5.84861767578125,-0.0007635815418325365,0.0006108652451075613,-0.00045814894838258624
1761132038359617500,5.858617431640625,0.00045814894838258624,0,0.00015271631127689034
1761132038369617700,5.86861767578125,-0.0007635815418325365,0.0006108652451075613,0.0007635815418325365
1761132038379617500,5.878617431640625,-0.00015271631127689034,-0.0006108652451075613,0.00015271631127689034
1761132038389617700,5.88861767578125,-0.00015271631127689034,-0.0006108652451075613,-0.00045814894838258624
1761132038399617500,5.898617431640625,-0.0013744467869400978,0,0.00015271631127689034
1761132038409617700,5.90861767578125,-0.0013744467869400978,-0.0006108652451075613,-0.00045814894838258624
1761132038419616800,5.91861669921875,0.00045814894838258624,0.0012217304902151227,0.00015271631127689034
1761132038429617000,5.928616943359375,-0.00015271631127689034,0.0006108652451075613,0.00015271631127689034
1761132038439616800,5.93861669921875,-0.00015271631127689034,0,0.00015271631127689034
1761132038449616600,5.94861669921875,0.00045814894838258624,-0.0012217304902151227,0.00015271631127689034
1761132038459616800,5.95861669921875,-0.00015271631127689034,0.0006108652451075613,0.0007635815418325365
1761132038469616600,5.96861669921875,-0.00015271631127689034,0.0006108652451075613,0.00015271631127689034
1761132038479616800,5.97861669921875,-0.00015271631127689034,-0.0006108652451075613,-0.00045814894838258624
1761132038489616600,5.98861669921875,0.00045814894838258624,-0.0006108652451075613,0.0007635815418325365
1761132038499616800,5.99861669921875,0,0.00007635815563844517,0.0006872233934700489
1761132038509616600,6.00861669921875,-0.0012217304902151227,0.0006872233934700489,0.00007635815563844517
1761132038519617500,6.018617431640625,-0.0006108652451075613,0.00007635815563844517,0.00007635815563844517
1761132038529617700,6.02861767578125,0,0.00007635815563844517,0.0006872233934700489
1761132038539617500,6.038617431640625,0.0006108652451075613,-0.0005345070967450738,-0.0005345070967450738
1761132038549617700,6.04861767578125,-0.0006108652451075613,0.0006872233934700489,0.0006872233934700489
1761132038559617500,6.058617431640625,0,-0.0005345070967450738,-0.0005345070967450738
1761132038569617700,6.06861767578125,0.0006108652451075613,0.00007635815563844517,-0.0005345070967450738
1761132038579617500,6.078617431640625,0,0.00007635815563844517,0.00007635815563844517
1761132038589617700,6.08861767578125,-0.0012217304902151227,-0.0005345070967450738,0.00007635815563844517
1761132038599617500,6.098617431640625,0,0.0006872233934700489,0.0006872233934700489
1761132038609617700,6.10861767578125,-0.0006108652451075613,0.0012980886967852712,0.00007635815563844517
1761132038619616800,6.11861669921875,0.0006108652451075613,-0.0005345070967450738,0.00007635815563844517
1761132038629617000,6.128616943359375,0.0006108652451075613,0.00007635815563844517,0.00007635815563844517
1761132038639616800,6.13861669921875,0.0006108652451075613,0.00007635815563844517,0.00007635815563844517
1761132038649617000,6.148616943359375,-0.0006108652451075613,-0.0005345070967450738,0.0006872233934700489
1761132038659616800,6.15861669921875,-0.0006108652451075613,0.0006872233934700489,0.00007635815563844517
1761132038669617000,6.168616943359375,0,0.00007635815563844517,-0.0005345070967450738
1761132038679616800,6.17861669921875,0,0.0012980886967852712,0.0006872233934700489
1761132038689617000,6.188616943359375,0.0006108652451075613,0.0006872233934700489,0.0006872233934700489
1761132038699616800,6.19861669921875,-0.0006108652451075613,-0.0005345070967450738,0.0006872233934700489
1761132038709617000,6.208616943359375,0,-0.0005345070967450738,0.00007635815563844517
1761132038719617800,6.21861767578125,0.0012217304902151227,-0.0005345070967450738,0.0006872233934700489
1761132038729617700,6.22861767578125,0.0006108652451075613,0.00007635815563844517,0.0006872233934700489
1761132038739617800,6.23861767578125,0,0.0012980886967852712,0.0006872233934700489
1761132038749617700,6.24861767578125,0,0.00007635815563844517,0.00007635815563844517
1761132038759617800,6.25861767578125,-0.0006108652451075613,0.00007635815563844517,0.0012980886967852712
1761132038769617700,6.26861767578125,0.0006108652451075613,-0.0005345070967450738,0.0006872233934700489
1761132038779617800,6.27861767578125,0.0012217304902151227,-0.0005345070967450738,0.0006872233934700489
1761132038789617700,6.28861767578125,0.0006108652451075613,0.00007635815563844517,0.0006872233934700489
1761132038799617800,6.29861767578125,0,-0.0005345070967450738,0.00007635815563844517
1761132038809617700,6.30861767578125,0,0.0006872233934700489,-0.0011453722836449742
1761132038819616800,6.31861669921875,-0.0006108652451075613,0.00007635815563844517,-0.0005345070967450738
1761132038829617000,6.328616943359375,-0.0012217304902151227,0.00007635815563844517,-0.0005345070967450738
1761132038839616800,6.33861669921875,-0.0006108652451075613,0.00007635815563844517,0.00007635815563844517
1761132038849617000,6.348616943359375,0,0.0006872233934700489,0.0006872233934700489
1761132038859616800,6.35861669921875,0.0006108652451075613,-0.0005345070967450738,-0.0005345070967450738
1761132038869617000,6.368616943359375,0,-0.0005345070967450738,0.00007635815563844517
1761132038879616800,6.37861669921875,0,0.0012980886967852712,0.0006872233934700489
1761132038889617000,6.388616943359375,-0.0006108652451075613,0.00007635815563844517,0.0006872233934700489
1761132038899616800,6.39861669921875,-0.0012217304902151227,-0.0005345070967450738,0.00007635815563844517
1761132038909617000,6.408616943359375,0,-0.0005345070967450738,0.00007635815563844517
1761132038919617500,6.418617431640625,0,0.0006872233934700489,0.0019089538836851716
1761132038929617700,6.42861767578125,0,0.0006872233934700489,0.0006872233934700489
1761132038939617800,6.43861767578125,0,0.00007635815563844517,-0.0005345070967450738
1761132038949617700,6.44861767578125,-0.0006108652451075613,0.00007635815563844517,0.00007635815563844517
1761132038959617800,6.45861767578125,0.0006108652451075613,-0.0005345070967450738,0.00007635815563844517
1761132038969617700,6.46861767578125,-0.0006108652451075613,0.0012980886967852712,0.00007635815563844517
1761132038979617800,6.47861767578125,0,0.00007635815563844517,0.00007635815563844517
1761132038989617700,6.48861767578125,0,0.0006872233934700489,-0.0011453722836449742
1761132038999617800,6.49861767578125,0,-0.0005345070967450738,-0.0005345070967450738
1761132039009617700,6.50861767578125,-0.0006108652451075613,-0.0017562375869601965,-0.0011453722836449742
1761132039019617000,6.518616943359375,-0.0006108652451075613,0.00007635815563844517,-0.0011453722836449742
1761132039029617200,6.5286171875,-0.0012217304902151227,-0.0017562375869601965,0.00007635815563844517
1761132039039617300,6.5386171875,-0.0006108652451075613,0.0006872233934700489,0.0006872233934700489
1761132039049617200,6.5486171875,-0.0012217304902151227,0.00007635815563844517,0.00007635815563844517
1761132039059617300,6.5586171875,0,0.00007635815563844517,0.0006872233934700489
1761132039069617200,6.5686171875,0,0.00007635815563844517,0.00007635815563844517
1761132039079617000,6.578616943359375,-0.0006108652451075613,0.00007635815563844517,0.0006872233934700489
1761132039089617200,6.5886171875,-0.0006108652451075613,0.00007635815563844517,0.00007635815563844517
1761132039099617000,6.598616943359375,0,0.00007635815563844517,0.00007635815563844517
1761132039109617200,6.6086171875,0.0006108652451075613,0.00007635815563844517,0.00007635815563844517
1761132039119618000,6.6186181640625,0,-0.0005345070967450738,-0.0005345070967450738
1761132039129618000,6.628617919921875,-0.0006108652451075613,0.00007635815563844517,0.0006872233934700489
1761132039139618000,6.6386181640625,-0.0006108652451075613,0.00007635815563844517,0.00007635815563844517
1761132039149618000,6.648617919921875,0,0.0006872233934700489,0.00007635815563844517
1761132039159618000,6.6586181640625,-0.0006108652451075613,-0.0005345070967450738,-0.0005345070967450738
1761132039169618000,6.668617919921875,-0.0006108652451075613,-0.0011453722836449742,0.00007635815563844517
1761132039179618000,6.6786181640625,0.0006108652451075613,0.00007635815563844517,0.00007635815563844517
1761132039189618000,6.688617919921875,0.0006108652451075613,0.00007635815563844517,0.00007635815563844517
1761132039199618000,6.6986181640625,0.0006108652451075613,0.0006872233934700489,-0.0005345070967450738
1761132039209618000,6.708617919921875,0,0.00007635815563844517,0.0006872233934700489
1761132039219617000,6.718616943359375,-0.0012217304902151227,-0.0005345070967450738,0.0006872233934700489
1761132039229617200,6.7286171875,0.0006108652451075613,0.00007635815563844517,-0.0005345070967450738
1761132039239617000,6.738616943359375,0.0006108652451075613,0.00007635815563844517,-0.0005345070967450738
1761132039249617200,6.7486171875,0.0006108652451075613,0.0006872233934700489,-0.0005345070967450738
1761132039259617000,6.758616943359375,0.0006108652451075613,0.00007635815563844517,0.00007635815563844517
1761132039269617200,6.7686171875,0,0.0006872233934700489,0.00007635815563844517
1761132039279617000,6.778616943359375,0,0.00007635815563844517,-0.0011453722836449742
1761132039289617200,6.7886171875,-0.0006108652451075613,0.00007635815563844517,-0.0005345070967450738
1761132039299617000,6.798616943359375,0.0006108652451075613,0.00007635815563844517,0.00007635815563844517
1761132039309617200,6.8086171875,-0.0006108652451075613,0.00007635815563844517,0.00007635815563844517
1761132039319617800,6.81861767578125,0,0.0006872233934700489,0.00007635815563844517
1761132039329617700,6.82861767578125,0.0006108652451075613,0.0006872233934700489,0.0006872233934700489
1761132039339617500,6.838617431640625,0.0006108652451075613,-0.0005345070967450738,0.0006872233934700489
1761132039349617700,6.84861767578125,0,0.00007635815563844517,0.00007635815563844517
1761132039359617500,6.858617431640625,0,-0.0005345070967450738,0.00007635815563844517
1761132039369617700,6.86861767578125,0,0.00007635815563844517,0.00007635815563844517
1761132039379617500,6.878617431640625,0,0.00007635815563844517,-0.0005345070967450738
1761132039389617700,6.88861767578125,0,0.00007635815563844517,0.0006872233934700489
1761132039399617500,6.898617431640625,-0.0006108652451075613,0.00007635815563844517,0.00007635815563844517
1761132039409617700,6.90861767578125,0.0006108652451075613,0.0006872233934700489,-0.0005345070967450738
1761132039419616800,6.91861669921875,0.001832595793530345,0.0012980886967852712,0.00007635815563844517
1761132039429617000,6.928616943359375,0.0006108652451075613,0.0006872233934700489,0.00007635815563844517
1761132039439616800,6.93861669921875,-0.0006108652451075613,-0.0005345070967450738,0.0006872233934700489
1761132039449617000,6.948616943359375,-0.0006108652451075613,0.00007635815563844517,0.0006872233934700489
1761132039459616800,6.95861669921875,0.0006108652451075613,0.0012980886967852712,-0.0011453722836449742
1761132039469617000,6.968616943359375,0,-0.0005345070967450738,0.00007635815563844517
1761132039479616800,6.97861669921875,0,0.0006872233934700489,0.00007635815563844517
1761132039489617000,6.988616943359375,0.0006108652451075613,-0.0005345070967450738,-0.0005345070967450738
1761132039499616800,6.99861669921875,0,0.00007635815563844517,0.0006872233934700489
1761132039509617000,7.008616943359375,0,-0.0017562375869601965,-0.0005345070967450738
1761132039519617500,7.018617431640625,0.0012217304902151227,-0.0005345070967450738,0.0012980886967852712
1761132039529617700,7.02861767578125,0.0006108652451075613,0.0006872233934700489,0.00007635815563844517
1761132039539617500,7.038617431640625,-0.0006108652451075613,0.0006872233934700489,-0.0005345070967450738
1761132039549617700,7.04861767578125,0,-0.0005345070967450738,-0.0005345070967450738
1761132039559617500,7.058617431640625,0,0.0006872233934700489,-0.0005345070967450738
1761132039569617700,7.06861767578125,0.0012217304902151227,0.00007635815563844517,0.00007635815563844517
1761132039579617800,7.07861767578125,-0.0006108652451075613,0.0006872233934700489,-0.0005345070967450738
1761132039589617700,7.08861767578125,0,0.00007635815563844517,-0.0005345070967450738
1761132039599617500,7.098617431640625,0.0006108652451075613,0.00007635815563844517,-0.0005345070967450738
1761132039609617700,7.10861767578125,0.0006108652451075613,-0.0005345070967450738,0.00007635815563844517
1761132039619616800,7.11861669921875,0.0012217304902151227,0.00007635815563844517,-0.0011453722836449742
1761132039629617000,7.128616943359375,0.0012217304902151227,0.0006872233934700489,-0.0005345070967450738
1761132039639616800,7.13861669921875,0.0012217304902151227,-0.0005345070967450738,0.00007635815563844517
1761132039649617000,7.148616943359375,0.0006108652451075613,0.0006872233934700489,0.00007635815563844517
1761132039659616800,7.15861669921875,0,0.00007635815563844517,0.00007635815563844517
1761132039669617000,7.168616943359375,0.0006108652451075613,0.00007635815563844517,0.00007635815563844517
1761132039679616800,7.17861669921875,-0.0006108652451075613,0.0012980886967852712,-0.0005345070967450738
1761132039689617000,7.188616943359375,0.0006108652451075613,0.0006872233934700489,0.0012980886967852712
1761132039699616800,7.19861669921875,0,-0.0005345070967450738,0.0006872233934700489
1761132039709617000,7.208616943359375,0,0.00007635815563844517,-0.0005345070967450738
1761132039719617500,7.218617431640625,0,0.00007635815563844517,0.00007635815563844517
1761132039729617700,7.22861767578125,0.0006108652451075613,0.0006872233934700489,0.0006872233934700489
1761132039739617500,7.238617431640625,0.0006108652451075613,0.00007635815563844517,-0.0005345070967450738
1761132039749617700,7.24861767578125,-0.0006108652451075613,0.0006872233934700489,-0.0011453722836449742
1761132039759617500,7.258617431640625,-0.0012217304902151227,0.00007635815563844517,-0.0011453722836449742
1761132039769617700,7.26861767578125,-0.0006108652451075613,-0.0005345070967450738,-0.0005345070967450738
1761132039779617800,7.27861767578125,0.0006108652451075613,0.00007635815563844517,0.00007635815563844517
1761132039789617700,7.28861767578125,0,0.00007635815563844517,-0.0005345070967450738
1761132039799617800,7.29861767578125,-0.0006108652451075613,0.00007635815563844517,0.00007635815563844517
1761132039819616800,7.31861669921875,0.0006108652451075613,0.0006872233934700489,-0.0005345070967450738
1761132039829617000,7.328616943359375,-0.0006108652451075613,-0.0005345070967450738,0.00007635815563844517
1761132039839616800,7.33861669921875,-0.0006108652451075613,0.00007635815563844517,0.00007635815563844517
1761132039859616800,7.35861669921875,0.0012217304902151227,-0.0005345070967450738,-0.0005345070967450738
1761132039869616400,7.368616455078125,0.0012217304902151227,0.0006872233934700489,0.00007635815563844517
1761132039879615200,7.378615234375,0,-0.0005345070967450738,-0.0011453722836449742
1761132039899615500,7.398615478515625,0,0.00007635815563844517,0.0006872233934700489
1761132039909615400,7.408615478515625,-0.0006108652451075613,0.00007635815563844517,-0.0005345070967450738
1761132039919616300,7.4186162109375,0.0006108652451075613,-0.0005345070967450738,0.00007635815563844517
1761132039929616100,7.4286162109375,-0.0006108652451075613,0.00007635815563844517,0.00007635815563844517
1761132039939616300,7.4386162109375,0.0006108652451075613,-0.0005345070967450738,-0.0017562375869601965
1761132039949616000,7.4486162109375,0,-0.0005345070967450738,-0.0011453722836449742
1761132039959616300,7.4586162109375,-0.0012217304902151227,0.0012980886967852712,0.00007635815563844517
1761132039969616100,7.4686162109375,0,0.00007635815563844517,0.00007635815563844517
1761132039979616300,7.4786162109375,0,0.0006872233934700489,0.0006872233934700489
1761132039999616300,7.4986162109375,0,0.00007635815563844517,0.00007635815563844517
1761132040009616400,7.508616455078125,-0.001832595793530345,0.0006872233934700489,0.0006872233934700489
1761132040019615500,7.518615478515625,-0.0006108652451075613,0.0012980886967852712,0.00007635815563844517
1761132040029615400,7.528615478515625,0.0006108652451075613,0.0012980886967852712,-0.0005345070967450738
1761132040039615500,7.538615478515625,0.0006108652451075613,0.00007635815563844517,0.00007635815563844517
1761132040049615400,7.548615478515625,0.0012217304902151227,0.00007635815563844517,-0.0011453722836449742
1761132040059615500,7.558615478515625,0.001832595793530345,-0.0011453722836449742,-0.0011453722836449742
1761132040069615400,7.568615478515625,0,0.0006872233934700489,0.0012980886967852712
1761132040079615500,7.578615478515625,0,0.0006872233934700489,0.0012980886967852712
1761132040089615400,7.588615478515625,0,0.0006872233934700489,0.00007635815563844517
1761132040099615200,7.598615234375,-0.0012217304902151227,0.00007635815563844517,-0.0005345070967450738
1761132040109615400,7.608615478515625,-0.0012217304902151227,-0.0005345070967450738,-0.0011453722836449742
1761132040119616300,7.6186162109375,0.0006108652451075613,-0.0005345070967450738,-0.0005345070967450738
1761132040129616100,7.6286162109375,0.0012217304902151227,0.00007635815563844517,0.0012980886967852712
1761132040139616300,7.6386162109375,0.0006108652451075613,0.0012980886967852712,0.00007635815563844517
1761132040149616400,7.648616455078125,0,0.0006872233934700489,0.00007635815563844517
1761132040159616500,7.658616455078125,0.0006108652451075613,0.00007635815563844517,0.00007635815563844517
1761132040169617000,7.668616943359375,0.0006108652451075613,-0.0005345070967450738,0.0006872233934700489
1761132040179617800,7.67861767578125,0.0006108652451075613,0.0006872233934700489,0.0012980886967852712
1761132040189617700,7.68861767578125,-0.0006108652451075613,0.0006872233934700489,0.00007635815563844517
1761132040199617800,7.69861767578125,0.0006108652451075613,0.00007635815563844517,-0.0005345070967450738
1761132040209617700,7.70861767578125,0,0.0006872233934700489,0.00007635815563844517
1761132040219616800,7.71861669921875,-0.0006108652451075613,-0.0005345070967450738,0.00007635815563844517
1761132040229617000,7.728616943359375,0,-0.0011453722836449742,-0.0005345070967450738
1761132040239616800,7.73861669921875,-0.0006108652451075613,0.00007635815563844517,0.00007635815563844517
1761132040249617000,7.748616943359375,-0.0006108652451075613,-0.0005345070967450738,0.00007635815563844517
1761132040259616800,7.75861669921875,0.0006108652451075613,-0.0011453722836449742,0.00007635815563844517
1761132040269617000,7.768616943359375,-0.0006108652451075613,0.00007635815563844517,0.0006872233934700489
1761132040279616800,7.77861669921875,0.0006108652451075613,0.0006872233934700489,0.00007635815563844517
1761132040289617000,7.788616943359375,0,0.0006872233934700489,-0.0005345070967450738
1761132040299616800,7.79861669921875,-0.001832595793530345,0.00007635815563844517,0.00007635815563844517
1761132040309617000,7.808616943359375,0,-0.0005345070967450738,-0.0017562375869601965
1761132040319617500,7.818617431640625,0,0.00007635815563844517,0.0012980886967852712
1761132040329617700,7.82861767578125,0,0.00007635815563844517,0.0012980886967852712
1761132040339617500,7.838617431640625,-0.0006108652451075613,-0.0005345070967450738,-0.0005345070967450738
1761132040349617700,7.84861767578125,0.0006108652451075613,0.00007635815563844517,0.00007635815563844517
1761132040359617500,7.858617431640625,0.0012217304902151227,0.0006872233934700489,0.00007635815563844517
1761132040369617700,7.86861767578125,-0.0006108652451075613,0.00007635815563844517,0.00007635815563844517
1761132040379617500,7.878617431640625,0,-0.0005345070967450738,0.00007635815563844517
1761132040389617700,7.88861767578125,-0.001832595793530345,0.0006872233934700489,0.00007635815563844517
1761132040399617500,7.898617431640625,0.0012217304902151227,0.00007635815563844517,0.00007635815563844517
1761132040409617700,7.90861767578125,0,0.00007635815563844517,0.0012980886967852712
1761132040419617000,7.918616943359375,0,-0.0005345070967450738,0.0006872233934700489
1761132040429616400,7.928616455078125,0,0.0006872233934700489,0.0006872233934700489
1761132040439616000,7.938615966796875,0,0.0006872233934700489,0.0006872233934700489
1761132040449615400,7.948615478515625,-0.0006108652451075613,-0.0011453722836449742,0.00007635815563844517
1761132040459615000,7.958614990234375,0,0.0006872233934700489,0.0006872233934700489
1761132040469614300,7.9686142578125,-0.0006108652451075613,-0.0005345070967450738,-0.0005345070967450738
1761132040479614500,7.978614501953125,0.0006108652451075613,0.0006872233934700489,0.0006872233934700489
1761132040489614300,7.9886142578125,0.0006108652451075613,0.0006872233934700489,0.00007635815563844517
1761132040499614500,7.998614501953125,-0.0006108652451075613,0.0006872233934700489,0.00007635815563844517
1761132040509614300,8.0086142578125,0.0012217304902151227,0.0006872233934700489,-0.0011453722836449742
1761132040519615200,8.018615234375,-0.0006108652451075613,-0.0011453722836449742,0.00007635815563844517
1761132040529615000,8.028614990234376,0.0006108652451075613,-0.0005345070967450738,-0.0011453722836449742
1761132040539615200,8.038615234375,0.0006108652451075613,0.0019089538836851716,0.00007635815563844517
1761132040549615400,8.048615478515625,0.0006108652451075613,0.00007635815563844517,0.0006872233934700489
1761132040559615200,8.058615234375,0.0006108652451075613,0.00007635815563844517,-0.0005345070967450738
1761132040569615000,8.068614990234375,0,0.0006872233934700489,-0.0005345070967450738
1761132040579615200,8.078615234375,-0.0006108652451075613,-0.0005345070967450738,0.00007635815563844517
1761132040589615000,8.088614990234374,0.0006108652451075613,0.00007635815563844517,0.0006872233934700489
1761132040599615200,8.098615234375,0,-0.0011453722836449742,0.0012980886967852712
1761132040609615000,8.108614990234376,0,0.0006872233934700489,0.0012980886967852712
1761132040619614200,8.1186142578125,0.0006108652451075613,0.0012980886967852712,0.0012980886967852712
1761132040629614300,8.1286142578125,0,-0.0005345070967450738,0.00007635815563844517
1761132040639614200,8.1386142578125,0.0006108652451075613,-0.0005345070967450738,-0.0005345070967450738
1761132040649614300,8.1486142578125,-0.0012217304902151227,-0.0017562375869601965,-0.0011453722836449742
1761132040659614200,8.1586142578125,-0.0006108652451075613,-0.0005345070967450738,0.0006872233934700489
1761132040669614000,8.168614013671874,0.0006108652451075613,0.0006872233934700489,0.00007635815563844517
1761132040679613400,8.178613525390626,0.0006108652451075613,-0.0005345070967450738,0.00007635815563844517
1761132040689613600,8.188613525390625,0.0006108652451075613,0.00007635815563844517,0.00007635815563844517
1761132040699613400,8.198613525390625,0,0.00007635815563844517,-0.0005345070967450738
1761132040709613600,8.208613525390625,0.0006108652451075613,0.00007635815563844517,0.00007635815563844517
1761132040719613400,8.218613525390625,-0.0012217304902151227,0.0006872233934700489,0.0006872233934700489
1761132040729613300,8.22861328125,0.0006108652451075613,0.0006872233934700489,0.00007635815563844517
1761132040739613200,8.23861328125,0,-0.0005345070967450738,0.00007635815563844517
1761132040749612800,8.24861279296875,0,-0.0005345070967450738,-0.0005345070967450738
1761132040759612700,8.25861279296875,-0.0006108652451075613,0.00007635815563844517,-0.0005345070967450738
1761132040769612500,8.268612548828125,0.0006108652451075613,0.0006872233934700489,0.00007635815563844517
1761132040779612000,8.27861181640625,0,0.0012980886967852712,0.0012980886967852712
1761132040789611800,8.28861181640625,0.0006108652451075613,0.0006872233934700489,0.00007635815563844517
1761132040799612000,8.29861181640625,-0.0012217304902151227,0.00007635815563844517,0.00007635815563844517
1761132040809611800,8.30861181640625,0,-0.0011453722836449742,-0.0005345070967450738
1761132040819611000,8.31861083984375,-0.0006108652451075613,-0.0005345070967450738,-0.0005345070967450738
1761132040829611000,8.328611083984375,0.0006108652451075613,-0.0005345070967450738,0.00007635815563844517
1761132040839611000,8.33861083984375,0,0.00007635815563844517,0.00007635815563844517
1761132040849611000,8.348611083984375,0.0006108652451075613,0.00007635815563844517,0.0006872233934700489
1761132040859611000,8.35861083984375,0.0006108652451075613,0.0012980886967852712,0.00007635815563844517
1761132040869611000,8.368611083984375,0,0.0006872233934700489,0.0012980886967852712
1761132040879610400,8.3786103515625,0,0.00007635815563844517,0.00007635815563844517
1761132040889609500,8.388609375,0,-0.0011453722836449742,0.00007635815563844517
1761132040899608800,8.39860888671875,0.001832595793530345,0.00007635815563844517,-0.0005345070967450738
1761132040909608400,8.4086083984375,-0.0012217304902151227,0.00007635815563844517,-0.0005345070967450738
1761132040919609300,8.418609375,-0.0006108652451075613,0.00007635815563844517,0.00007635815563844517
1761132040949607400,8.448607421875,0.0006108652451075613,0.0006872233934700489,0.00007635815563844517
1761132040979607600,8.478607666015625,0,-0.0005345070967450738,-0.0005345070967450738
1761132040989607700,8.488607666015625,0.0006108652451075613,-0.0005345070967450738,-0.0005345070967450738
1761132040999607600,8.498607666015625,-0.0006108652451075613,0.00007635815563844517,0.00007635815563844517
1761132041009607400,8.508607421875,0.0006108652451075613,0.0006872233934700489,-0.0005345070967450738
1761132041019607300,8.518607177734374,0,-0.0005345070967450738,0.00007635815563844517
1761132041029608000,8.52860791015625,-0.0006108652451075613,0.00007635815563844517,0.00007635815563844517
1761132041039608800,8.53860888671875,-0.0006108652451075613,-0.0005345070967450738,-0.0005345070967450738
1761132041049609500,8.548609375,0.0012217304902151227,0.00007635815563844517,0.0006872233934700489
1761132041059610000,8.558610107421876,-0.0006108652451075613,0.00007635815563844517,0.0006872233934700489
1761132041069610800,8.56861083984375,-0.0012217304902151227,0.00007635815563844517,0.0006872233934700489
1761132041079612700,8.57861279296875,0.0006108652451075613,0.00007635815563844517,-0.0005345070967450738
1761132041089612500,8.588612548828126,0.001832595793530345,0.00007635815563844517,0.0006872233934700489
1761132041099612400,8.5986123046875,0.0006108652451075613,0.0012980886967852712,0.0006872233934700489
1761132041109612500,8.608612548828125,-0.0006108652451075613,-0.0005345070967450738,-0.0005345070967450738
1761132041119613400,8.618613525390625,-0.0006108652451075613,-0.0005345070967450738,0.00007635815563844517
1761132041129613300,8.62861328125,0,0.00007635815563844517,-0.0017562375869601965
1761132041139613400,8.638613525390625,0.0006108652451075613,0.00007635815563844517,0.00007635815563844517
1761132041149612800,8.64861279296875,0,0.00007635815563844517,-0.0005345070967450738
1761132041159612700,8.65861279296875,0,0.00007635815563844517,0.0006872233934700489
1761132041169612800,8.66861279296875,0,0.00007635815563844517,0.00007635815563844517
1761132041179613400,8.678613525390626,0.0006108652451075613,0.0006872233934700489,-0.0005345070967450738
1761132041189614000,8.688614013671875,0,-0.0005345070967450738,0.00007635815563844517
1761132041199615000,8.698614990234375,0,0.0012980886967852712,-0.0011453722836449742
1761132041209614600,8.708614501953125,0,0.0006872233934700489,0.00007635815563844517
1761132041219613700,8.71861376953125,0.0006108652451075613,0.0006872233934700489,-0.0011453722836449742
1761132041229614600,8.728614501953125,0.0006108652451075613,0.00007635815563844517,0.00007635815563844517
1761132041239615500,8.738615478515625,0.0006108652451075613,-0.0005345070967450738,0.00007635815563844517
1761132041259615500,8.758615478515624,0,-0.0005345070967450738,-0.0005345070967450738
1761132041269616000,8.7686162109375,0.0006108652451075613,0.00007635815563844517,0.0006872233934700489
1761132041279615500,8.778615478515626,-0.0006108652451075613,0.0006872233934700489,0.00007635815563844517
1761132041289615600,8.78861572265625,0.0006108652451075613,-0.0005345070967450738,0.0006872233934700489
1761132041299615500,8.798615478515625,0.0006108652451075613,-0.0005345070967450738,-0.0005345070967450738
1761132041309615600,8.80861572265625,-0.0006108652451075613,-0.0005345070967450738,0.00007635815563844517
1761132041319616300,8.8186162109375,0.0006108652451075613,0.0006872233934700489,-0.0005345070967450738
1761132041329616400,8.828616455078125,-0.0006108652451075613,0.00007635815563844517,-0.0005345070967450738
1761132041339616500,8.838616455078125,0,-0.0011453722836449742,-0.0005345070967450738
1761132041349616400,8.848616455078124,0,0.0006872233934700489,0.0006872233934700489
1761132041359616500,8.858616455078124,0.0006108652451075613,0.00007635815563844517,-0.0011453722836449742
1761132041369616400,8.868616455078126,0.0012217304902151227,0.0006872233934700489,0.00007635815563844517
1761132041379615200,8.878615234375,0.0012217304902151227,0.0012980886967852712,0.00007635815563844517
1761132041389615400,8.888615478515625,-0.0006108652451075613,0.0006872233934700489,0.0006872233934700489
1761132041399615500,8.898615478515625,-0.0006108652451075613,0.00007635815563844517,0.0006872233934700489
1761132041409615400,8.908615478515625,0.0006108652451075613,0.00007635815563844517,0.00007635815563844517
1761132041419614500,8.918614501953124,-0.0006108652451075613,0.00007635815563844517,0.00007635815563844517
1761132041429614600,8.928614501953126,0.0006108652451075613,-0.0005345070967450738,-0.0011453722836449742
1761132041439614500,8.938614501953126,-0.0006108652451075613,-0.0005345070967450738,0.00007635815563844517
1761132041449615000,8.948614990234375,0,0.00007635815563844517,0.00007635815563844517
1761132041459615000,8.958614990234375,0.0006108652451075613,0.00007635815563844517,0.0006872233934700489
1761132041469616000,8.9686162109375,0,0.0006872233934700489,0.00007635815563844517
1761132041479616300,8.9786162109375,0,0.00007635815563844517,0.00007635815563844517
1761132041489616100,8.9886162109375,-0.0012217304902151227,0.00007635815563844517,0.00007635815563844517
1761132041499616000,8.998615966796875,-0.0006108652451075613,0.0012980886967852712,0.00007635815563844517
1761132041509617000,9.008616943359375,-0.0006108652451075613,0.00007635815563844517,0.00007635815563844517
1761132041519617800,9.01861767578125,0,0.0006872233934700489,-0.0011453722836449742
1761132041529617700,9.02861767578125,0.001832595793530345,0.0006872233934700489,0.0006872233934700489
1761132041539617800,9.03861767578125,0,-0.0005345070967450738,-0.0017562375869601965
1761132041549617200,9.0486171875,0.0006108652451075613,0.00007635815563844517,-0.0005345070967450738
1761132041559617000,9.058616943359375,-0.0006108652451075613,0.0006872233934700489,-0.0005345070967450738
1761132041569617000,9.068616943359375,0.0006108652451075613,0.0012980886967852712,-0.0005345070967450738
1761132041579617800,9.07861767578125,0.0006108652451075613,0.00007635815563844517,0.0006872233934700489
1761132041589617700,9.08861767578125,-0.0006108652451075613,0.00007635815563844517,-0.0005345070967450738
1761132041599617800,9.09861767578125,0.0006108652451075613,-0.0005345070967450738,0.0006872233934700489
1761132041609617700,9.10861767578125,0,0.00007635815563844517,0.0019089538836851716
1761132041619616800,9.11861669921875,0.0012217304902151227,0.0006872233934700489,0.0006872233934700489
1761132041629617000,9.128616943359376,-0.0006108652451075613,0.00007635815563844517,-0.0005345070967450738
1761132041639616800,9.13861669921875,0,-0.0005345070967450738,0.0006872233934700489
1761132041649617000,9.148616943359375,-0.0006108652451075613,-0.0005345070967450738,-0.0005345070967450738
1761132041659616800,9.15861669921875,0.0006108652451075613,0.00007635815563844517,0.0006872233934700489
1761132041669617000,9.168616943359375,0,-0.0005345070967450738,0.0006872233934700489
1761132041679616800,9.17861669921875,-0.0006108652451075613,-0.0005345070967450738,0.0006872233934700489
1761132041689616600,9.18861669921875,0,-0.0005345070967450738,0.00007635815563844517
1761132041699616800,9.19861669921875,-0.0012217304902151227,0.0006872233934700489,-0.0005345070967450738
1761132041709616600,9.20861669921875,0,0.0006872233934700489,-0.0005345070967450738
1761132041719617500,9.218617431640626,0,-0.0005345070967450738,-0.0005345070967450738
1761132041729617700,9.22861767578125,-0.0006108652451075613,0.00007635815563844517,0.00007635815563844517
1761132041739617500,9.238617431640625,0,-0.0005345070967450738,0.00007635815563844517
1761132041749617700,9.24861767578125,0.0006108652451075613,0.00007635815563844517,-0.0005345070967450738
1761132041759617500,9.258617431640625,-0.0006108652451075613,0.0006872233934700489,0.0012980886967852712
1761132041769616600,9.26861669921875,0.0006108652451075613,-0.0005345070967450738,0.0006872233934700489
1761132041779616500,9.278616455078126,0,0.00007635815563844517,-0.0005345070967450738
1761132041789615900,9.288615966796876,-0.0006108652451075613,0.00007635815563844517,0.00007635815563844517
1761132041799616000,9.298615966796875,0.0006108652451075613,0.0012980886967852712,0.0006872233934700489
1761132041809616000,9.308615966796875,0.0012217304902151227,0.0006872233934700489,0.0012980886967852712
1761132041819615000,9.318614990234375,0.0006108652451075613,-0.0011453722836449742,0.00007635815563844517
1761132041829614300,9.3286142578125,-0.0006108652451075613,-0.0005345070967450738,0.0006872233934700489
1761132041839614200,9.3386142578125,0.0006108652451075613,0.00007635815563844517,0.0012980886967852712
1761132041849615000,9.348614990234376,-0.0006108652451075613,-0.0005345070967450738,0.0012980886967852712
1761132041859615000,9.358614990234376,-0.0006108652451075613,0.00007635815563844517,-0.0011453722836449742
1761132041869615000,9.368614990234375,-0.0006108652451075613,0.00007635815563844517,-0.0011453722836449742
1761132041879614500,9.378614501953125,0,-0.0005345070967450738,-0.0005345070967450738
1761132041889614300,9.3886142578125,0.0006108652451075613,0.00007635815563844517,0.00007635815563844517
1761132041899614500,9.398614501953125,0,-0.0005345070967450738,0.00007635815563844517
1761132041909614300,9.4086142578125,-0.0006108652451075613,-0.0005345070967450738,0.0006872233934700489
1761132041919615200,9.418615234375,0,0.00007635815563844517,0.0006872233934700489
1761132041929615000,9.428614990234376,0,0.00007635815563844517,0.0006872233934700489
1761132041939615000,9.438614990234376,0.0006108652451075613,0.00007635815563844517,0.00007635815563844517
1761132041949615000,9.448614990234375,-0.0006108652451075613,-0.0005345070967450738,0.0012980886967852712
1761132041959615200,9.458615234375,-0.0012217304902151227,0.00007635815563844517,-0.0005345070967450738
1761132041969615000,9.468614990234375,0,0.00007635815563844517,0.0019089538836851716
1761132041979615200,9.478615234375,0.0006108652451075613,0.0006872233934700489,0.0006872233934700489
1761132041989615000,9.488614990234375,0,-0.0005345070967450738,0.00007635815563844517
1761132041999615200,9.498615234375,0,0.00007635815563844517,0.0006872233934700489
1761132042009615000,9.508614990234374,0.0006108652451075613,-0.0005345070967450738,0.0006872233934700489
1761132042019614200,9.5186142578125,0,-0.0005345070967450738,-0.0011453722836449742
1761132042029614300,9.5286142578125,0,0.00007635815563844517,0.0006872233934700489
1761132042039614200,9.5386142578125,0.0006108652451075613,0.0012980886967852712,0.00007635815563844517
1761132042049614300,9.5486142578125,0.0006108652451075613,-0.0005345070967450738,-0.0005345070967450738
1761132042059614200,9.5586142578125,0,0.0012980886967852712,0.00007635815563844517
1761132042069614300,9.5686142578125,0,0.00007635815563844517,0.00007635815563844517
1761132042079614200,9.5786142578125,0,0.0006872233934700489,-0.0005345070967450738
1761132042089614800,9.58861474609375,-0.0006108652451075613,-0.0005345070967450738,0.00007635815563844517
1761132042099614700,9.59861474609375,-0.0006108652451075613,-0.0005345070967450738,-0.0005345070967450738
1761132042109614800,9.60861474609375,0,0.00007635815563844517,-0.0005345070967450738
1761132042119615700,9.61861572265625,0,0.00007635815563844517,0.0006872233934700489
1761132042129616400,9.628616455078125,-0.0006108652451075613,0.00007635815563844517,0.00007635815563844517
1761132042139616500,9.638616455078125,0,-0.0011453722836449742,-0.0005345070967450738
1761132042149616400,9.648616455078125,-0.0006108652451075613,0.00007635815563844517,-0.0005345070967450738
1761132042159616500,9.658616455078125,0.0006108652451075613,-0.0005345070967450738,0.00007635815563844517
1761132042169616400,9.668616455078125,-0.0006108652451075613,-0.0011453722836449742,-0.0005345070967450738
1761132042179617000,9.678616943359375,0,0.0006872233934700489,0.00007635815563844517
1761132042189617200,9.6886171875,0.0012217304902151227,0.00007635815563844517,-0.0005345070967450738
1761132042199617000,9.698616943359376,-0.0006108652451075613,0.0012980886967852712,-0.0005345070967450738
1761132042209617000,9.708616943359376,0,0.00007635815563844517,0.00007635815563844517
1761132042219616300,9.7186162109375,0.0006108652451075613,-0.0011453722836449742,-0.0005345070967450738
1761132042229616400,9.728616455078125,0.0006108652451075613,-0.0005345070967450738,0.00007635815563844517
1761132042239616300,9.7386162109375,-0.0006108652451075613,0.006795875728130341,0.0037415495608001947
1761132042249616400,9.748616455078125,-0.0006108652451075613,0.12469286471605301,0.05138903856277466
1761132042259616300,9.7586162109375,-0.0006108652451075613,0.07215845584869385,0.03367394581437111
1761132042269616400,9.768616455078124,0.0006108652451075613,0.00007635815563844517,0.0006872233934700489
1761132042279617300,9.7786171875,0,-0.05734497308731079,-0.026190847158432007
1761132042289617400,9.788617431640626,0,-0.08788824081420898,-0.03779728710651398
1761132042299617300,9.7986171875,0.001832595793530345,-0.05367978289723396,-0.020693060010671616
1761132042309617400,9.808617431640625,-0.0006108652451075613,0.014737123623490334,0.0031306843739002943
