time,seconds_elapsed,z,y,x
1761131520734538000,0.1315380859375,0.7649469375610352,0.18694305419921875,-0.5321894288063049
1761131520754538000,0.1515380859375,1.1166391372680664,-0.21200132369995117,-0.4059996008872986
1761131520764538000,0.1615380859375,1.3346004486083984,-0.6109030246734619,-0.13475525379180908
1761131520774538000,0.1715380859375,1.320535659790039,-0.5892188549041748,-0.17462193965911865
1761131520784538000,0.1815380859375,1.5701932907104492,-1.4169540405273438,0.8648539185523987
1761131520794538000,0.1915380859375,1.4005851745605469,-1.6440322399139404,1.1338911056518555
1761131520804538000,0.2015380859375,1.1709651947021484,-1.6981735229492188,1.1825194358825684
1761131520814538000,0.2115380859375,0.8290481567382812,-1.6778230667114258,1.1025960445404053
1761131520824538000,0.2215380859375,0.2930126190185547,-1.6336307525634766,1.0082666873931885
1761131520834538200,0.231538330078125,-0.3733634948730469,-1.5401513576507568,0.9439408779144287
1761131520844538000,0.2415380859375,-0.9995894432067871,-1.4235050678253174,0.933642566204071
1761131520854538200,0.251538330078125,-1.7352614402770996,-1.2941741943359375,0.9517362117767334
1761131520864536000,0.2615361328125,-2.425508975982666,-1.1988940238952637,0.9374051094055176
1761131520874536000,0.271535888671875,-2.961855411529541,-1.1241281032562256,0.7942788600921631
1761131520884536000,0.2815361328125,-3.343533515930176,-1.131312608718872,0.645102322101593
1761131520894536000,0.291535888671875,-3.714838981628418,-1.193403959274292,0.6368681788444519
1761131520904536000,0.3015361328125,-4.044994354248047,-1.3155105113983154,0.7015328407287598
1761131520914536200,0.3115361328125,-4.208700180053711,-1.359177827835083,0.724219799041748
1761131520924536000,0.3215361328125,-4.250983715057373,-1.4189484119415283,0.6741284132003784
1761131520934536200,0.3315361328125,-4.20904541015625,-1.4755299091339111,0.5282623767852783
1761131520944536000,0.3415361328125,-4.083878993988037,-1.5346205234527588,0.4353901743888855
1761131520954536200,0.3515361328125,-3.856748104095459,-1.5358874797821045,0.3715268075466156
1761131520964536000,0.3615361328125,-3.4672493934631348,-1.5158445835113525,0.32209575176239014
1761131520974536200,0.3715361328125,-2.9228944778442383,-1.4607203006744385,0.3002973794937134
1761131520984536000,0.3815361328125,-2.940821647644043,-1.4318430423736572,0.27374404668807983
1761131520994536200,0.3915361328125,-1.656571865081787,-1.4178016185760498,0.14884555339813232
1761131521004536000,0.4015361328125,-1.1480507850646973,-1.4156057834625244,0.12014609575271606
1761131521014536200,0.4115361328125,-0.7187156677246094,-1.374401330947876,0.05712693929672241
1761131521024536000,0.4215361328125,-0.3162107467651367,-1.3098042011260986,0.007499992847442627
1761131521034536200,0.4315361328125,-0.07061290740966797,-1.1935184001922607,-0.1260088086128235
1761131521044536000,0.4415361328125,0.15052127838134766,-1.1132159233093262,-0.27402806282043457
1761131521054536200,0.4515361328125,0.37283992767333984,-0.9713935852050781,-0.42622607946395874
1761131521064535300,0.461535400390625,0.626826286315918,-0.8180525302886963,-0.526459813117981
1761131521074535400,0.471535400390625,0.9133968353271484,-0.619612455368042,-0.5283482074737549
1761131521084535300,0.481535400390625,1.2768383026123047,-0.5750007629394531,-0.3523905873298645
1761131521094535400,0.491535400390625,1.7060565948486328,-0.515873908996582,-0.10549023747444153
1761131521104535300,0.501535400390625,2.0731287002563477,-0.44507455825805664,0.23440693318843842
1761131521114535400,0.511535400390625,2.4130592346191406,-0.27716636657714844,0.5511926412582397
1761131521124535300,0.521535400390625,2.73964786529541,-0.0015501976013183594,0.7624266147613525
1761131521134535400,0.531535400390625,3.3117761611938477,0.2475600242614746,0.9401857852935791
1761131521144535300,0.541535400390625,3.9382858276367188,0.38615989685058594,1.1426509618759155
1761131521154535400,0.551535400390625,4.187291145324707,0.365964412689209,1.3013434410095215
1761131521164536300,0.561536376953125,4.275156021118164,0.20461606979370117,1.6769322156906128
1761131521174536200,0.5715361328125,4.401800155639648,0.11284637451171875,1.8753641843795776
1761131521194536200,0.5915361328125,5.027244567871094,0.31531763076782227,1.7131142616271973
1761131521204536300,0.601536376953125,5.291308403015137,0.24854660034179688,1.6575337648391724
1761131521214536200,0.6115361328125,5.272607803344727,0.021047592163085938,1.702796220779419
1761131521224536300,0.621536376953125,5.237520217895508,-0.34191250801086426,1.795372724533081
1761131521234536200,0.6315361328125,5.007367134094238,-0.6796469688415527,1.9590476751327515
1761131521244536300,0.641536376953125,4.7158002853393555,-0.805588960647583,2.163513422012329
1761131521254536200,0.6515361328125,4.250772476196289,-0.690673828125,2.374140739440918
1761131521264535300,0.661535400390625,3.7733383178710938,-0.45889759063720703,2.711995840072632
1761131521274535400,0.671535400390625,3.1778297424316406,-0.1746821403503418,3.148759603500366
1761131521284535300,0.681535400390625,2.525402069091797,-0.028120994567871094,3.6594815254211426
1761131521294535400,0.691535400390625,1.7836112976074219,-0.06548285484313965,3.9895946979522705
1761131521304535300,0.701535400390625,1.0694751739501953,-0.26854896545410156,3.9961605072021484
1761131521314535400,0.711535400390625,0.48015594482421875,-0.5374088287353516,3.7677621841430664
1761131521324535300,0.721535400390625,-0.1599903106689453,-0.8084309101104736,3.3384501934051514
1761131521334535400,0.731535400390625,-0.44388580322265625,-1.1210920810699463,2.6875712871551514
1761131521344535300,0.741535400390625,-0.24824237823486328,-1.1799545288085938,2.080993175506592
1761131521354535400,0.751535400390625,-0.3438539505004883,-1.2273006439208984,1.4530017375946045
1761131521364536000,0.7615361328125,-0.5411739349365234,-1.4011366367340088,1.1861045360565186
1761131521374536200,0.7715361328125,-0.8192253112792969,-1.6214656829833984,1.0668634176254272
1761131521384536000,0.7815361328125,-1.0217046737670898,-1.6103882789611816,0.9457570314407349
1761131521394536200,0.7915361328125,-1.2118587493896484,-1.298262596130371,0.6945348381996155
1761131521404536000,0.8015361328125,-1.4651155471801758,-1.036895751953125,0.6678833961486816
1761131521414536200,0.8115361328125,-1.780651569366455,-0.9231417179107666,0.8029832243919373
1761131521424536000,0.8215361328125,-2.1561074256896973,-0.9767868518829346,1.0306040048599243
1761131521434536200,0.8315361328125,-2.601527214050293,-1.030872106552124,1.2070114612579346
1761131521444536000,0.8415361328125,-3.0492467880249023,-1.0349760055541992,1.2715346813201904
1761131521454536200,0.8515361328125,-3.4522109031677246,-0.9637181758880615,1.268775463104248
1761131521464535300,0.861535400390625,-3.5051965713500977,-0.8557775020599365,1.098781943321228
1761131521474535200,0.87153515625,-3.358950614929199,-0.7370204925537109,0.9175869226455688
1761131521484535300,0.881535400390625,-3.320465087890625,-0.8131685256958008,0.9339492917060852
1761131521494535200,0.89153515625,-2.9869771003723145,-0.6775949001312256,0.7040050029754639
1761131521504535300,0.901535400390625,-2.9571471214294434,-0.7372171878814697,0.7036465406417847
1761131521514535200,0.91153515625,-2.444716453552246,-0.9677972793579102,1.0324153900146484
1761131521524535300,0.921535400390625,-2.2467265129089355,-0.9668259620666504,1.2423573732376099
1761131521534535200,0.93153515625,-1.9747214317321777,-0.9098522663116455,1.4583649635314941
1761131521544535300,0.941535400390625,-1.7147998809814453,-0.8377325534820557,1.6118683815002441
1761131521554535200,0.95153515625,-1.3425626754760742,-0.7050590515136719,1.589777946472168
1761131521564536000,0.9615361328125,-1.03029203414917,-0.6724543571472168,1.4260330200195312
1761131521574536000,0.971535888671875,-0.9130144119262695,-0.818659782409668,1.1716456413269043
1761131521584536000,0.9815361328125,-0.8693389892578125,-0.9781100749969482,0.8103406429290771
1761131521594536000,0.991535888671875,-0.931612491607666,-0.9871938228607178,0.3348248600959778
1761131521604536000,1.0015361328125,-1.09049654006958,-0.8171792030334473,-0.09996318817138672
1761131521614536000,1.011535888671875,-1.3324904441833496,-0.6827712059020996,-0.36208581924438477
1761131521624535800,1.021535888671875,-1.3308324813842773,-0.5318961143493652,-0.4300694465637207
1761131521634536000,1.031535888671875,-1.0990815162658691,-0.3455533981323242,-0.35697662830352783
1761131521644535800,1.041535888671875,-0.8097167015075684,-0.22183895111083984,-0.20555496215820312
1761131521654536000,1.051535888671875,-0.33376407623291016,-0.1511688232421875,0.025004267692565918
1761131521664535000,1.06153515625,0.17846298217773438,-0.19858694076538086,0.18875420093536377
1761131521674535200,1.07153515625,0.6678800582885742,-0.2488079071044922,0.16912448406219482
1761131521684535000,1.08153515625,1.1233892440795898,-0.24796676635742188,0.15376245975494385
1761131521694535000,1.091534912109375,1.4659309387207031,-0.2113351821899414,0.35299593210220337
1761131521704535000,1.10153515625,1.842020034790039,-0.08939552307128906,0.4889819622039795
1761131521714535000,1.111534912109375,2.1075572967529297,0.23128318786621094,0.4463220238685608
1761131521724535300,1.121535400390625,2.2607498168945312,0.5076255798339844,0.3012368679046631
1761131521734535200,1.13153515625,2.4521560668945312,0.6037263870239258,0.29512572288513184
1761131521744535300,1.141535400390625,2.8085384368896484,0.4648404121398926,0.4026738405227661
1761131521754535200,1.15153515625,2.782118797302246,0.5160832405090332,0.3886253833770752
1761131521764536000,1.1615361328125,2.9292726516723633,-0.22760438919067383,0.7603048086166382
1761131521774536000,1.171535888671875,2.853693962097168,-0.5268423557281494,0.9237229228019714
1761131521784536000,1.1815361328125,2.839524269104004,-0.49808716773986816,0.9165603518486023
1761131521794536000,1.191535888671875,2.467611312866211,-0.4573996067047119,0.8966885209083557
1761131521804536000,1.2015361328125,2.2944488525390625,-0.2426772117614746,0.9244323372840881
1761131521814536000,1.211535888671875,2.223700523376465,-0.04909706115722656,1.125518560409546
1761131521824536000,1.2215361328125,2.3190135955810547,-0.04244375228881836,1.5913947820663452
1761131521834535700,1.23153564453125,2.366879463195801,-0.19203758239746094,2.171640396118164
1761131521844535600,1.24153564453125,2.497633934020996,-0.39153075218200684,2.730055570602417
1761131521854535700,1.25153564453125,2.596714973449707,-0.643836498260498,3.147523880004883
1761131521864534800,1.26153466796875,2.68966007232666,-0.951265811920166,3.409968852996826
1761131521874534700,1.27153466796875,2.708524703979492,-1.2474634647369385,3.479705333709717
1761131521884534800,1.28153466796875,2.5227737426757812,-1.5216519832611084,3.4850146770477295
1761131521894534700,1.29153466796875,2.253816604614258,-1.661426305770874,3.3961262702941895
1761131521904534800,1.30153466796875,1.9632787704467773,-1.7584812641143799,3.116122007369995
1761131521914535000,1.311534912109375,1.6168670654296875,-1.6730825901031494,2.5973000526428223
1761131521924535000,1.32153515625,1.1842012405395508,-1.5024316310882568,2.212953567504883
1761131521934535000,1.331534912109375,0.6918916702270508,-1.415191650390625,2.0173487663269043
1761131521944535000,1.34153515625,0.23124313354492188,-1.2951569557189941,1.9575661420822144
1761131521954535000,1.351534912109375,-0.37926292419433594,-1.2049343585968018,2.021003246307373
1761131521964535800,1.361535888671875,-1.044388771057129,-1.128129482269287,2.123044967651367
1761131521974535700,1.37153564453125,-1.7124619483947754,-1.0178637504577637,2.1204471588134766
1761131521984535800,1.381535888671875,-2.1924471855163574,-0.8589069843292236,1.9921531677246094
1761131521994536000,1.391535888671875,-2.4344749450683594,-0.7105445861816406,1.80105721950531
1761131522004535800,1.401535888671875,-2.5743861198425293,-0.6423616409301758,1.7033259868621826
1761131522014536000,1.411535888671875,-2.5809388160705566,-0.6376159191131592,1.7040469646453857
1761131522024535800,1.421535888671875,-2.48931884765625,-0.7475030422210693,1.857993721961975
1761131522034535700,1.43153564453125,-2.350188732147217,-0.8238351345062256,2.027240514755249
1761131522044535800,1.441535888671875,-2.1536316871643066,-0.9254641532897949,2.125793218612671
1761131522054535700,1.45153564453125,-1.946197509765625,-1.0199246406555176,2.1118950843811035
1761131522064534800,1.46153466796875,-1.8390617370605469,-1.1068429946899414,2.113766670227051
1761131522074535000,1.471534912109375,-1.7806663513183594,-1.1720147132873535,2.0086684226989746
1761131522084534800,1.48153466796875,-1.9158072471618652,-1.2636113166809082,1.8121769428253174
1761131522094535000,1.491534912109375,-2.0948710441589355,-1.2741005420684814,1.376755714416504
1761131522104534800,1.50153466796875,-2.187885284423828,-1.2409780025482178,0.7936419248580933
1761131522114535000,1.511534912109375,-2.2499818801879883,-1.2009618282318115,0.23703384399414062
1761131522124534800,1.52153466796875,-2.3914694786071777,-1.2147715091705322,-0.27055811882019043
1761131522134535200,1.53153515625,-2.475411891937256,-1.2024784088134766,-0.6965452432632446
1761131522144535300,1.541535400390625,-2.420130729675293,-1.0431528091430664,-1.102169156074524
1761131522154535200,1.55153515625,-2.375417709350586,-0.7691407203674316,-1.5051416158676147
1761131522164536300,1.561536376953125,-2.2023086547851562,-0.5841000080108643,-1.681848406791687
1761131522178174500,1.575174560546875,-1.9670133590698242,-0.4454162120819092,-1.6705836057662964
1761131522188174600,1.585174560546875,-1.6662631034851074,-0.3694312572479248,-1.5530532598495483
1761131522198174500,1.595174560546875,-1.258162498474121,-0.33826470375061035,-1.379224419593811
1761131522208174600,1.605174560546875,-0.6973896026611328,-0.40187883377075195,-1.0849955081939697
1761131522218174500,1.615174560546875,-0.11103630065917969,-0.463869571685791,-0.8966189622879028
1761131522228174600,1.625174560546875,0.5834312438964844,-0.3873448371887207,-0.8302124738693237
1761131522238174500,1.635174560546875,0.5553665161132812,-0.3417184352874756,-0.9162062406539917
1761131522248174600,1.645174560546875,1.802372932434082,-0.13855719566345215,-1.0901196002960205
1761131522258174500,1.655174560546875,1.7688283920288086,-0.07172560691833496,-1.1750149726867676
1761131522268173600,1.665173583984375,3.052018165588379,0.06583356857299805,-0.9064705967903137
1761131522278172700,1.675172607421875,3.5660362243652344,0.20640277862548828,-0.5002246499061584
1761131522288172800,1.6851728515625,4.013869285583496,0.4105522632598877,-0.23506170511245728
1761131522298172700,1.695172607421875,4.415300369262695,0.722038745880127,0.052670419216156006
1761131522308172800,1.7051728515625,4.643074035644531,1.0223567485809326,0.32088515162467957
1761131522318172700,1.715172607421875,4.8112077713012695,1.2041609287261963,0.4676278233528137
1761131522328172800,1.7251728515625,5.0146589279174805,1.211122989654541,0.6408292055130005
1761131522338172700,1.735172607421875,4.994281768798828,1.055882453918457,0.7992862462997437
1761131522348172800,1.7451728515625,4.735896110534668,0.704204797744751,1.0592427253723145
1761131522358172700,1.755172607421875,4.381749153137207,0.3603956699371338,1.3516677618026733
1761131522368173600,1.765173583984375,3.9974308013916016,0.1930711269378662,1.4373893737792969
1761131522378173400,1.77517333984375,3.5402841567993164,0.1871323585510254,1.416853427886963
1761131522388173600,1.785173583984375,2.991680145263672,0.26935362815856934,1.4752380847930908
1761131522398173400,1.79517333984375,2.424443244934082,0.41797590255737305,1.587884545326233
1761131522408173600,1.805173583984375,1.9493598937988281,0.5545575618743896,1.6254212856292725
1761131522418173400,1.81517333984375,1.4320049285888672,0.6101081371307373,1.8081817626953125
1761131522428173600,1.825173583984375,0.8568696975708008,0.5455217361450195,2.0150628089904785
1761131522438173400,1.83517333984375,0.26108360290527344,0.3843998908996582,2.284501075744629
1761131522448173600,1.845173583984375,-0.12208080291748047,0.32205820083618164,2.5690383911132812
1761131522458173400,1.85517333984375,-0.4438486099243164,0.29914116859436035,2.7062015533447266
1761131522468172500,1.865172607421875,-0.5689525604248047,0.27926111221313477,2.7485244274139404
1761131522478172700,1.875172607421875,-0.6991519927978516,0.20556092262268066,2.713815689086914
1761131522488172500,1.885172607421875,-0.8350410461425781,-0.013434171676635742,2.556657552719116
1761131522498172400,1.89517236328125,-0.8856906890869141,-0.2530350685119629,2.290679454803467
1761131522508172500,1.905172607421875,-1.027420997619629,-0.4715158939361572,1.994238018989563
1761131522518172400,1.91517236328125,-1.2758269309997559,-0.6429786682128906,1.6901795864105225
1761131522528172500,1.925172607421875,-1.5529184341430664,-0.7656288146972656,1.368461012840271
1761131522538172400,1.93517236328125,-1.8617339134216309,-0.7634479999542236,1.1505053043365479
1761131522548172500,1.945172607421875,-2.223212242126465,-0.789172887802124,1.0600818395614624
1761131522558172400,1.95517236328125,-2.563091278076172,-0.7620406150817871,0.9337296485900879
1761131522578174200,1.97517431640625,-2.837045192718506,-0.6572535037994385,0.7128189206123352
1761131522588174300,1.98517431640625,-2.8661093711853027,-0.6724534034729004,0.6435092091560364
1761131522598174200,1.99517431640625,-2.835690498352051,-0.6518120765686035,0.6545326709747314
1761131522608174300,2.00517431640625,-2.8320388793945312,-0.6279234886169434,0.7793834209442139
1761131522618174200,2.01517431640625,-2.8172383308410645,-0.5729684829711914,0.8616568446159363
1761131522628174300,2.02517431640625,-2.7629847526550293,-0.5226378440856934,0.8953317999839783
1761131522638174200,2.03517431640625,-2.7609424591064453,-0.5428082942962646,0.8744792342185974
1761131522648174300,2.04517431640625,-2.80181884765625,-0.5198426246643066,0.9144377708435059
1761131522658174200,2.05517431640625,-2.791513442993164,-0.5107183456420898,0.9570242762565613
1761131522668173600,2.065173583984375,-2.7005577087402344,-0.47621822357177734,0.9667320251464844
1761131522678173400,2.07517333984375,-2.6439990997314453,-0.42439842224121094,0.9360821843147278
1761131522688173600,2.085173583984375,-2.5060482025146484,-0.3804032802581787,0.8715315461158752
1761131522698173400,2.09517333984375,-2.2862472534179688,-0.31986236572265625,0.7526851892471313
1761131522708173600,2.105173583984375,-1.9564332962036133,-0.26297950744628906,0.6081057190895081
1761131522718173400,2.11517333984375,-1.7154908180236816,-0.2501485347747803,0.4396821856498718
1761131522748173300,2.14517333984375,-0.9834175109863281,-0.3094320297241211,0.06796526908874512
1761131522768174300,2.16517431640625,-0.6613006591796875,0.06928682327270508,-0.30659741163253784
1761131522778174200,2.17517431640625,-0.5301980972290039,0.27247142791748047,-0.5690978765487671
1761131522788174300,2.18517431640625,-0.30861473083496094,0.44565343856811523,-0.8286799788475037
1761131522798174200,2.19517431640625,-0.12364578247070312,0.6485805511474609,-1.079847812652588
1761131522808174000,2.205174072265625,0.05307579040527344,0.8523497581481934,-1.3461564779281616
1761131522818174200,2.21517431640625,0.23141193389892578,1.0250320434570312,-1.5413684844970703
1761131522828173600,2.225173583984375,0.4494028091430664,1.168529987335205,-1.6058361530303955
1761131522838173400,2.23517333984375,0.6731328964233398,1.3887848854064941,-1.6192984580993652
1761131522848173600,2.245173583984375,0.8485136032104492,1.6591501235961914,-1.5871005058288574
1761131522858173400,2.25517333984375,1.1244621276855469,1.9255213737487793,-1.5757651329040527
1761131522878172700,2.275172607421875,1.659799575805664,2.4530458450317383,-1.671379566192627
1761131522888172800,2.2851728515625,2.223245620727539,2.7269582748413086,-1.7584187984466553
1761131522908172800,2.3051728515625,3.7804946899414062,2.790823459625244,-1.4072842597961426
1761131522918172700,2.315172607421875,4.538626670837402,2.5880861282348633,-1.1144208908081055
1761131522928172800,2.3251728515625,5.228471755981445,2.1741816997528076,-0.7658949494361877
1761131522938172700,2.335172607421875,5.779472351074219,1.5320541858673096,-0.32826998829841614
1761131522948172800,2.3451728515625,6.012269020080566,0.8951277732849121,0.028844982385635376
1761131522958172700,2.355172607421875,5.858412742614746,0.29271554946899414,0.38780105113983154
1761131522968173600,2.365173583984375,5.137969017028809,-0.09772729873657227,0.7766209244728088
1761131522978173400,2.37517333984375,4.232867240905762,-0.2653536796569824,1.008644461631775
1761131522988173600,2.385173583984375,3.228610038757324,-0.08074116706848145,0.8463695645332336
1761131522998173400,2.39517333984375,2.3214759826660156,0.37755775451660156,0.4005294442176819
1761131523008173600,2.405173583984375,1.4540901184082031,0.9161314964294434,-0.04054857790470123
1761131523018173400,2.41517333984375,0.764430046081543,1.3488614559173584,-0.5188010334968567
1761131523028173000,2.425173095703125,0.38927268981933594,1.5170941352844238,-0.8067062497138977
1761131523038173200,2.435173095703125,0.203155517578125,1.5143566131591797,-1.0397964715957642
1761131523048173000,2.445173095703125,0.12542438507080078,1.2226147651672363,-1.076706886291504
1761131523058173200,2.455173095703125,0.21095561981201172,0.7170686721801758,-0.7226303815841675
1761131523068172500,2.465172607421875,0.30793190002441406,0.0628199577331543,-0.19497621059417725
1761131523078172400,2.47517236328125,0.41422367095947266,-0.6220846176147461,0.4139893651008606
1761131523088172500,2.485172607421875,0.41629981994628906,-1.1120710372924805,0.7438295483589172
1761131523098172400,2.49517236328125,0.3057098388671875,-1.4604461193084717,0.8976949453353882
1761131523108172500,2.505172607421875,0.1956501007080078,-1.6177096366882324,0.9389607906341553
1761131523118172400,2.51517236328125,-0.040164947509765625,-1.661362648010254,0.9086629152297974
1761131523128173300,2.52517333984375,-0.4773588180541992,-1.661458969116211,0.7046760320663452
1761131523138173200,2.535173095703125,-0.9955563545227051,-1.7229547500610352,0.5026265978813171
1761131523148173300,2.54517333984375,-1.522447109222412,-1.7628297805786133,0.36233943700790405
1761131523158173200,2.555173095703125,-2.0621395111083984,-1.8487567901611328,0.3502095341682434
1761131523168174000,2.565174072265625,-2.5567188262939453,-1.8873858451843262,0.30627530813217163
1761131523178174000,2.575174072265625,-2.971280574798584,-1.8998703956604004,0.2556975185871124
1761131523188174000,2.585174072265625,-3.2889022827148438,-1.814302682876587,0.14605127274990082
1761131523198174200,2.59517431640625,-3.49423885345459,-1.678189754486084,-0.04297463595867157
1761131523208174000,2.605174072265625,-3.622483730316162,-1.6202960014343262,-0.19550560414791107
1761131523218174000,2.615174072265625,-3.7110228538513184,-1.628774642944336,-0.3190891742706299
1761131523228174000,2.625174072265625,-3.701559543609619,-1.65390944480896,-0.4315398335456848
1761131523238174000,2.635174072265625,-3.699882984161377,-1.6511552333831787,-0.5288304090499878
1761131523248174000,2.645174072265625,-3.6545605659484863,-1.647820234298706,-0.5865252017974854
1761131523258174000,2.655174072265625,-3.4796996116638184,-1.5806777477264404,-0.6136885285377502
1761131523268173300,2.66517333984375,-3.2673420906066895,-1.5159592628479004,-0.6507791876792908
1761131523278173200,2.675173095703125,-2.967390537261963,-1.500692367553711,-0.724460244178772
1761131523288173300,2.68517333984375,-2.9630837440490723,-1.508181095123291,-0.7777133584022522
1761131523298173200,2.695173095703125,-1.9184837341308594,-1.3658883571624756,-0.9102163314819336
1761131523308173300,2.70517333984375,-1.1017932891845703,-1.2903330326080322,-1.0334346294403076
1761131523318173200,2.715173095703125,-0.4398775100708008,-1.2762844562530518,-1.1261574029922485
1761131523328173600,2.725173583984375,0.116912841796875,-1.2929694652557373,-1.0803954601287842
1761131523338173700,2.735173583984375,0.5587930679321289,-1.2795078754425049,-0.9957011938095093
1761131523348140300,2.745140380859375,0.8135471343994141,-1.2589962482452393,-0.9382685422897339
1761131523358107100,2.755107177734375,1.0306835174560547,-1.1886470317840576,-0.936213493347168
1761131523368074500,2.765074462890625,1.115060806274414,-1.0441076755523682,-1.0479435920715332
1761131523378041000,2.775041015625,1.1769218444824219,-0.7662510871887207,-1.206065058708191
1761131523388007700,2.785007568359375,1.1023054122924805,-0.5013284683227539,-1.3335821628570557
1761131523397974300,2.794974365234375,1.1157722473144531,-0.27910470962524414,-1.5219037532806396
1761131523407941000,2.804941162109375,1.345881462097168,-0.12888145446777344,-1.7036805152893066
1761131523417907700,2.81490771484375,1.6238288879394531,-0.013427734375,-1.9339118003845215
1761131523427874300,2.824874267578125,1.9184083938598633,0.07365703582763672,-2.1410768032073975
1761131523437841200,2.834841064453125,2.1187801361083984,0.10108613967895508,-2.2290568351745605
1761131523447807700,2.844807861328125,2.312394142150879,0.08394050598144531,-2.275237560272217
1761131523457774300,2.8547744140625,2.6720571517944336,0.0804901123046875,-2.2530517578125
1761131523467740200,2.864740234375,3.2198686599731445,0.21764516830444336,-2.238116502761841
1761131523477706800,2.874706787109375,3.8048276901245117,0.21115875244140625,-2.050063133239746
1761131523487673600,2.884673583984375,4.210792541503906,0.02543354034423828,-1.785111665725708
1761131523497640200,2.89464013671875,4.535890579223633,-0.3546476364135742,-1.5344805717468262
1761131523507606800,2.904606689453125,4.634014129638672,-0.6916089057922363,-1.3550974130630493
1761131523517573400,2.914573486328125,4.6386213302612305,-0.8607709407806396,-1.3136425018310547
1761131523527540200,2.924540283203125,4.617238998413086,-0.9839510917663574,-1.318010687828064
1761131523537506800,2.9345068359375,4.371425628662109,-1.0973882675170898,-1.3640347719192505
1761131523547473400,2.944473388671875,4.009374618530273,-1.2944977283477783,-1.527005672454834
1761131523557440300,2.954440185546875,3.5744667053222656,-1.4336376190185547,-1.7397876977920532
1761131523567407600,2.96440771484375,2.9885730743408203,-1.5115666389465332,-1.9854040145874023
1761131523577374200,2.974374267578125,2.3914194107055664,-1.5555596351623535,-2.03939151763916
1761131523587341000,2.984341064453125,1.7465267181396484,-1.6680519580841064,-1.8850406408309937
1761131523597307600,2.9943076171875,1.2557811737060547,-1.7952797412872314,-1.581797480583191
1761131523607274200,3.004274169921875,0.7904319763183594,-1.956237554550171,-1.1740422248840332
1761131523617241000,3.014240966796875,0.4067068099975586,-2.083320140838623,-0.7757527232170105
1761131523627207700,3.024207763671875,0.22838401794433594,-2.091372489929199,-0.4407077431678772
1761131523637174300,3.03417431640625,0.1020355224609375,-2.027850389480591,-0.14527380466461182
1761131523647174400,3.04417431640625,-0.15050888061523438,-1.9847142696380615,0.14415454864501953
1761131523657174300,3.05417431640625,-0.4319295883178711,-2.0327107906341553,0.42360734939575195
1761131523667173400,3.06417333984375,-0.8120622634887695,-2.0997095108032227,0.6330664157867432
1761131523677173500,3.074173583984375,-1.2865166664123535,-2.0832204818725586,0.7811359167098999
1761131523687173400,3.08417333984375,-1.7862043380737305,-1.9684455394744873,0.8424328565597534
1761131523697173500,3.094173583984375,-2.285430908203125,-1.7661423683166504,0.8475863933563232
1761131523707173400,3.10417333984375,-2.736548900604248,-1.5023572444915771,0.8075079917907715
1761131523717173500,3.114173583984375,-3.124612331390381,-1.3326354026794434,0.7104241847991943
1761131523727173400,3.12417333984375,-3.428370952606201,-1.2277908325195312,0.5336194038391113
1761131523737173500,3.134173583984375,-3.506485939025879,-1.1279737949371338,0.28285300731658936
1761131523747173400,3.14417333984375,-3.1978678703308105,-0.9692208766937256,-0.1364765167236328
1761131523757173500,3.154173583984375,-2.9008641242980957,-0.8728318214416504,-0.5519788265228271
1761131523767174100,3.164174072265625,-2.647494316101074,-0.8218793869018555,-0.8942411541938782
1761131523777174300,3.17417431640625,-2.5422868728637695,-0.8655436038970947,-0.8303447961807251
1761131523787174400,3.18417431640625,-2.396252155303955,-0.8970987796783447,-0.5698035955429077
1761131523797174300,3.19417431640625,-2.094944953918457,-0.8212916851043701,-0.4286971986293793
1761131523807174400,3.20417431640625,-1.5671882629394531,-0.6353797912597656,-0.5203654170036316
1761131523817174300,3.21417431640625,-0.847233772277832,-0.42683982849121094,-0.75244140625
1761131523827174400,3.22417431640625,-0.21475982666015625,-0.32575035095214844,-0.8777449131011963
1761131523837174300,3.23417431640625,0.240570068359375,-0.3751087188720703,-0.7821387052536011
1761131523847174400,3.24417431640625,0.615910530090332,-0.4602351188659668,-0.5126508474349976
1761131523857174300,3.25417431640625,0.8331899642944336,-0.49957799911499023,-0.2578330338001251
1761131523867173400,3.26417333984375,1.0696468353271484,-0.48935961723327637,-0.1451984941959381
1761131523877173500,3.274173583984375,1.4730968475341797,-0.3605971336364746,-0.1705428957939148
1761131523887173400,3.28417333984375,1.7778854370117188,-0.2118840217590332,-0.3086969256401062
1761131523897173500,3.294173583984375,2.0220842361450195,-0.11179113388061523,-0.40302127599716187
1761131523907173400,3.30417333984375,2.1164731979370117,-0.06856298446655273,-0.47394466400146484
1761131523917173500,3.314173583984375,2.086615562438965,-0.00841665267944336,-0.4952310621738434
1761131523927173000,3.324173095703125,1.9548187255859375,0.13686084747314453,-0.5103462338447571
1761131523937173000,3.334173095703125,1.737961769104004,0.28859424591064453,-0.5223712921142578
1761131523947173000,3.344173095703125,1.526275634765625,0.3939042091369629,-0.5338165163993835
1761131523957173000,3.354173095703125,1.3493776321411133,0.530789852142334,-0.5277614593505859
1761131523967174000,3.364173828125,1.2491083145141602,0.5661230087280273,-0.555351972579956
1761131523977174000,3.374174072265625,1.1834716796875,0.46494483947753906,-0.4954078197479248
1761131523987174000,3.384173828125,1.0987205505371094,0.2872161865234375,-0.3512739837169647
1761131523997174000,3.394174072265625,1.034745216369629,0.09407567977905273,-0.10336118936538696
1761131524007174000,3.404173828125,0.8181724548339844,-0.020458221435546875,0.0021780729293823242
1761131524017174000,3.414174072265625,0.4722433090209961,-0.07345294952392578,0.10270452499389648
1761131524027174000,3.424173828125,0.19201087951660156,0.018925189971923828,0.06560522317886353
1761131524037174000,3.434174072265625,0.19873523712158203,0.0035691261291503906,0.07696533203125
1761131524047174000,3.444173828125,0.36734867095947266,0.6788911819458008,-0.612818717956543
1761131524057174000,3.454174072265625,0.3631143569946289,0.675804615020752,-0.5498766899108887
1761131524067173000,3.464173095703125,0.5656232833862305,0.6356935501098633,-1.3808958530426025
1761131524077173000,3.474173095703125,0.7515420913696289,0.4897456169128418,-1.655472993850708
1761131524087173000,3.484173095703125,1.0135135650634766,0.48540735244750977,-1.9692034721374512
1761131524097173000,3.494173095703125,1.3356971740722656,0.5816187858581543,-2.2951364517211914
1761131524107173000,3.504173095703125,1.6805248260498047,0.5998806953430176,-2.465296506881714
1761131524117173000,3.514173095703125,1.9373407363891602,0.5267543792724609,-2.5383973121643066
1761131524127172900,3.5241728515625,2.033945083618164,0.43021535873413086,-2.4545936584472656
1761131524137173000,3.534173095703125,1.9443120956420898,0.31902456283569336,-2.320240020751953
1761131524147172900,3.5441728515625,1.809814453125,0.21844100952148438,-2.2047595977783203
1761131524157173000,3.554173095703125,1.692413330078125,0.21515893936157227,-2.1303367614746094
1761131524167174000,3.564173828125,1.524587631225586,0.3225727081298828,-2.1341359615325928
1761131524177173800,3.574173828125,1.4061737060546875,0.21709108352661133,-2.1299476623535156
1761131524187174000,3.584173828125,1.1908760070800781,-0.0500941276550293,-2.124241828918457
1761131524197173800,3.594173828125,0.9745540618896484,-0.3493657112121582,-2.1551167964935303
1761131524207174000,3.604173828125,0.8315906524658203,-0.653956413269043,-2.246408462524414
1761131524217173800,3.614173828125,0.8459596633911133,-0.6733360290527344,-2.3328373432159424
1761131524227174100,3.624174072265625,0.6109189987182617,-1.234673023223877,-2.4400808811187744
1761131524237174300,3.63417431640625,0.49332714080810547,-1.544424057006836,-2.448416233062744
1761131524247174100,3.644174072265625,0.4715137481689453,-1.8667662143707275,-2.416029930114746
1761131524257174300,3.65417431640625,0.46628284454345703,-2.1289806365966797,-2.332935333251953
1761131524267173400,3.66417333984375,0.5036535263061523,-2.2684714794158936,-2.2066726684570312
1761131524277173500,3.674173583984375,0.6237316131591797,-2.194647789001465,-2.087099075317383
1761131524287173400,3.68417333984375,0.7084789276123047,-2.0230612754821777,-1.9543700218200684
1761131524297173500,3.694173583984375,0.671483039855957,-1.8846070766448975,-1.8002128601074219
1761131524307173400,3.70417333984375,0.5008726119995117,-1.7960760593414307,-1.669701337814331
1761131524317173500,3.714173583984375,0.30457305908203125,-1.7560603618621826,-1.5685288906097412
1761131524327173400,3.72417333984375,0.013936996459960938,-1.7466299533843994,-1.6845004558563232
1761131524337173500,3.734173583984375,-0.25609302520751953,-1.676445484161377,-1.9589892625808716
1761131524347173400,3.74417333984375,-0.5151190757751465,-1.5580658912658691,-2.422262191772461
1761131524357173500,3.754173583984375,-0.7265477180480957,-1.4731791019439697,-2.7804818153381348
1761131524376419300,3.77341943359375,-1.0119576454162598,-1.2271699905395508,-3.2868878841400146
1761131524386419500,3.78341943359375,-1.0935554504394531,-1.04225754737854,-3.3828256130218506
1761131524396419300,3.79341943359375,-1.1120638847351074,-0.9094600677490234,-3.3500595092773438
1761131524406419500,3.80341943359375,-1.0570597648620605,-0.804079532623291,-3.2830111980438232
1761131524416419300,3.81341943359375,-0.8267827033996582,-0.6758012771606445,-3.2692368030548096
1761131524426419500,3.82341943359375,-0.5050244331359863,-0.4849214553833008,-3.4940762519836426
1761131524436419300,3.83341943359375,-0.1001424789428711,-0.36136913299560547,-3.820949077606201
1761131524456419300,3.85341943359375,0.6444330215454102,-0.2903327941894531,-4.179506778717041
1761131524466418400,3.86341845703125,0.9312653541564941,-0.24632644653320312,-4.167627811431885
1761131524476418600,3.87341845703125,1.1989541053771973,-0.14059066772460938,-4.046358585357666
1761131524486418400,3.88341845703125,1.336247444152832,-0.0585017204284668,-3.924483060836792
1761131524496418600,3.89341845703125,1.44903564453125,0.027862071990966797,-3.9158716201782227
1761131524506418400,3.90341845703125,1.799222469329834,0.2382493019104004,-4.3278303146362305
1761131524516418600,3.91341845703125,2.429501533508301,0.7511777877807617,-5.218059062957764
1761131524526418400,3.92341845703125,3.2110953330993652,1.1279911994934082,-5.991058349609375
1761131524536418600,3.93341845703125,3.218595504760742,1.1752843856811523,-6.059661865234375
1761131524546418400,3.94341845703125,4.465113162994385,0.3508462905883789,-5.575672149658203
1761131524556418600,3.95341845703125,4.742401123046875,-0.41968202590942383,-4.459646701812744
1761131524566419200,3.963419189453125,4.7815680503845215,-0.7263028621673584,-3.5258688926696777
1761131524576419300,3.97341943359375,4.639660358428955,-0.7079617977142334,-2.861431121826172
1761131524586419200,3.983419189453125,4.30640983581543,-0.49495363235473633,-2.5933985710144043
1761131524596419300,3.99341943359375,3.764285087585449,-0.1516270637512207,-2.6758008003234863
1761131524606419200,4.003419189453125,3.1033787727355957,0.26536130905151367,-2.8671746253967285
1761131524616419300,4.01341943359375,2.435659408569336,0.6668853759765625,-3.044013500213623
1761131524626419500,4.02341943359375,1.9119009971618652,0.8255176544189453,-3.284012794494629
1761131524636419300,4.03341943359375,1.6117491722106934,0.6673703193664551,-3.5206286907196045
1761131524646419500,4.04341943359375,1.4001669883728027,0.2871713638305664,-3.748816967010498
1761131524656419300,4.05341943359375,1.323918342590332,-0.012511253356933594,-4.019587516784668
1761131524666418400,4.06341845703125,1.3051104545593262,-0.2960686683654785,-4.099379539489746
1761131524676418600,4.07341845703125,1.3392295837402344,-0.6384215354919434,-3.8926944732666016
1761131524686418400,4.08341845703125,1.3802523612976074,-1.1549131870269775,-3.5782835483551025
1761131524696418600,4.09341845703125,1.3530044555664062,-1.5780043601989746,-3.2837376594543457
1761131524706418400,4.10341845703125,1.2753205299377441,-1.928478717803955,-3.012600898742676
1761131524716418600,4.11341845703125,1.2804508209228516,-2.0895941257476807,-2.739591598510742
1761131524726418400,4.12341845703125,1.3330769538879395,-2.1177918910980225,-2.527439594268799
1761131524736418300,4.133418212890625,1.379197120666504,-2.067739486694336,-2.373685121536255
1761131524746418400,4.14341845703125,1.4345779418945312,-1.9755358695983887,-2.253526449203491
1761131524756418300,4.153418212890625,1.3495025634765625,-1.992384433746338,-2.1769156455993652
1761131524766419200,4.163419189453125,1.115250587463379,-2.0097837448120117,-2.121270179748535
1761131524776419300,4.17341943359375,0.8164067268371582,-1.937060832977295,-2.082958221435547
1761131524786419200,4.183419189453125,0.7765631675720215,-1.9011614322662354,-2.0439038276672363
1761131524796419300,4.19341943359375,0.0919961929321289,-1.6138625144958496,-1.9051227569580078
1761131524806419200,4.203419189453125,-0.25379419326782227,-1.3326585292816162,-1.8873777389526367
1761131524816419300,4.21341943359375,-0.4345097541809082,-1.0074541568756104,-1.8531055450439453
1761131524826419500,4.22341943359375,-0.5939798355102539,-0.7522625923156738,-1.893514633178711
1761131524836419300,4.23341943359375,-0.6105670928955078,-0.5890083312988281,-1.985642671585083
1761131524846419500,4.24341943359375,-0.5609450340270996,-0.44116783142089844,-2.0381886959075928
1761131524856419300,4.25341943359375,-0.5837483406066895,-0.4357285499572754,-1.998779058456421
1761131524866418400,4.26341845703125,-0.483367919921875,-0.3105781078338623,-1.8552963733673096
1761131524876418600,4.27341845703125,-0.3094792366027832,-0.24706816673278809,-1.7915914058685303
1761131524886418400,4.28341845703125,0.08410263061523438,-0.17548918724060059,-1.846465826034546
1761131524896418600,4.29341845703125,0.5192928314208984,-0.11036348342895508,-1.8764536380767822
1761131524906418400,4.30341845703125,0.931427001953125,-0.08091974258422852,-1.895148754119873
1761131524916418600,4.31341845703125,1.3644437789916992,-0.10736274719238281,-2.0083303451538086
1761131524926418400,4.32341845703125,1.9844627380371094,-0.12167930603027344,-2.1469008922576904
1761131524936418600,4.33341845703125,2.4866724014282227,-0.1679091453552246,-2.253457546234131
1761131524946418400,4.34341845703125,2.986922264099121,-0.2185227870941162,-2.2862250804901123
1761131524956418600,4.35341845703125,3.3991146087646484,-0.3473694324493408,-2.15157413482666
1761131524966419500,4.36341943359375,3.714053153991699,-0.5134246349334717,-1.9064301252365112
1761131524976419300,4.37341943359375,3.7725791931152344,-0.6588208675384521,-1.4725680351257324
1761131524986419500,4.38341943359375,3.59719181060791,-0.7637207508087158,-1.0770347118377686
1761131524996419300,4.39341943359375,3.264040946960449,-0.8281123638153076,-0.7089545726776123
1761131525006419500,4.40341943359375,2.9546546936035156,-0.8029236793518066,-0.502044677734375
1761131525016419300,4.41341943359375,2.7651195526123047,-0.7287886142730713,-0.45595407485961914
1761131525026419500,4.42341943359375,2.5261640548706055,-0.6361353397369385,-0.5433146953582764
1761131525036419300,4.43341943359375,2.13559627532959,-0.5839354991912842,-0.7185957431793213
1761131525046419500,4.44341943359375,1.7691221237182617,-0.4701054096221924,-0.9832921028137207
1761131525056419300,4.45341943359375,1.3719482421875,-0.3045830726623535,-1.2176580429077148
1761131525066418400,4.46341845703125,1.0658893585205078,-0.19017696380615234,-1.3423017263412476
1761131525076418600,4.47341845703125,0.9221553802490234,-0.06879997253417969,-1.409510612487793
1761131525096418600,4.49341845703125,0.5222949981689453,-0.4972727298736572,-1.0688371658325195
1761131525106418400,4.50341845703125,0.29827880859375,-0.7223069667816162,-0.8438923358917236
1761131525116418600,4.51341845703125,0.2805061340332031,-0.7479543685913086,-0.758112907409668
1761131525126418400,4.52341845703125,-0.01977062225341797,-0.5583879947662354,-0.8272416591644287
1761131525136418600,4.53341845703125,0.01883983612060547,-0.2816765308380127,-0.9634718894958496
1761131525146418400,4.54341845703125,0.107025146484375,0.021713972091674805,-1.0417799949645996
1761131525156418600,4.55341845703125,0.19779396057128906,0.2742502689361572,-1.0379589796066284
1761131525166419200,4.563419189453125,0.26119327545166016,0.43214893341064453,-0.9054120779037476
1761131525176419300,4.57341943359375,0.21402931213378906,0.6120212078094482,-0.7683347463607788
1761131525186419200,4.583419189453125,0.15993881225585938,0.832937479019165,-0.6809669733047485
1761131525196419300,4.59341943359375,0.1367778778076172,1.086836338043213,-0.676507830619812
1761131525206419200,4.603419189453125,0.1029500961303711,1.3127682209014893,-0.5793681144714355
1761131525216419300,4.61341943359375,0.004488945007324219,1.4252638816833496,-0.3145970106124878
1761131525226419200,4.623419189453125,-0.28752994537353516,1.4060237407684326,0.16434454917907715
1761131525236419300,4.63341943359375,-0.749506950378418,1.3558897972106934,0.7080409526824951
1761131525246419200,4.643419189453125,-1.0422263145446777,1.3647370338439941,0.81626296043396
1761131525256419300,4.65341943359375,-0.9909200668334961,1.3234035968780518,0.6045641899108887
1761131525266418400,4.66341845703125,-1.0198678970336914,1.0461246967315674,0.41241681575775146
1761131525276418600,4.67341845703125,-1.2165226936340332,0.7191104888916016,0.1904439926147461
1761131525286418400,4.68341845703125,-1.477614402770996,0.4908151626586914,0.17678868770599365
1761131525296418300,4.693418212890625,-1.7815074920654297,0.319868803024292,0.230912446975708
1761131525306418400,4.70341845703125,-1.808262825012207,0.1820838451385498,0.1551358699798584
1761131525316418300,4.713418212890625,-1.724100112915039,0.2777554988861084,0.015529513359069824
1761131525326418400,4.72341845703125,-1.1655082702636719,0.4596738815307617,-0.3377949595451355
1761131525336418300,4.733418212890625,-0.3963155746459961,0.6224133968353271,-0.4744868874549866
1761131525346418400,4.74341845703125,0.011212348937988281,0.568023681640625,-0.402854323387146
1761131525356418300,4.753418212890625,0.09745597839355469,0.4543120861053467,-0.004950046539306641
1761131525366419200,4.763419189453125,-0.0034990310668945312,0.3276243209838867,0.5370551347732544
1761131525376419300,4.77341943359375,-0.1035909652709961,0.42455196380615234,0.7947518825531006
1761131525386419200,4.783419189453125,0.009008407592773438,0.6631548404693604,0.6540536880493164
1761131525396419300,4.79341943359375,0.3504915237426758,0.8410165309906006,0.2836252450942993
1761131525406419200,4.803419189453125,0.499847412109375,0.9066193103790283,-0.041237711906433105
1761131525416419300,4.81341943359375,0.397247314453125,0.8210840225219727,-0.09777361154556274
1761131525426419200,4.823419189453125,0.14058876037597656,0.7521543502807617,0.12953156232833862
1761131525436419300,4.83341943359375,-0.1965198516845703,0.7669436931610107,0.4424974322319031
1761131525446419200,4.843419189453125,-0.5480585098266602,0.9562058448791504,0.5970266461372375
1761131525456419300,4.85341943359375,-0.5438499450683594,1.1021366119384766,0.4644473195075989
1761131525466418400,4.86341845703125,-0.3499574661254883,1.191211462020874,0.20554649829864502
1761131525476418300,4.873418212890625,-0.17762374877929688,1.282005786895752,0.18040859699249268
1761131525486418400,4.88341845703125,-0.03204822540283203,1.184915542602539,0.33656105399131775
1761131525496418300,4.893418212890625,0.1895608901977539,0.9807538986206055,0.5304687023162842
1761131525506418400,4.90341845703125,0.36469364166259766,0.8464751243591309,0.5268282294273376
1761131525516418300,4.913418212890625,0.505955696105957,0.8183386325836182,0.3538913130760193
1761131525526418400,4.92341845703125,0.6783466339111328,0.8618550300598145,0.14345383644104004
1761131525536418300,4.933418212890625,0.759852409362793,0.9771413803100586,0.11070352792739868
1761131525546418400,4.94341845703125,0.762425422668457,0.896265983581543,0.30684611201286316
1761131525556418300,4.953418212890625,0.7696733474731445,0.6843414306640625,0.7536375522613525
1761131525566419200,4.963419189453125,0.9223079681396484,0.5799078941345215,1.0746885538101196
1761131525576419000,4.973419189453125,0.9537973403930664,0.5972082614898682,1.0806641578674316
1761131525586419200,4.983419189453125,1.0412025451660156,0.5207235813140869,0.9685381650924683
1761131525596419300,4.99341943359375,1.1227054595947266,0.35593247413635254,0.7264317274093628
1761131525606419200,5.003419189453125,1.2563037872314453,0.28818511962890625,0.4247528910636902
1761131525616419300,5.01341943359375,1.3869943618774414,0.28904175758361816,0.1493445336818695
1761131525626419200,5.023419189453125,1.4694223403930664,0.31531596183776855,0.08430106937885284
1761131525636419300,5.03341943359375,1.5777654647827148,0.3910646438598633,0.16023725271224976
1761131525646419200,5.043419189453125,1.7355670928955078,0.49100303649902344,0.3004465103149414
1761131525656419300,5.05341943359375,1.8375587463378906,0.5023276805877686,0.5539206862449646
1761131525666418400,5.06341845703125,1.8770074844360352,0.40216708183288574,0.7779406905174255
1761131525676418300,5.073418212890625,1.8642444610595703,0.15957903861999512,0.9682567715644836
1761131525686418400,5.08341845703125,1.665994644165039,-0.05298781394958496,1.0260082483291626
1761131525696418300,5.093418212890625,1.3478431701660156,-0.24776530265808105,1.0484079122543335
1761131525706418400,5.10341845703125,0.9847850799560547,-0.3167886734008789,1.0736515522003174
1761131525716418300,5.113418212890625,0.5962429046630859,-0.26309704780578613,1.1004040241241455
1761131525726418400,5.12341845703125,0.04537773132324219,-0.18837738037109375,1.1658289432525635
1761131525736418300,5.133418212890625,-0.5220003128051758,-0.120452880859375,1.1741943359375
1761131525746418400,5.14341845703125,-0.8953781127929688,-0.013754129409790039,0.9979092478752136
1761131525756418300,5.153418212890625,-1.179081916809082,0.10670757293701172,0.7533910274505615
1761131525766419200,5.163419189453125,-1.4145798683166504,0.2043600082397461,0.5035949349403381
1761131525776419300,5.17341943359375,-1.5470585823059082,0.2603285312652588,0.35802018642425537
1761131525786419200,5.183419189453125,-1.5933618545532227,0.29619336128234863,0.2876338064670563
1761131525796419300,5.19341943359375,-1.5584421157836914,0.32183027267456055,0.33876726031303406
1761131525806419200,5.203419189453125,-1.504589557647705,0.32770776748657227,0.37504321336746216
1761131525816419300,5.21341943359375,-1.4193801879882812,0.31991124153137207,0.3722618818283081
1761131525826419500,5.22341943359375,-1.2923564910888672,0.3322763442993164,0.34142524003982544
1761131525836419300,5.23341943359375,-1.0246295928955078,0.4037296772003174,0.14290538430213928
1761131525846419500,5.24341943359375,-0.8019943237304688,0.478992223739624,0.016003191471099854
1761131525856419300,5.25341943359375,-0.7262821197509766,0.46872520446777344,0.046043530106544495
1761131525866418400,5.26341845703125,-0.8058509826660156,0.3505887985229492,0.20340441167354584
1761131525876418600,5.27341845703125,-1.0254755020141602,0.2756814956665039,0.41892626881599426
1761131525886418400,5.28341845703125,-1.3871607780456543,0.2982158660888672,0.6535570025444031
1761131525896418600,5.29341845703125,-1.771357536315918,0.3495302200317383,0.725618302822113
1761131525906418400,5.30341845703125,-2.0808353424072266,0.43004536628723145,0.5653295516967773
1761131525916418600,5.31341845703125,-2.1158194541931152,0.5123791694641113,0.28326618671417236
1761131525926418400,5.32341845703125,-2.1146178245544434,0.5661487579345703,0.056932151317596436
1761131525936418600,5.33341845703125,-2.0761160850524902,0.6107323169708252,-0.10183987021446228
1761131525946418400,5.34341845703125,-1.9750614166259766,0.5836200714111328,-0.14938193559646606
1761131525956418600,5.35341845703125,-1.9197325706481934,0.5170562267303467,-0.13545578718185425
1761131525966419500,5.36341943359375,-1.789435863494873,0.4719583988189697,-0.11494651436805725
1761131525976419300,5.37341943359375,-1.568448543548584,0.5125067234039307,-0.15562370419502258
1761131525986419500,5.38341943359375,-1.2663297653198242,0.6243302822113037,-0.27337154746055603
1761131525996419300,5.39341943359375,-1.0217399597167969,0.6967389583587646,-0.4329930245876312
1761131526006419500,5.40341943359375,-0.7548704147338867,0.7782149314880371,-0.6738846302032471
1761131526016419300,5.41341943359375,-0.46701526641845703,0.873570442199707,-0.8952939510345459
1761131526026419500,5.42341943359375,-0.25491905212402344,0.9577584266662598,-1.0167970657348633
1761131526036419300,5.43341943359375,-0.08157634735107422,0.9657535552978516,-1.0516831874847412
1761131526046419500,5.44341943359375,0.13460063934326172,0.9927008152008057,-1.0089300870895386
1761131526056419300,5.45341943359375,0.32177734375,1.0504076480865479,-0.9404153823852539
1761131526066418400,5.46341845703125,0.41303443908691406,0.9971280097961426,-0.7976677417755127
1761131526076418600,5.47341845703125,0.4804039001464844,0.9522368907928467,-0.7040508985519409
1761131526086418400,5.48341845703125,0.5183477401733398,0.8435671329498291,-0.6534073948860168
1761131526096418600,5.49341845703125,0.4913358688354492,0.7806110382080078,-0.6634888052940369
1761131526106418400,5.50341845703125,0.38263511657714844,0.830420970916748,-0.7704941630363464
1761131526116418600,5.51341845703125,0.15856456756591797,0.9050467014312744,-0.892292857170105
1761131526126418400,5.52341845703125,-0.11874103546142578,1.0124807357788086,-0.9185360074043274
1761131526136418600,5.53341845703125,-0.3634834289550781,1.099287509918213,-0.7783295512199402
1761131526146418400,5.54341845703125,-0.37598133087158203,1.2035794258117676,-0.6768377423286438
1761131526156418600,5.55341845703125,-0.2805662155151367,1.3008322715759277,-0.6158127188682556
1761131526166419200,5.563419189453125,-0.07711410522460938,1.3254895210266113,-0.6820501089096069
1761131526176419300,5.57341943359375,0.2971763610839844,1.1799893379211426,-0.8295683264732361
1761131526186419200,5.583419189453125,0.7694425582885742,0.8950085639953613,-1.1527159214019775
1761131526196419300,5.59341943359375,1.2294597625732422,0.5689351558685303,-1.54988694190979
1761131526206419200,5.603419189453125,1.384939193725586,0.28316187858581543,-1.6167902946472168
1761131526216419300,5.61341943359375,1.3625450134277344,-0.018597126007080078,-1.5334941148757935
1761131526226419200,5.623419189453125,1.2307672500610352,-0.07792782783508301,-1.5768496990203857
1761131526236419300,5.63341943359375,1.231766700744629,-0.07554793357849121,-1.5481476783752441
1761131526246419200,5.643419189453125,0.6676902770996094,0.5189170837402344,-1.4109934568405151
1761131526256419300,5.65341943359375,0.3085517883300781,0.7463109493255615,-0.9726431369781494
1761131526266418400,5.66341845703125,-0.0927743911743164,0.8823909759521484,-0.5322760343551636
1761131526276418600,5.67341845703125,-0.4508981704711914,0.9153337478637695,-0.15119856595993042
1761131526286418400,5.68341845703125,-0.5852155685424805,0.8906803131103516,-0.038204848766326904
1761131526306418400,5.70341845703125,0.005707740783691406,0.4532485008239746,-0.4332693815231323
1761131526316418600,5.71341845703125,0.4639158248901367,-0.047205448150634766,-0.6304022073745728
1761131526326418400,5.72341845703125,0.8494377136230469,-0.5365903377532959,-0.5478574633598328
1761131526336418600,5.73341845703125,1.1226215362548828,-0.9355418682098389,-0.3969876766204834
1761131526346418400,5.74341845703125,1.1885347366333008,-1.0986442565917969,-0.2602728009223938
1761131526356418600,5.75341845703125,1.077383041381836,-1.1267151832580566,-0.09827154874801636
1761131526366419500,5.76341943359375,0.7717161178588867,-1.0232577323913574,0.04090508818626404
1761131526376419300,5.77341943359375,0.7607412338256836,-0.9965238571166992,0.05974879860877991
1761131526386419500,5.78341943359375,-0.06251811981201172,-0.6315779685974121,-0.15942418575286865
1761131526396419300,5.79341943359375,-0.6063480377197266,-0.5687422752380371,-0.33395111560821533
1761131526406419500,5.80341943359375,-1.1134276390075684,-0.5537142753601074,-0.4042057394981384
1761131526416419300,5.81341943359375,-1.6228690147399902,-0.547584056854248,-0.40281516313552856
1761131526426419500,5.82341943359375,-2.171823024749756,-0.5367758274078369,-0.3871944546699524
1761131526436419300,5.83341943359375,-2.546689033508301,-0.53133225440979,-0.3528518080711365
1761131526446419500,5.84341943359375,-2.7584619522094727,-0.5137269496917725,-0.38930487632751465
1761131526456419300,5.85341943359375,-2.823990821838379,-0.43532371520996094,-0.39402061700820923
1761131526466418400,5.86341845703125,-2.785491466522217,-0.35027122497558594,-0.23347967863082886
1761131526476418600,5.87341845703125,-2.713067054748535,-0.30016517639160156,0.09883707761764526
1761131526486418400,5.88341845703125,-2.656764030456543,-0.27301788330078125,0.47249048948287964
1761131526496418600,5.89341845703125,-2.6259007453918457,-0.21119117736816406,0.7543412446975708
1761131526506418400,5.90341845703125,-2.4958510398864746,-0.13116455078125,0.8138953447341919
1761131526516418600,5.91341845703125,-2.1015853881835938,0.0011396408081054688,0.5721808671951294
1761131526526418400,5.92341845703125,-1.6732840538024902,0.12121105194091797,0.2048635482788086
1761131526546418400,5.94341845703125,-1.0292048454284668,0.11581611633300781,0.013979285955429077
1761131526556418600,5.95341845703125,-0.8459634780883789,0.1104278564453125,0.1649494469165802
1761131526566419500,5.96341943359375,-0.6797213554382324,0.12946081161499023,0.28318506479263306
1761131526576419300,5.97341943359375,-0.3990936279296875,0.13063859939575195,0.3499215543270111
1761131526586419500,5.98341943359375,-0.4043102264404297,0.1388702392578125,0.32738620042800903
1761131526596419300,5.99341943359375,0.4703483581542969,-0.07048320770263672,0.20559212565422058
1761131526606419500,6.00341943359375,0.8346338272094727,-0.31960010528564453,0.24470952153205872
1761131526616419300,6.01341943359375,0.9883222579956055,-0.588104248046875,0.40564870834350586
1761131526626419500,6.02341943359375,1.025700569152832,-0.7627394199371338,0.5412713289260864
1761131526636419300,6.03341943359375,1.129347801208496,-0.729536771774292,0.5051631331443787
1761131526646419500,6.04341943359375,1.3942623138427734,-0.3983011245727539,0.15713438391685486
1761131526656419300,6.05341943359375,1.5572032928466797,-0.03511524200439453,-0.15372048318386078
1761131526666418400,6.06341845703125,1.382523536682129,-0.07162189483642578,-0.04237125813961029
1761131526676418600,6.07341845703125,1.0308761596679688,-0.4030146598815918,0.4274744391441345
1761131526686418400,6.08341845703125,0.748316764831543,-0.5229711532592773,0.8254914879798889
1761131526696418600,6.09341845703125,0.5927877426147461,-0.24822664260864258,0.8533550500869751
1761131526706418400,6.10341845703125,0.3853120803833008,0.11108684539794922,0.7045037746429443
1761131526716418600,6.11341845703125,0.22591590881347656,0.2856311798095703,0.7379176616668701
1761131526726418400,6.12341845703125,0.1544513702392578,0.37041139602661133,0.8242723345756531
1761131526736418600,6.13341845703125,0.24528121948242188,0.5135903358459473,0.8302336931228638
1761131526746418400,6.14341845703125,0.5970430374145508,0.6108312606811523,0.7721773982048035
1761131526756418600,6.15341845703125,1.046584129333496,0.6303410530090332,0.6116755604743958
1761131526766419500,6.16341943359375,1.5016412734985352,0.5034809112548828,0.544594943523407
1761131526776419300,6.17341943359375,2.1169891357421875,0.29789113998413086,0.7257468700408936
1761131526786419500,6.18341943359375,2.5472164154052734,0.06751346588134766,0.8786768913269043
1761131526796419300,6.19341943359375,2.8019275665283203,-0.23589849472045898,1.1062763929367065
1761131526806419500,6.20341943359375,2.7477502822875977,-0.6268243789672852,1.4184399843215942
1761131526816419300,6.21341943359375,2.5049610137939453,-0.8877737522125244,1.7753933668136597
1761131526826419500,6.22341943359375,2.087008476257324,-0.9128017425537109,1.855316162109375
1761131526836419300,6.23341943359375,1.5920934677124023,-0.7502660751342773,1.6993837356567383
1761131526846419500,6.24341943359375,1.1366205215454102,-0.5321745872497559,1.4010392427444458
1761131526856419300,6.25341943359375,0.6497745513916016,-0.34607791900634766,0.9881699085235596
1761131526866418400,6.26341845703125,0.3526124954223633,-0.23825788497924805,0.49779605865478516
1761131526876418600,6.27341845703125,0.09009265899658203,-0.22835421562194824,0.03213116526603699
1761131526886418400,6.28341845703125,-0.22265148162841797,-0.3522486686706543,-0.22772783041000366
1761131526896418600,6.29341845703125,-0.6405868530273438,-0.40922069549560547,-0.2842850089073181
1761131526906418400,6.30341845703125,-0.998021125793457,-0.2690577507019043,-0.26685675978660583
1761131526916418600,6.31341845703125,-1.2777256965637207,-0.009545087814331055,-0.28607597947120667
1761131526926418400,6.32341845703125,-1.5221977233886719,0.13089203834533691,-0.33584684133529663
1761131526936418600,6.33341845703125,-1.716390609741211,0.284820556640625,-0.30814358592033386
1761131526946418400,6.34341845703125,-1.824972152709961,0.4442927837371826,-0.26812195777893066
1761131526956418600,6.35341845703125,-1.9565658569335938,0.4582829475402832,-0.2486465573310852
1761131526966419500,6.36341943359375,-2.0089592933654785,0.40028882026672363,-0.17301204800605774
1761131526976419300,6.37341943359375,-2.0833239555358887,0.29798078536987305,-0.08283580839633942
1761131526986419500,6.38341943359375,-2.1177444458007812,0.23345494270324707,0.055350422859191895
1761131526996419300,6.39341943359375,-2.124329090118408,0.2476789951324463,0.1761278510093689
1761131527006419500,6.40341943359375,-1.8783960342407227,0.3510289192199707,0.3030563294887543
1761131527016419300,6.41341943359375,-1.6943035125732422,0.46129679679870605,0.32613033056259155
1761131527026419500,6.42341943359375,-1.4186840057373047,0.4920022487640381,0.3615592420101166
1761131527036419300,6.43341943359375,-1.172917366027832,0.4030895233154297,0.35648632049560547
1761131527046419200,6.443419189453125,-1.0665698051452637,0.2602543830871582,0.24834711849689484
1761131527056419300,6.45341943359375,-1.0703086853027344,0.09080719947814941,0.039156243205070496
1761131527066418400,6.46341845703125,-1.107072353363037,0.04934120178222656,-0.2548068165779114
1761131527076418600,6.47341845703125,-1.0811071395874023,0.15032744407653809,-0.6572204828262329
1761131527086418400,6.48341845703125,-0.9952239990234375,0.32304978370666504,-0.9274501800537109
1761131527096418300,6.493418212890625,-0.8093233108520508,0.40619683265686035,-1.097758412361145
1761131527106418400,6.50341845703125,-0.5979299545288086,0.4578888416290283,-1.159550666809082
1761131527116418300,6.513418212890625,-0.4494600296020508,0.4752469062805176,-1.200124740600586
1761131527126418400,6.52341845703125,-0.2552003860473633,0.5397994518280029,-1.0856209993362427
1761131527136418600,6.53341845703125,-0.15974903106689453,0.6027939319610596,-0.9650681614875793
1761131527146385200,6.54338525390625,-0.054823875427246094,0.7037370204925537,-0.8754868507385254
1761131527156351700,6.553351806640625,0.022683143615722656,0.8999276161193848,-0.8553256392478943
1761131527166319400,6.5633193359375,0.09743595123291016,1.0559985637664795,-0.7999817728996277
1761131527176286000,6.573285888671875,0.19624710083007812,1.0888988971710205,-0.7192176580429077
1761131527186252500,6.58325244140625,0.28209781646728516,0.999061107635498,-0.6683799028396606
1761131527196219400,6.593219482421875,0.5384426116943359,0.9009981155395508,-0.6496773958206177
1761131527206186000,6.60318603515625,0.856806755065918,0.7983598709106445,-0.6729326248168945
1761131527216152600,6.613152587890625,0.8655567169189453,0.779019832611084,-0.6782166957855225
1761131527226119400,6.623119384765625,1.19927978515625,0.6174530982971191,-0.6587796807289124
1761131527236086000,6.6330859375,1.1473722457885742,0.5976710319519043,-0.6983096599578857
1761131527246052600,6.643052490234375,0.9593257904052734,0.7693185806274414,-0.85625821352005
1761131527256019200,6.653019287109375,0.6665754318237305,1.0092811584472656,-0.9855711460113525
1761131527265985000,6.662985107421875,0.33412837982177734,1.11883544921875,-1.0971070528030396
1761131527275951900,6.672951904296875,0.14314937591552734,1.2030029296875,-1.1956164836883545
1761131527285918500,6.68291845703125,0.06801509857177734,1.3058428764343262,-1.3633484840393066
1761131527295885000,6.692885009765625,0.011599540710449219,1.2403373718261719,-1.643385648727417
1761131527305852000,6.702851806640625,0.06884002685546875,0.957280158996582,-1.8072677850723267
1761131527315818500,6.712818603515625,0.30886363983154297,0.5332841873168945,-1.8547570705413818
1761131527325785000,6.72278515625,0.6332015991210938,0.06704902648925781,-1.8023568391799927
1761131527335751700,6.732751708984375,1.0029878616333008,-0.31456470489501953,-1.7891408205032349
1761131527345718500,6.742718505859375,1.4733343124389648,-0.5997238159179688,-1.7647860050201416
1761131527355685000,6.75268505859375,1.7466249465942383,-0.8625776767730713,-1.7156012058258057
1761131527365652700,6.76265283203125,1.8135061264038086,-1.0832505226135254,-1.5534024238586426
1761131527375619300,6.772619384765625,1.6650762557983398,-1.176407814025879,-1.3487646579742432
1761131527385586200,6.782586181640625,1.375657081604004,-0.960721492767334,-1.095721960067749
1761131527395552800,6.792552734375,1.0400781631469727,-0.5668535232543945,-0.8219617605209351
1761131527405519400,6.802519287109375,0.6627016067504883,-0.10027480125427246,-0.6555018424987793
1761131527415486000,6.81248583984375,0.3429384231567383,0.1664905548095703,-0.48557478189468384
1761131527425452800,6.822452880859375,0.09559917449951172,0.2542686462402344,-0.2754455804824829
1761131527435419400,6.83241943359375,-0.14338207244873047,0.26284027099609375,-0.18863295018672943
1761131527445419300,6.842419189453125,-0.2606010437011719,0.07140779495239258,-0.18620267510414124
1761131527455419400,6.85241943359375,-0.24478721618652344,-0.30600571632385254,-0.3733724355697632
1761131527465418500,6.86241845703125,-0.16376781463623047,-0.4892544746398926,-0.8093744516372681
1761131527475418600,6.872418701171875,-0.17249298095703125,-0.47025537490844727,-0.8354607820510864
1761131527485418500,6.88241845703125,-0.25725650787353516,-0.6646811962127686,-1.2371021509170532
1761131527495418400,6.89241845703125,-0.4233970642089844,-0.6720776557922363,-1.2073287963867188
1761131527505418500,6.90241845703125,-0.7245101928710938,-0.5340569019317627,-1.1199270486831665
1761131527515418400,6.91241845703125,-1.137423038482666,-0.3907186985015869,-1.0016881227493286
1761131527525418500,6.92241845703125,-1.4266633987426758,-0.21766138076782227,-0.9810272455215454
1761131527535418400,6.93241845703125,-1.754896640777588,-0.09443116188049316,-1.0202374458312988
1761131527545418500,6.94241845703125,-2.060425281524658,-0.01780247688293457,-0.9119424223899841
1761131527555418400,6.95241845703125,-2.348790168762207,-0.03185129165649414,-0.7794932723045349
1761131527565419300,6.962419189453125,-2.551867961883545,-0.08579897880554199,-0.6622579097747803
1761131527575419400,6.97241943359375,-2.6184420585632324,-0.099578857421875,-0.6114819645881653
1761131527585419300,6.982419189453125,-2.624476909637451,-0.10732364654541016,-0.5500079393386841
1761131527595419400,6.99241943359375,-2.571206569671631,-0.09162569046020508,-0.5368886590003967
1761131527605419300,7.002419189453125,-2.291525363922119,-0.06317329406738281,-0.5144150853157043
1761131527615419400,7.01241943359375,-2.020197868347168,-0.02890777587890625,-0.5358825325965881
1761131527625419300,7.022419189453125,-1.8214631080627441,0.010170459747314453,-0.47924935817718506
1761131527635419400,7.03241943359375,-1.6149792671203613,0.012786388397216797,-0.4628913402557373
1761131527645419300,7.042419189453125,-1.4416160583496094,0.14632415771484375,-0.575434148311615
1761131527655419400,7.05241943359375,-1.2381634712219238,0.3391711711883545,-0.6856629252433777
1761131527665418500,7.06241845703125,-1.0852646827697754,0.49385666847229004,-0.7043367624282837
1761131527675418400,7.07241845703125,-0.9467401504516602,0.5978727340698242,-0.6430902481079102
1761131527685418500,7.08241845703125,-0.9089298248291016,0.6325185298919678,-0.5712782740592957
1761131527695418400,7.09241845703125,-0.9218387603759766,0.7038178443908691,-0.5476388931274414
1761131527705418500,7.10241845703125,-0.813450813293457,0.7837419509887695,-0.5812832117080688
1761131527715418400,7.11241845703125,-0.6585054397583008,0.8422131538391113,-0.620202898979187
1761131527725418500,7.12241845703125,-0.5126142501831055,0.8277907371520996,-0.6322981119155884
1761131527735418400,7.13241845703125,-0.3594808578491211,0.6912627220153809,-0.5784575939178467
1761131527745418500,7.14241845703125,-0.14918804168701172,0.45984601974487305,-0.5034396648406982
1761131527755418400,7.15241845703125,0.09378623962402344,0.26894569396972656,-0.5270131230354309
1761131527765419300,7.162419189453125,0.4025154113769531,0.09570503234863281,-0.5663625597953796
1761131527775419400,7.17241943359375,0.9107608795166016,-0.00646209716796875,-0.6741479635238647
1761131527785419300,7.182419189453125,1.417245864868164,-0.046755313873291016,-0.7109640836715698
1761131527795419400,7.19241943359375,1.7925167083740234,-0.07956123352050781,-0.6741609573364258
1761131527805419300,7.202419189453125,1.9393701553344727,-0.2506861686706543,-0.42755192518234253
1761131527815419400,7.21241943359375,1.7704849243164062,-0.38881421089172363,-0.26394790410995483
1761131527825419300,7.222419189453125,1.570943832397461,-0.3636348247528076,-0.28928810358047485
1761131527835419400,7.23241943359375,1.483139991760254,-0.12005329132080078,-0.47174379229545593
1761131527845419300,7.242419189453125,1.5555572509765625,0.20263195037841797,-0.5973376631736755
1761131527855419400,7.25241943359375,1.6477689743041992,0.40497446060180664,-0.5697270631790161
1761131527865418500,7.26241845703125,1.8500070571899414,0.4461812973022461,-0.31794312596321106
1761131527875418600,7.272418701171875,2.2649097442626953,0.35077929496765137,-0.077475905418396
1761131527885418500,7.28241845703125,2.8096084594726562,0.3182051181793213,-0.012388348579406738
1761131527895418600,7.292418701171875,3.3897275924682617,0.26427221298217773,-0.09398806095123291
1761131527905418500,7.30241845703125,3.761075019836426,0.20255017280578613,-0.12037396430969238
1761131527915418600,7.312418701171875,3.8926820755004883,0.04936933517456055,0.007100164890289307
1761131527925418500,7.32241845703125,3.724153518676758,-0.24014639854431152,0.3121429681777954
1761131527935418400,7.33241845703125,3.3405628204345703,-0.44026851654052734,0.5914431214332581
1761131527945418500,7.34241845703125,2.8528738021850586,-0.44508838653564453,0.6888352632522583
1761131527955418400,7.35241845703125,2.3429346084594727,-0.30359435081481934,0.6042547821998596
1761131527965419300,7.362419189453125,1.7870426177978516,-0.1363062858581543,0.42929041385650635
1761131527975419400,7.37241943359375,1.1105995178222656,-0.09280514717102051,0.3596472144126892
1761131527985419300,7.382419189453125,0.3005704879760742,-0.20218873023986816,0.4297844171524048
1761131527995419400,7.39241943359375,-0.32866477966308594,-0.32569456100463867,0.4948529005050659
1761131528005419300,7.402419189453125,-0.8414640426635742,-0.32150912284851074,0.4546685218811035
1761131528015419400,7.41241943359375,-1.161170482635498,-0.22718501091003418,0.3078134059906006
1761131528025419300,7.422419189453125,-1.1468052864074707,-0.2619640827178955,0.30803805589675903
1761131528035419400,7.43241943359375,-1.4703831672668457,-0.09477090835571289,-0.018312811851501465
1761131528045419300,7.442419189453125,-1.523867130279541,-0.16230297088623047,-0.12052780389785767
1761131528055419400,7.45241943359375,-1.5529732704162598,-0.2666635513305664,-0.1823520064353943
1761131528065418500,7.46241845703125,-1.6092419624328613,-0.3079335689544678,-0.3235214650630951
1761131528075418600,7.472418701171875,-1.6789655685424805,-0.31619715690612793,-0.4180860221385956
1761131528085418500,7.48241845703125,-1.8249444961547852,-0.3117861747741699,-0.5268520712852478
1761131528095418400,7.49241845703125,-1.951878547668457,-0.2600271701812744,-0.6142037510871887
1761131528105418500,7.50241845703125,-2.1168317794799805,-0.21673583984375,-0.6663980484008789
1761131528115418600,7.512418701171875,-2.2256112098693848,-0.19454407691955566,-0.6965211629867554
1761131528125418500,7.52241845703125,-2.298086643218994,-0.12695002555847168,-0.6972906589508057
1761131528135418400,7.53241845703125,-2.3403162956237793,-0.12827491760253906,-0.6478291153907776
1761131528145418500,7.54241845703125,-2.3198800086975098,-0.14598321914672852,-0.47870707511901855
1761131528155418400,7.55241845703125,-2.103719711303711,-0.1784379482269287,-0.3348425030708313
1761131528165419300,7.562419189453125,-1.975234031677246,-0.1475679874420166,-0.24756942689418793
1761131528175419400,7.57241943359375,-1.8076910972595215,-0.1731858253479004,-0.2328694462776184
1761131528185419300,7.582419189453125,-1.691514492034912,-0.21632695198059082,-0.25840047001838684
1761131528195419400,7.59241943359375,-1.6882925033569336,-0.15158605575561523,-0.2762787938117981
1761131528205419300,7.602419189453125,-1.687088966369629,-0.05468249320983887,-0.2503361105918884
1761131528215419400,7.61241943359375,-1.694620132446289,0.11199593544006348,-0.269132137298584
1761131528225419300,7.622419189453125,-1.612940788269043,0.31585073471069336,-0.3028409481048584
1761131528235419400,7.63241943359375,-1.4616565704345703,0.41448545455932617,-0.409180223941803
1761131528245419300,7.642419189453125,-1.2652716636657715,0.4811420440673828,-0.5521669983863831
1761131528255419400,7.65241943359375,-1.0527620315551758,0.418179988861084,-0.6942905783653259
1761131528265418500,7.66241845703125,-0.8816499710083008,0.3453407287597656,-0.8588789701461792
1761131528275418400,7.67241845703125,-0.7013635635375977,0.31203556060791016,-1.0604164600372314
1761131528285418500,7.68241845703125,-0.6095705032348633,0.34565305709838867,-1.2289197444915771
1761131528295418400,7.69241845703125,-0.5051374435424805,0.4327716827392578,-1.388386607170105
1761131528305418500,7.70241845703125,-0.4257020950317383,0.5814476013183594,-1.5113377571105957
1761131528315418400,7.71241845703125,-0.4239158630371094,0.703239917755127,-1.5180914402008057
1761131528325418500,7.72241845703125,-0.37516307830810547,0.7385077476501465,-1.4145915508270264
1761131528335418400,7.73241845703125,-0.2005329132080078,0.7539210319519043,-1.2460882663726807
1761131528345418500,7.74241845703125,0.010477066040039062,0.7687282562255859,-1.1563578844070435
1761131528355418400,7.75241845703125,0.12409782409667969,0.756227970123291,-0.9330288767814636
1761131528365419300,7.762419189453125,0.22450923919677734,0.7542695999145508,-0.632042646408081
1761131528375419400,7.77241943359375,0.3042783737182617,0.897641658782959,-0.37182825803756714
1761131528385419300,7.782419189453125,0.4650611877441406,1.1940550804138184,-0.4193718135356903
1761131528395419400,7.79241943359375,0.6024684906005859,1.3467259407043457,-0.5105099081993103
1761131528405419300,7.802419189453125,0.7344274520874023,1.2732596397399902,-0.515916109085083
1761131528415419400,7.81241943359375,0.8433218002319336,1.1708807945251465,-0.5213878154754639
1761131528425419300,7.822419189453125,0.9515743255615234,1.1909594535827637,-0.7553550004959106
1761131528435419400,7.83241943359375,1.1178436279296875,1.185086727142334,-1.13494074344635
1761131528445419300,7.842419189453125,1.4902172088623047,0.8711667060852051,-1.3003177642822266
1761131528455419400,7.85241943359375,1.999955177307129,0.586064338684082,-1.4102444648742676
1761131528465418500,7.86241845703125,2.5237655639648438,0.33272361755371094,-1.5691982507705688
1761131528475418400,7.87241845703125,2.496074676513672,0.3933391571044922,-1.5902583599090576
1761131528485418500,7.88241845703125,3.153043746948242,-0.20174360275268555,-1.3646490573883057
1761131528495418400,7.89241845703125,3.042149543762207,-0.4292571544647217,-1.1421287059783936
1761131528505418500,7.90241845703125,2.706854820251465,-0.4021303653717041,-1.0517109632492065
1761131528515418400,7.91241845703125,2.6943798065185547,-0.37680745124816895,-1.0363624095916748
1761131528525418500,7.92241845703125,1.9158449172973633,0.4024934768676758,-1.1923563480377197
1761131528535418400,7.93241845703125,1.4027996063232422,0.7702679634094238,-1.0911426544189453
1761131528545418500,7.94241845703125,0.9069604873657227,0.9289917945861816,-0.8469263315200806
1761131528555418400,7.95241845703125,0.4732666015625,0.856719970703125,-0.6228862404823303
1761131528565419300,7.962419189453125,0.13917064666748047,0.5236716270446777,-0.5739085674285889
1761131528575419100,7.972419189453125,-0.037955284118652344,0.025743484497070312,-0.6568483114242554
1761131528585419300,7.982419189453125,-0.04023265838623047,-0.45789265632629395,-0.7568627595901489
1761131528595419100,7.992419189453125,-0.004300117492675781,-0.7885587215423584,-0.7705076932907104
1761131528605419300,8.002419189453125,-0.010489463806152344,-1.0289349555969238,-0.7953976988792419
1761131528615419400,8.01241943359375,-0.08131122589111328,-1.1153175830841064,-0.8646753430366516
1761131528625419300,8.022419189453124,-0.2267913818359375,-1.042625904083252,-0.9572274684906006
1761131528635419400,8.03241943359375,-0.3393850326538086,-0.892486572265625,-1.1489741802215576
1761131528645419300,8.042419189453126,-0.4694480895996094,-0.7345342636108398,-1.3784844875335693
1761131528655419400,8.05241943359375,-0.738922119140625,-0.7008829116821289,-1.4829659461975098
1761131528665418500,8.06241845703125,-0.7554254531860352,-0.6645388603210449,-1.4189245700836182
1761131528675418600,8.072418701171875,-1.6121134757995605,-0.7311410903930664,-1.053359866142273
1761131528685418500,8.08241845703125,-1.9949374198913574,-0.6512324810028076,-0.8729795217514038
1761131528695418600,8.092418701171875,-2.2498507499694824,-0.47481274604797363,-0.7546325922012329
1761131528705418500,8.10241845703125,-2.3928093910217285,-0.31063175201416016,-0.7116209268569946
1761131528715418600,8.112418701171874,-2.3200316429138184,-0.15252232551574707,-0.7170218229293823
1761131528725418500,8.12241845703125,-2.293757915496826,-0.1050271987915039,-0.6114926934242249
1761131528735418400,8.13241845703125,-2.3075637817382812,-0.21396255493164062,-0.3699403405189514
1761131528745418500,8.14241845703125,-2.3233423233032227,-0.3254573345184326,-0.12431363016366959
1761131528755418400,8.15241845703125,-2.3413681983947754,-0.3336362838745117,0.03463548421859741
1761131528765419300,8.162419189453125,-2.247253894805908,-0.2639453411102295,0.11134570837020874
1761131528775419400,8.17241943359375,-2.0414023399353027,-0.0559237003326416,0.10331153869628906
1761131528785419300,8.182419189453125,-1.8319406509399414,0.15226173400878906,-0.008681163191795349
1761131528795419400,8.19241943359375,-1.5689759254455566,0.2393183708190918,-0.008075475692749023
1761131528805419300,8.202419189453124,-1.2996978759765625,0.1799633502960205,-0.02484932541847229
1761131528815419400,8.21241943359375,-0.9039382934570312,0.12871837615966797,-0.07329107820987701
1761131528825419500,8.22241943359375,-0.48923778533935547,0.10411953926086426,-0.10816393792629242
1761131528835419400,8.23241943359375,-0.26347827911376953,-0.014521598815917969,-0.13128821551799774
1761131528845419500,8.24241943359375,-0.13273334503173828,-0.137528657913208,-0.07452499866485596
1761131528855419400,8.25241943359375,-0.111236572265625,-0.38262438774108887,-0.03993447124958038
1761131528865418500,8.26241845703125,-0.09130668640136719,-0.5891852378845215,-0.14353030920028687
1761131528875418600,8.272418701171874,-0.023473739624023438,-0.6615982055664062,-0.27487272024154663
1761131528885418500,8.28241845703125,0.028568267822265625,-0.5077159404754639,-0.4608040452003479
1761131528895418600,8.292418701171876,0.22075366973876953,-0.3526647090911865,-0.6965887546539307
1761131528905418500,8.30241845703125,0.7307863235473633,-0.12544918060302734,-0.8782352209091187
1761131528915418600,8.312418701171875,1.2796297073364258,0.026175498962402344,-0.8475252985954285
1761131528925418500,8.32241845703125,1.8334388732910156,-0.11424779891967773,-0.48437565565109253
1761131528935418600,8.332418701171875,2.3648462295532227,-0.421952486038208,0.037170857191085815
1761131528945418500,8.34241845703125,2.8853349685668945,-0.5487287044525146,0.36189568042755127
1761131528955418600,8.352418701171874,3.32473087310791,-0.3235347270965576,0.4694455862045288
1761131528965419300,8.362419189453124,3.478541374206543,-0.06674408912658691,0.514290452003479
1761131528975419400,8.37241943359375,3.414775848388672,0.03742837905883789,0.538742184638977
1761131528985419300,8.382419189453126,3.392404556274414,0.2110147476196289,0.3093087077140808
1761131528995419400,8.39241943359375,3.347052574157715,0.384610652923584,0.0406741201877594
1761131529005419300,8.402419189453125,3.355717658996582,0.4566645622253418,-0.30806657671928406
1761131529015419400,8.41241943359375,3.4237985610961914,0.32685136795043945,-0.5334928035736084
1761131529025419300,8.422419189453125,3.410616874694824,0.13545608520507812,-0.5155144929885864
1761131529035419400,8.43241943359375,3.39717960357666,0.17204737663269043,-0.5233660936355591
1761131529045419300,8.442419189453124,3.0377120971679688,-0.15178990364074707,-0.0589127242565155
1761131529055419400,8.45241943359375,2.7919130325317383,-0.21700429916381836,0.27810361981391907
1761131529065418500,8.46241845703125,2.7890377044677734,-0.20836186408996582,0.2719106674194336
1761131529075418600,8.472418701171875,1.6762561798095703,-0.1668691635131836,0.94122713804245
1761131529085418500,8.48241845703125,1.1380977630615234,-0.09996438026428223,1.1027041673660278
1761131529095418400,8.49241845703125,1.1424064636230469,-0.1140601634979248,1.1216363906860352
1761131529105418500,8.50241845703125,0.40230655670166016,-0.10446310043334961,0.9722311496734619
1761131529115418600,8.512418701171875,0.2263774871826172,-0.21164226531982422,0.9312893748283386
1761131529125418500,8.52241845703125,0.04635143280029297,-0.37075328826904297,0.8226199746131897
1761131529135418400,8.53241845703125,0.05829143524169922,-0.473297119140625,0.561218798160553
1761131529145418500,8.54241845703125,0.05631542205810547,-0.4813861846923828,0.3850589096546173
1761131529155418400,8.55241845703125,-0.0023059844970703125,-0.5113363265991211,0.2622171640396118
1761131529165419300,8.562419189453125,-0.2964773178100586,-0.5753462314605713,0.22389543056488037
1761131529175419400,8.57241943359375,-0.6763525009155273,-0.5942137241363525,0.2717345654964447
1761131529185419300,8.582419189453125,-1.0210905075073242,-0.4756779670715332,0.2976036071777344
1761131529195419400,8.59241943359375,-1.4520020484924316,-0.23332834243774414,0.28972920775413513
1761131529205419300,8.602419189453125,-1.9630770683288574,-0.12570452690124512,0.2626534402370453
1761131529215419400,8.61241943359375,-2.465117931365967,-0.1369931697845459,0.23574820160865784
1761131529225419300,8.622419189453124,-2.840999126434326,-0.1295180320739746,0.08050481975078583
1761131529235419400,8.63241943359375,-2.8260416984558105,-0.17145776748657227,0.14081373810768127
1761131529245419300,8.642419189453125,-3.2093005180358887,-0.002706766128540039,-0.23784692585468292
1761131529255419400,8.65241943359375,-3.183170795440674,0.05984020233154297,-0.3407909572124481
1761131529265418500,8.66241845703125,-3.1666126251220703,0.05518937110900879,-0.23881679773330688
1761131529275418400,8.67241845703125,-3.073108673095703,0.04183626174926758,-0.06491407752037048
1761131529285418500,8.68241845703125,-2.8595242500305176,0.11285877227783203,0.1356930285692215
1761131529295418400,8.69241845703125,-2.592996597290039,0.2875497341156006,0.1982041448354721
1761131529305418500,8.70241845703125,-2.2711181640625,0.4125237464904785,0.18112587928771973
1761131529315418400,8.71241845703125,-1.970268726348877,0.39615488052368164,0.21352717280387878
1761131529325418500,8.72241845703125,-1.7354846000671387,0.3258941173553467,0.2646948993206024
1761131529335418400,8.73241845703125,-1.4397516250610352,0.2564830780029297,0.13134725391864777
1761131529345418500,8.74241845703125,-1.0878143310546875,0.26682209968566895,-0.09570355713367462
1761131529355418400,8.75241845703125,-0.7057695388793945,0.2509489059448242,-0.3068920373916626
1761131529365419300,8.762419189453125,-0.3482818603515625,0.2676711082458496,-0.4175979495048523
1761131529375419400,8.77241943359375,-0.13454437255859375,0.24860095977783203,-0.44082701206207275
1761131529385419300,8.782419189453124,-0.14273452758789062,0.19414424896240234,-0.3395487070083618
1761131529395419400,8.79241943359375,-0.2185678482055664,0.23611116409301758,-0.26880210638046265
1761131529405419300,8.802419189453126,-0.22737407684326172,0.36623525619506836,-0.43657612800598145
1761131529415419400,8.81241943359375,-0.13143253326416016,0.5693540573120117,-0.684740424156189
1761131529425419300,8.822419189453125,0.01129150390625,0.6334662437438965,-0.8429048657417297
1761131529435419400,8.83241943359375,-0.06728172302246094,0.5747087001800537,-0.6613096594810486
1761131529445419300,8.842419189453125,-0.26627635955810547,0.4708518981933594,-0.36761993169784546
1761131529455419400,8.85241943359375,-0.41081809997558594,0.5228934288024902,-0.1658795177936554
1761131529465418500,8.86241845703125,-0.5208320617675781,0.7089734077453613,-0.15414881706237793
1761131529475418400,8.87241845703125,-0.5187206268310547,0.8671698570251465,-0.15308436751365662
1761131529485418500,8.88241845703125,-0.5111408233642578,0.9573371410369873,-0.16772860288619995
1761131529495418400,8.89241845703125,-0.5034961700439453,1.0368022918701172,-0.31119441986083984
1761131529505418500,8.90241845703125,-0.5639533996582031,1.0452086925506592,-0.46642303466796875
1761131529515418400,8.91241845703125,-0.5651521682739258,1.0498082637786865,-0.449442595243454
1761131529525418500,8.92241845703125,-0.15238094329833984,0.9947435855865479,-0.7161233425140381
1761131529535418400,8.93241845703125,0.2854747772216797,0.9989216327667236,-0.8970812559127808
1761131529545418500,8.94241845703125,0.8617115020751953,0.910966157913208,-1.0034129619598389
1761131529555418400,8.95241845703125,1.4590492248535156,0.6134960651397705,-0.9690110683441162
1761131529565419300,8.962419189453126,2.040135383605957,0.28473663330078125,-0.9000583291053772
1761131529575419100,8.972419189453126,2.7136430740356445,0.07844257354736328,-1.0440974235534668
1761131529585419300,8.982419189453125,3.0669288635253906,-0.1666576862335205,-1.1116538047790527
1761131529595419100,8.992419189453125,3.0415163040161133,-0.10653185844421387,-1.1476681232452393
1761131529605419300,9.002419189453125,3.160076141357422,-0.6458914279937744,-0.7845491170883179
1761131529615419400,9.01241943359375,2.8383893966674805,-0.5291833877563477,-0.7115335464477539
1761131529625419300,9.022419189453124,2.264094352722168,-0.2501387596130371,-0.6453170776367188
1761131529635419400,9.03241943359375,1.6283416748046875,0.048021793365478516,-0.5809268951416016
1761131529645419300,9.042419189453126,0.9223852157592773,0.28771448135375977,-0.5408221483230591
1761131529655419400,9.05241943359375,0.35656261444091797,0.3390388488769531,-0.3895825445652008
1761131529665418500,9.06241845703125,0.019214630126953125,0.23711752891540527,-0.27765095233917236
1761131529675418400,9.07241845703125,-0.004876136779785156,0.1290445327758789,-0.348055362701416
1761131529685418500,9.08241845703125,0.24173259735107422,0.06397056579589844,-0.5842906832695007
1761131529695418400,9.09241845703125,0.6224508285522461,-0.31897974014282227,-0.721253514289856
1761131529705418500,9.10241845703125,1.013707160949707,-0.8310892581939697,-0.610053300857544
1761131529715418400,9.11241845703125,1.1338310241699219,-1.247769832611084,-0.3419613838195801
1761131529725418500,9.12241845703125,1.029439926147461,-1.4343578815460205,-0.1634693145751953
1761131529735418400,9.13241845703125,0.6620512008666992,-1.4308154582977295,0.03913852572441101
1761131529745418500,9.14241845703125,0.15628814697265625,-1.2222442626953125,0.15902471542358398
1761131529755418400,9.15241845703125,-0.4651765823364258,-0.8742635250091553,0.13932624459266663
1761131529765419300,9.162419189453125,-1.073237419128418,-0.5835731029510498,-0.001505523920059204
1761131529775419400,9.17241943359375,-1.5704445838928223,-0.3397691249847412,-0.24177592992782593
1761131529785419300,9.182419189453125,-2.036006450653076,-0.2563815116882324,-0.3213946223258972
1761131529795419400,9.19241943359375,-2.447049140930176,-0.3057527542114258,-0.32642531394958496
1761131529805419300,9.202419189453124,-2.726137161254883,-0.42208218574523926,-0.30557453632354736
1761131529815419400,9.21241943359375,-3.0284533500671387,-0.5165219306945801,-0.24767076969146729
1761131529825419300,9.222419189453126,-3.252838134765625,-0.5910797119140625,-0.1863389015197754
1761131529835419400,9.23241943359375,-3.347527027130127,-0.6205480098724365,-0.063479483127594
1761131529845419300,9.242419189453125,-3.3853940963745117,-0.5726475715637207,0.036622315645217896
1761131529855419400,9.25241943359375,-3.3744921684265137,-0.4783813953399658,0.11839878559112549
1761131529865418500,9.26241845703125,-3.2171459197998047,-0.3389778137207031,0.10746100544929504
1761131529875418600,9.272418701171874,-3.217435836791992,-0.3413867950439453,0.07783573865890503
1761131529885418500,9.28241845703125,-2.460618495941162,-0.14403629302978516,-0.02416062355041504
1761131529895418600,9.292418701171876,-1.927903175354004,-0.11691093444824219,-0.09980112314224243
1761131529905418500,9.30241845703125,-1.3382902145385742,-0.16135120391845703,-0.14431464672088623
1761131529915418400,9.31241845703125,-0.7028284072875977,-0.18097901344299316,-0.19283488392829895
1761131529925418500,9.32241845703125,-0.26959896087646484,-0.18505263328552246,-0.18733488023281097
1761131529935418400,9.33241845703125,0.04423046112060547,-0.15305876731872559,-0.14936953783035278
1761131529945418500,9.34241845703125,0.3098573684692383,-0.13491177558898926,-0.11000479757785797
1761131529955418400,9.35241845703125,0.5562210083007812,-0.08252406120300293,-0.11918989568948746
1761131529965419300,9.362419189453124,0.5141010284423828,-0.017742633819580078,-0.031664133071899414
1761131529975419400,9.37241943359375,0.3753976821899414,-0.01116323471069336,0.19291608035564423
1761131529985419300,9.382419189453126,0.29499340057373047,0.07082867622375488,0.43235865235328674
1761131529995419400,9.39241943359375,0.26428985595703125,0.20317316055297852,0.5446376204490662
1761131530005419300,9.402419189453125,0.27713775634765625,0.24576807022094727,0.6563437581062317
1761131530015419400,9.41241943359375,0.28235816955566406,0.23208904266357422,0.6445629596710205
1761131530025418500,9.42241845703125,0.6903753280639648,0.14890623092651367,0.9294475317001343
1761131530035418400,9.43241845703125,0.9827766418457031,0.13123178482055664,1.018749475479126
1761131530045418500,9.44241845703125,1.2426567077636719,0.13565969467163086,1.0834572315216064
1761131530055418400,9.45241845703125,1.4818735122680664,0.19155192375183105,1.22820246219635
1761131530065418500,9.46241845703125,1.7938566207885742,0.2559325695037842,1.402789831161499
1761131530075418400,9.47241845703125,1.7790336608886719,0.2972416877746582,1.3557144403457642
1761131530085418500,9.48241845703125,2.318922996520996,0.47515439987182617,1.720071792602539
1761131530095418400,9.49241845703125,2.483016014099121,0.5725593566894531,1.9456448554992676
1761131530105418500,9.50241845703125,2.562190055847168,0.44968485832214355,2.3037729263305664
1761131530115418400,9.51241845703125,2.6293392181396484,0.22000837326049805,2.5223937034606934
1761131530125418500,9.52241845703125,2.838179588317871,0.027510643005371094,2.35034441947937
1761131530135418400,9.53241845703125,2.81784725189209,0.0891566276550293,2.341607093811035
1761131530145418500,9.54241845703125,2.9638757705688477,-0.30034542083740234,1.4136641025543213
1761131530155418400,9.55241845703125,2.752737045288086,-0.4591219425201416,0.9730241298675537
1761131530165419300,9.562419189453125,2.2904186248779297,-0.5165095329284668,0.7576000690460205
1761131530175419100,9.572419189453125,1.907968521118164,-0.4917125701904297,0.5994138121604919
1761131530185419300,9.582419189453125,1.4830303192138672,-0.3942103385925293,0.5183573961257935
1761131530195419100,9.592419189453125,1.390390396118164,-0.3261396884918213,0.9452282190322876
1761131530205419300,9.602419189453125,1.114736557006836,-0.13042259216308594,1.404883861541748
1761131530225419300,9.622419189453124,0.42784976959228516,0.03118443489074707,1.8255654573440552
1761131530235419100,9.632419189453126,-0.12540054321289062,-0.07653999328613281,2.0823044776916504
