time,seconds_elapsed,z,y,x
1761131520724511000,0.121510986328125,0.07903069257736206,0.8097782135009766,0.38950294256210327
1761131520754538000,0.1515380859375,0.07903069257736206,0.8097782135009766,0.38950294256210327
1761131520764538000,0.1615380859375,0.008781188167631626,-0.4602105915546417,-0.2085341215133667
1761131520774538000,0.1715380859375,0.072311170399189,-0.5671120285987854,-0.334983229637146
1761131520784538000,0.1815380859375,0.11079568415880203,-0.5029711723327637,-0.40889793634414673
1761131520794538000,0.1915380859375,0.1175151988863945,-0.35330918431282043,-0.435165137052536
1761131520804538000,0.2015380859375,0.11568260937929153,-0.1175151988863945,-0.40340012311935425
1761131520814538000,0.2115380859375,0.0973566472530365,0.3180317282676697,-0.23052527010440826
1761131520824538000,0.2215380859375,0.07780896127223969,0.5232824683189392,-0.04909829422831535
1761131520834538200,0.231538330078125,0.05642867833375931,0.6234643459320068,0.1598176211118698
1761131520844538000,0.2415380859375,0.030772335827350616,0.6240752339363098,0.36934441328048706
1761131520854538200,0.251538330078125,0.000839939690195024,0.5501605272293091,0.5623778104782104
1761131520864536000,0.2615361328125,-0.04253149405121803,0.4542546570301056,0.7114289402961731
1761131520874536200,0.2715361328125,-0.09628763794898987,0.3265838325023651,0.8012261390686035
1761131520884536000,0.2815361328125,-0.1353830099105835,0.16653713583946228,0.8342128396034241
1761131520894536200,0.2915361328125,-0.15431983768939972,0.0034361169673502445,0.8140543103218079
1761131520904536000,0.3015361328125,-0.1659262776374817,-0.12912164628505707,0.7419722080230713
1761131520914536200,0.3115361328125,-0.17875444889068604,-0.20425806939601898,0.6271295547485352
1761131520924536300,0.321536376953125,-0.18975001573562622,-0.23968824744224548,0.48113274574279785
1761131520934536200,0.3315361328125,-0.19402606785297394,-0.26717719435691833,0.3161991238594055
1761131520944536300,0.341536376953125,-0.18975001573562622,-0.2903900742530823,0.14393512904644012
1761131520954536200,0.3515361328125,-0.17936530709266663,-0.31177034974098206,-0.022220224142074585
1761131520964536300,0.361536376953125,-0.17142406105995178,-0.34781140089035034,-0.18104518949985504
1761131520974536200,0.3715361328125,-0.17081318795681,-0.4015675485134125,-0.32154420018196106
1761131520984536300,0.381536376953125,-0.17753271758556366,-0.4614323377609253,-0.4266130030155182
1761131520994536200,0.3915361328125,-0.18730655312538147,-0.487088680267334,-0.4822017550468445
1761131521004536300,0.401536376953125,-0.1958586722612381,-0.5261840224266052,-0.48892128467559814
1761131521014536200,0.4115361328125,-0.20929770171642303,-0.5420665740966797,-0.45349109172821045
1761131521024536300,0.421536376953125,-0.23251058161258698,-0.524962306022644,-0.3856850564479828
1761131521034536200,0.4315361328125,-0.26366472244262695,-0.4858669340610504,-0.30077478289604187
1761131521044536300,0.441536376953125,-0.3125339448451996,-0.39240455627441406,-0.18043431639671326
1761131521054536200,0.4515361328125,-0.33024901151657104,-0.353920042514801,-0.11995866149663925
1761131521064535600,0.46153564453125,-0.32963815331459045,-0.3508657217025757,-0.08880453556776047
1761131521074535400,0.471535400390625,-0.3070361316204071,-0.3594178259372711,-0.082085020840168
1761131521084535600,0.48153564453125,-0.2709950804710388,-0.36308303475379944,-0.09002626687288284
1761131521094535400,0.491535400390625,-0.23800836503505707,-0.38812851905822754,-0.11507174372673035
1761131521104535600,0.50153564453125,-0.22029328346252441,-0.45349109172821045,-0.15538884699344635
1761131521114535400,0.511535400390625,-0.2154063582420349,-0.545120894908905,-0.2079232633113861
1761131521124535600,0.52153564453125,-0.22029328346252441,-0.6178138256072998,-0.264122873544693
1761131521134535400,0.531535400390625,-0.23861923813819885,-0.6422484517097473,-0.315435528755188
1761131521144535600,0.54153564453125,-0.27343854308128357,-0.6917285323143005,-0.3606395721435547
1761131521154535400,0.551535400390625,-0.3174208402633667,-0.6941719651222229,-0.38873937726020813
1761131521164536300,0.561536376953125,-0.3681226670742035,-0.6074291467666626,-0.3905719518661499
1761131521174536400,0.571536376953125,-0.43592870235443115,-0.5322927236557007,-0.3997349441051483
1761131521194536400,0.591536376953125,-0.5709299445152283,-0.6129269003868103,-0.5103015303611755
1761131521204536300,0.601536376953125,-0.5929210782051086,-0.668515682220459,-0.5878814458847046
1761131521214536400,0.611536376953125,-0.586812436580658,-0.6398049592971802,-0.6532440185546875
1761131521224536300,0.621536376953125,-0.5538256764411926,-0.4418846368789673,-0.6935611367225647
1761131521234536400,0.631536376953125,-0.49579349160194397,-0.09308059513568878,-0.677067756652832
1761131521244536300,0.641536376953125,-0.4139375686645508,0.32963815331459045,-0.5836054086685181
1761131521254536400,0.651536376953125,-0.3369685411453247,0.6827182769775391,-0.4162282943725586
1761131521264535600,0.66153564453125,-0.29481884837150574,0.8403214812278748,-0.19998200237751007
1761131521274535400,0.671535400390625,-0.32047519087791443,0.6161339282989502,0.13232868909835815
1761131521284535600,0.68153564453125,-0.4218788146972656,0.272827684879303,0.3168099820613861
1761131521294535400,0.691535400390625,-0.586201548576355,-0.06375905871391296,0.43470698595046997
1761131521304535600,0.70153564453125,-0.786565363407135,-0.28611400723457336,0.45486554503440857
1761131521314535400,0.711535400390625,-0.9643271565437317,-0.36247217655181885,0.3791182339191437
1761131521324535600,0.72153564453125,-1.101161003112793,-0.30566170811653137,0.2361757755279541
1761131521334535400,0.731535400390625,-1.1885147094726562,-0.14500413835048676,0.05597052723169327
1761131521344535600,0.74153564453125,-1.2123384475708008,-0.019776761531829834,-0.11873693019151688
1761131521354535400,0.751535400390625,-1.1604149341583252,0.10606148093938828,-0.22502748668193817
1761131521364536300,0.761536376953125,-1.0529025793075562,0.35468363761901855,-0.2293035387992859
1761131521374536200,0.7715361328125,-0.9417251348495483,0.5843689441680908,-0.1480584591627121
1761131521384536300,0.781536376953125,-0.8507062196731567,0.6796639561653137,-0.015500705689191818
1761131521394536200,0.7915361328125,-0.7700719833374023,0.6240752339363098,0.1500437706708908
1761131521404536300,0.801536376953125,-0.6967681646347046,0.47685667872428894,0.33941200375556946
1761131521414536200,0.8115361328125,-0.6295729875564575,0.30214923620224,0.5348888635635376
1761131521424536300,0.821536376953125,-0.5886450409889221,0.1396590620279312,0.7126506567001343
1761131521434536200,0.8315361328125,-0.5739842653274536,0.015042556449770927,0.8525388240814209
1761131521444536300,0.841536376953125,-0.576427698135376,-0.04726569727063179,0.9521098136901855
1761131521454536200,0.8515361328125,-0.5813146233558655,-0.05093089118599892,1.003422498703003
1761131521464535300,0.861535400390625,-0.595364511013031,-0.054596081376075745,0.996703028678894
1761131521474535400,0.871535400390625,-0.6124687790870667,-0.10896308720111847,0.9337838888168335
1761131521484535300,0.881535400390625,-0.6008623242378235,-0.21464277803897858,0.8433758020401001
1761131521494535400,0.891535400390625,-0.5727625489234924,-0.29100093245506287,0.748080849647522
1761131521504535300,0.901535400390625,-0.5422192811965942,-0.3496440052986145,0.6204100251197815
1761131521514535400,0.911535400390625,-0.5403866767883301,-0.3698025345802307,0.5464953184127808
1761131521524535300,0.921535400390625,-0.5526039600372314,-0.3649156391620636,0.48235446214675903
1761131521534535400,0.931535400390625,-0.5819255113601685,-0.35819610953330994,0.4218788146972656
1761131521544535300,0.941535400390625,-0.625296950340271,-0.3655264973640442,0.363235741853714
1761131521554535400,0.951535400390625,-0.6808856725692749,-0.3740786015987396,0.30886873602867126
1761131521564536300,0.961536376953125,-0.7438048124313354,-0.3502548635005951,0.27954721450805664
1761131521574536200,0.9715361328125,-0.80550217628479,-0.264122873544693,0.27466028928756714
1761131521584536300,0.981536376953125,-0.8562039732933044,-0.14561499655246735,0.2880993187427521
1761131521594536200,0.9915361328125,-0.8812494874000549,-0.04909829422831535,0.30031663179397583
1761131521604536300,1.001536376953125,-0.8678104281425476,0.015653422102332115,0.29970577359199524
1761131521614536000,1.011535888671875,-0.8219955563545227,0.07002042979001999,0.27404943108558655
1761131521624536000,1.0215361328125,-0.757243812084198,0.10239628702402115,0.21907155215740204
1761131521634536000,1.031535888671875,-0.6912704110145569,0.04619668424129486,0.13355042040348053
1761131521644536000,1.0415361328125,-0.6307947039604187,-0.11568260937929153,0.019318614155054092
1761131521654536000,1.051535888671875,-0.5800929069519043,-0.33681583404541016,-0.11873693019151688
1761131521664535300,1.061535400390625,-0.5397757887840271,-0.5817728042602539,-0.2885574698448181
1761131521674535200,1.07153515625,-0.4902957081794739,-0.7228826880455017,-0.47303876280784607
1761131521684535300,1.081535400390625,-0.4188244938850403,-0.6312528848648071,-0.619035542011261
1761131521694535200,1.09153515625,-0.3473532497882843,-0.34292447566986084,-0.6941719651222229
1761131521704535300,1.101535400390625,-0.3070361316204071,-0.06742425262928009,-0.7137196660041809
1761131521714535200,1.11153515625,-0.30459266901016235,0.0492510087788105,-0.7021132707595825
1761131521724535300,1.121535400390625,-0.3107013404369354,0.038866300135850906,-0.6666830778121948
1761131521734535400,1.131535400390625,-0.2960405647754669,-0.11507174372673035,-0.5921574831008911
1761131521744535300,1.141535400390625,-0.2868776023387909,-0.29772046208381653,-0.5463426113128662
1761131521754535400,1.151535400390625,-0.27832546830177307,-0.42416954040527344,-0.4913647174835205
1761131521764536000,1.1615361328125,-0.2673299014568329,-0.36186128854751587,-0.4009566605091095
1761131521774536200,1.1715361328125,-0.2679407596588135,-0.20486892759799957,-0.29222264885902405
1761131521784536000,1.1815361328125,-0.29542970657348633,-0.06253732740879059,-0.17982345819473267
1761131521794536200,1.1915361328125,-0.33513593673706055,0.024816401302814484,-0.08513934165239334
1761131521804536000,1.2015361328125,-0.37545305490493774,-0.00939205288887024,-0.030161472037434578
1761131521814536200,1.2115361328125,-0.4127158224582672,-0.17188221216201782,-0.022831087931990623
1761131521824536300,1.221536376953125,-0.45608726143836975,-0.41317397356033325,-0.06498079001903534
1761131521834535700,1.23153564453125,-0.5122868418693542,-0.6562983393669128,-0.14439326524734497
1761131521844535800,1.241535888671875,-0.5941427946090698,-0.8212319612503052,-0.2433534413576126
1761131521854535700,1.25153564453125,-0.7157049775123596,-0.8646034002304077,-0.3392592966556549
1761131521864534800,1.26153466796875,-0.8659778237342834,-0.8041277527809143,-0.4247804284095764
1761131521874535000,1.271534912109375,-1.0046442747116089,-0.667293906211853,-0.4974733889102936
1761131521884534800,1.28153466796875,-1.1115456819534302,-0.4473824203014374,-0.5432882905006409
1761131521894535000,1.291534912109375,-1.1860712766647339,-0.1731039434671402,-0.554894745349884
1761131521904534800,1.30153466796875,-1.2465468645095825,0.08223773539066315,-0.5206862688064575
1761131521914535200,1.31153515625,-1.2807554006576538,0.23923009634017944,-0.44432809948921204
1761131521924535000,1.32153515625,-1.2838096618652344,0.2929862439632416,-0.33192890882492065
1761131521934535200,1.33153515625,-1.2550990581512451,0.2758820056915283,-0.18532124161720276
1761131521944535000,1.34153515625,-1.2074514627456665,0.230677992105484,-0.012446379289031029
1761131521954535200,1.35153515625,-1.1622475385665894,0.16348281502723694,0.17081318795681
1761131521964535800,1.361535888671875,-1.1347585916519165,0.09201157838106155,0.35040757060050964
1761131521974536000,1.371535888671875,-1.1347585916519165,-0.060093868523836136,0.5495496392250061
1761131521984536000,1.3815361328125,-1.1451432704925537,-0.20914499461650848,0.6045275330543518
1761131521994536000,1.391535888671875,-1.1420888900756836,-0.3649156391620636,0.6014732122421265
1761131522004536000,1.4015361328125,-1.1268173456192017,-0.5286275148391724,0.5489387512207031
1761131522014536000,1.411535888671875,-1.0974957942962646,-0.6544657349586487,0.46036332845687866
1761131522024535800,1.421535888671875,-1.0761154890060425,-0.7448738217353821,0.3473532497882843
1761131522034536000,1.431535888671875,-1.0693960189819336,-0.7839691638946533,0.22456933557987213
1761131522044535800,1.441535888671875,-1.0724502801895142,-0.7577019929885864,0.1152244582772255
1761131522054536000,1.451535888671875,-1.0834459066390991,-0.6917285323143005,0.029703322798013687
1761131522064535000,1.46153515625,-1.098717451095581,-0.6074291467666626,-0.025885414332151413
1761131522074535000,1.471534912109375,-1.118265151977539,-0.5109124183654785,-0.04970915988087654
1761131522084535000,1.48153515625,-1.1426998376846313,-0.406454473733902,-0.042989641427993774
1761131522094535000,1.491534912109375,-1.1689670085906982,-0.3001639246940613,-0.017333300784230232
1761131522104535000,1.50153515625,-1.1903473138809204,-0.22502748668193817,0.018096882849931717
1761131522114535000,1.511534912109375,-1.1799626350402832,-0.18043431639671326,0.05902485549449921
1761131522124535000,1.52153515625,-1.129260778427124,-0.13034337759017944,0.11094839870929718
1761131522134535400,1.531535400390625,-1.0474047660827637,-0.08391761034727097,0.17081318795681
1761131522144535600,1.54153564453125,-0.9533315896987915,-0.0973566472530365,0.2154063582420349
1761131522154535400,1.551535400390625,-0.8525388240814209,-0.2036471962928772,0.23251058161258698
1761131522164536300,1.561536376953125,-0.7346417903900146,-0.3563635051250458,0.22395847737789154
1761131522178174500,1.575174560546875,-0.6130796074867249,-0.5371796488761902,0.18241962790489197
1761131522188174600,1.585174560546875,-0.4994587004184723,-0.7173848748207092,0.10178542137145996
1761131522198174500,1.595174560546875,-0.39622247219085693,-0.8529969453811646,-0.0069485921412706375
1761131522208174600,1.605174560546875,-0.27527114748954773,-0.9672287702560425,-0.2036471962928772
1761131522218174500,1.615174560546875,-0.2105194330215454,-0.9898307919502258,-0.34231361746788025
1761131522228174600,1.625174560546875,-0.15737415850162506,-1.0087676048278809,-0.48403435945510864
1761131522238174500,1.635174560546875,-0.10056369006633759,-1.0283153057098389,-0.6135377883911133
1761131522248174600,1.645174560546875,-0.03153591975569725,-1.020374059677124,-0.7179957628250122
1761131522258174500,1.655174560546875,0.045433104038238525,-0.9372963309288025,-0.7803040146827698
1761131522268173600,1.665173583984375,0.1071304902434349,-0.7595345973968506,-0.7961865067481995
1761131522278172700,1.675172607421875,0.1480584591627121,-0.5524512529373169,-0.7693084478378296
1761131522288172800,1.6851728515625,0.152334526181221,-0.35697436332702637,-0.7112762331962585
1761131522298172700,1.695172607421875,0.12973250448703766,-0.23968824744224548,-0.638583242893219
1761131522308172800,1.7051728515625,0.07414376735687256,-0.22563834488391876,-0.5689446330070496
1761131522318172700,1.715172607421875,0.002672535367310047,-0.2726749777793884,-0.5115233063697815
1761131522328172800,1.7251728515625,-0.08223773539066315,-0.3801872432231903,-0.4608214795589447
1761131522338172700,1.735172607421875,-0.15859588980674744,-0.49502992630004883,-0.4040110111236572
1761131522348172800,1.7451728515625,-0.21723894774913788,-0.4974733889102936,-0.33192890882492065
1761131522358172700,1.755172607421875,-0.263053834438324,-0.3398701548576355,-0.24640776216983795
1761131522368173600,1.765173583984375,-0.3076470196247101,-0.08147415518760681,-0.1529453843832016
1761131522378173400,1.77517333984375,-0.34368807077407837,0.21296289563179016,-0.04421137273311615
1761131522388173600,1.785173583984375,-0.3589596748352051,0.5061782002449036,0.09262244403362274
1761131522398173400,1.79517333984375,-0.3681226670742035,0.7236462235450745,0.24961480498313904
1761131522408173600,1.805173583984375,-0.3785073757171631,0.8140543103218079,0.4035528600215912
1761131522418173400,1.81517333984375,-0.3876703679561615,0.7615199089050293,0.5409975051879883
1761131522428173600,1.825173583984375,-0.40110939741134644,0.6320164799690247,0.6576728224754333
1761131522438173400,1.83517333984375,-0.4481460154056549,0.391946405172348,0.7627416253089905
1761131522448173600,1.845173583984375,-0.5043455958366394,0.22762365639209747,0.7602981328964233
1761131522458173400,1.85517333984375,-0.5605452060699463,0.11217013001441956,0.7108180522918701
1761131522468172500,1.865172607421875,-0.6216317415237427,0.05719225853681564,0.6289620995521545
1761131522478172700,1.875172607421875,-0.6827182769775391,0.030314188450574875,0.5263367891311646
1761131522488172500,1.885172607421875,-0.7358635663986206,0.05841398984193802,0.42126795649528503
1761131522498172400,1.89517236328125,-0.7700719833374023,0.13660474121570587,0.32902729511260986
1761131522508172500,1.905172607421875,-0.7835110425949097,0.23739750683307648,0.2661081850528717
1761131522518172400,1.91517236328125,-0.7712937593460083,0.3528510332107544,0.23373231291770935
1761131522528172500,1.925172607421875,-0.7376961708068848,0.4676937162876129,0.23006711900234222
1761131522538172400,1.93517236328125,-0.6827182769775391,0.5617669224739075,0.24411702156066895
1761131522548172500,1.945172607421875,-0.6143013834953308,0.6265186667442322,0.2624429762363434
1761131522558172400,1.95517236328125,-0.5397757887840271,0.6558402180671692,0.27404943108558655
1761131522578174200,1.97517431640625,-0.3675118088722229,0.6020840406417847,0.2819906771183014
1761131522588174300,1.98517431640625,-0.272827684879303,0.5208389759063721,0.2960405647754669
1761131522598174200,1.99517431640625,-0.1757001131772995,0.4139375686645508,0.32414036989212036
1761131522608174300,2.00517431640625,-0.09201157838106155,0.2661081850528717,0.3638466000556946
1761131522618174200,2.01517431640625,-0.027870727702975273,0.09750936180353165,0.4041637182235718
1761131522628174300,2.02517431640625,0.01794416643679142,-0.0918588638305664,0.43470698595046997
1761131522638174200,2.03517431640625,0.06131559982895851,-0.27756190299987793,0.453643798828125
1761131522648174300,2.04517431640625,0.11079568415880203,-0.4150065779685974,0.46647197008132935
1761131522658174200,2.05517431640625,0.15905404090881348,-0.49502992630004883,0.4695262908935547
1761131522668173600,2.065173583984375,0.19204075634479523,-0.5573381781578064,0.4591415822505951
1761131522678173400,2.07517333984375,0.21281017363071442,-0.6330854892730713,0.41088324785232544
1761131522688173600,2.085173583984375,0.21769709885120392,-0.6752351522445679,0.36079227924346924
1761131522698173400,2.09517333984375,0.22075143456459045,-0.7204391956329346,0.29542970657348633
1761131522708173600,2.105173583984375,0.23052527010440826,-0.7680866718292236,0.2264019250869751
1761131522718173400,2.11517333984375,0.25251641869544983,-0.7699192762374878,0.16714800894260406
1761131522728173300,2.12517333984375,0.283059686422348,-0.7124979496002197,0.12683089077472687
1761131522748173300,2.14517333984375,0.3239876627922058,-0.5237405896186829,0.09628763794898987
1761131522768174300,2.16517431640625,0.3490331172943115,-0.264122873544693,0.10361801832914352
1761131522778174200,2.17517431640625,0.3643047511577606,-0.11690433323383331,0.11766792088747025
1761131522788174300,2.18517431640625,0.37713292241096497,0.010766499675810337,0.13293954730033875
1761131522798174200,2.19517431640625,0.3948480188846588,0.08651378750801086,0.14637859165668488
1761131522808174000,2.205174072265625,0.4205043613910675,0.12622003257274628,0.16409367322921753
1761131522818174200,2.21517431640625,0.4571562707424164,0.13416127860546112,0.17814357578754425
1761131522828173600,2.225173583984375,0.5035820603370667,0.10545061528682709,0.1860848218202591
1761131522838173400,2.23517333984375,0.5573381781578064,0.033368512988090515,0.1757001131772995
1761131522848173600,2.245173583984375,0.6147595047950745,-0.04115704447031021,0.1457677185535431
1761131522858173400,2.25517333984375,0.6721808314323425,-0.082085020840168,0.0895681157708168
1761131522878172700,2.275172607421875,0.7754170894622803,-0.18654297292232513,-0.12362385541200638
1761131522888172800,2.2851728515625,0.8352818489074707,-0.32643112540245056,-0.2842814028263092
1761131522908172800,2.3051728515625,1.0503064393997192,-0.8022951483726501,-0.7033349871635437
1761131522918172700,2.315172607421875,1.1388819217681885,-0.9745591282844543,-0.8175667524337769
1761131522928172800,2.3251728515625,1.2213486433029175,-1.0979539155960083,-0.8694903254508972
1761131522938172700,2.335172607421875,1.2928199768066406,-1.1700360774993896,-0.8536078333854675
1761131522948172800,2.3451728515625,1.3459652662277222,-1.1077277660369873,-0.7564802765846252
1761131522958172700,2.355172607421875,1.3942235708236694,-0.7919104099273682,-0.5622251033782959
1761131522968173600,2.365173583984375,1.421101689338684,-0.1932624876499176,-0.2836705446243286
1761131522978173400,2.37517333984375,1.3954453468322754,0.5654321312904358,0.033368512988090515
1761131522988173600,2.385173583984375,1.2958742380142212,1.253266453742981,0.3320816159248352
1761131522998173400,2.39517333984375,1.161483883857727,1.6796503067016602,0.5654321312904358
1761131523008173600,2.405173583984375,1.0539716482162476,1.8170950412750244,0.7169266939163208
1761131523018173400,2.41517333984375,0.991052508354187,1.737682580947876,0.7932848930358887
1761131523028173000,2.425173095703125,0.9678395986557007,1.4194217920303345,0.795728325843811
1761131523038173200,2.435173095703125,0.9751700162887573,0.899575412273407,0.7297548651695251
1761131523048173000,2.445173095703125,1.0099893808364868,0.3174208402633667,0.6277403831481934
1761131523058173200,2.455173095703125,1.05946946144104,-0.2036471962928772,0.5049564838409424
1761131523068172500,2.465172607421875,1.112614631652832,-0.5524512529373169,0.37545305490493774
1761131523078172400,2.47517236328125,1.143157958984375,-0.6318637132644653,0.26977336406707764
1761131523088172500,2.485172607421875,1.1358275413513184,-0.5121341347694397,0.19769126176834106
1761131523098172400,2.49517236328125,1.1083385944366455,-0.25679248571395874,0.16165021061897278
1761131523108172500,2.505172607421875,1.068021535873413,0.10545061528682709,0.17081318795681
1761131523118172400,2.51517236328125,1.0142654180526733,0.4786892831325531,0.21479548513889313
1761131523128173300,2.52517333984375,0.9220247268676758,0.9062949419021606,0.3375793993473053
1761131523138173200,2.535173095703125,0.8743772506713867,1.0614547729492188,0.44020476937294006
1761131523148173300,2.54517333984375,0.838336169719696,1.139034628868103,0.5464953184127808
1761131523158173200,2.555173095703125,0.8065711855888367,1.1622475385665894,0.644233763217926
1761131523168174000,2.565174072265625,0.771751880645752,1.1451432704925537,0.7212027907371521
1761131523178174000,2.575174072265625,0.7363216876983643,1.091387152671814,0.7743480801582336
1761131523188174000,2.585174072265625,0.7008914947509766,0.996703028678894,0.7969500422477722
1761131523198174200,2.59517431640625,0.6697373986244202,0.8586474657058716,0.7877870798110962
1761131523208174000,2.605174072265625,0.647746205329895,0.6918812394142151,0.7529677748680115
1761131523218174000,2.615174072265625,0.6355289220809937,0.5159520506858826,0.6979898810386658
1761131523228174000,2.625174072265625,0.630031168460846,0.3326924741268158,0.6259077787399292
1761131523238174000,2.635174072265625,0.6312528848648071,0.15737415850162506,0.5379431843757629
1761131523248174000,2.645174072265625,0.6355289220809937,0.015653422102332115,0.4383721649646759
1761131523258174000,2.655174072265625,0.6440810561180115,-0.09369145333766937,0.32963815331459045
1761131523268173300,2.66517333984375,0.6471353769302368,-0.182877779006958,0.2105194330215454
1761131523278173200,2.675173095703125,0.6471353769302368,-0.25190556049346924,0.08773551881313324
1761131523288173300,2.68517333984375,0.6465244889259338,-0.31115949153900146,-0.036880988627672195
1761131523298173200,2.695173095703125,0.6471353769302368,-0.3716351389884949,-0.14866933226585388
1761131523308173300,2.70517333984375,0.6520223021507263,-0.43333253264427185,-0.23663392663002014
1761131523318173200,2.715173095703125,0.65874183177948,-0.4913647174835205,-0.29161179065704346
1761131523328173600,2.725173583984375,0.677067756652832,-0.5029711723327637,-0.30138564109802246
1761131523338173700,2.735173583984375,0.6929502487182617,-0.4504367709159851,-0.2647337317466736
1761131523348140300,2.745140380859375,0.6843981742858887,-0.34781140089035034,-0.1981494128704071
1761131523358107100,2.755107177734375,0.6544657349586487,-0.21219931542873383,-0.11079568415880203
1761131523368074500,2.765074462890625,0.6153703927993774,-0.07780896127223969,-0.016722436994314194
1761131523378041000,2.775041015625,0.5732206702232361,0.030925052240490913,0.07002042979001999
1761131523388007700,2.785007568359375,0.5384013652801514,0.08651378750801086,0.13721559941768646
1761131523397974300,2.794974365234375,0.5096907019615173,0.09323330968618393,0.17936530709266663
1761131523407941000,2.804941162109375,0.47792568802833557,-0.04421137273311615,0.1757001131772995
1761131523417907700,2.81490771484375,0.47426050901412964,-0.23602305352687836,0.12927435338497162
1761131523427874300,2.824874267578125,0.49869510531425476,-0.42416954040527344,0.06085744872689247
1761131523437841200,2.834841064453125,0.5524512529373169,-0.5200753808021545,-0.019776761531829834
1761131523447807700,2.844807861328125,0.6227007508277893,-0.4925864636898041,-0.12118039280176163
1761131523457774300,2.8547744140625,0.7027240991592407,-0.4150065779685974,-0.2390773892402649
1761131523467740200,2.864740234375,0.7900778651237488,-0.38812851905822754,-0.36674821376800537
1761131523477706800,2.874706787109375,0.8878162503242493,-0.3905719518661499,-0.4669301211833954
1761131523487673600,2.884673583984375,0.9794460535049438,-0.4009566605091095,-0.5212971568107605
1761131523497640200,2.89464013671875,1.0576368570327759,-0.41378483176231384,-0.5280166268348694
1761131523507606800,2.904606689453125,1.126664638519287,-0.37285688519477844,-0.4809800088405609
1761131523517573400,2.914573486328125,1.1901946067810059,-0.21097758412361145,-0.38201984763145447
1761131523527540200,2.924540283203125,1.249448537826538,0.0797942727804184,-0.22686007618904114
1761131523537506800,2.9345068359375,1.2891547679901123,0.46036332845687866,-0.022831087931990623
1761131523547473400,2.944473388671875,1.313589334487915,0.8635343909263611,0.19708040356636047
1761131523557440300,2.954440185546875,1.3392456769943237,1.1897363662719727,0.4023311138153076
1761131523567407600,2.96440771484375,1.3795628547668457,1.3540592193603516,0.5623778104782104
1761131523577374200,2.974374267578125,1.4620295763015747,1.4035392999649048,0.6668357849121094
1761131523587341000,2.984341064453125,1.5835918188095093,1.3699417114257812,0.708985447883606
1761131523597307600,2.9943076171875,1.730810284614563,1.2807554006576538,0.6986007690429688
1761131523607274200,3.004274169921875,1.8755853176116943,1.145754098892212,0.6558402180671692
1761131523617241000,3.014240966796875,1.9965367317199707,0.9844856858253479,0.5978080034255981
1761131523627207700,3.024207763671875,2.0875556468963623,0.8018369674682617,0.5348888635635376
1761131523637174300,3.03417431640625,2.157194137573242,0.6210208535194397,0.4793001413345337
1761131523647174400,3.04417431640625,2.2140047550201416,0.46586111187934875,0.4231005311012268
1761131523657174300,3.05417431640625,2.2195024490356445,0.5086216926574707,0.41454842686653137
1761131523667173400,3.06417333984375,2.184072256088257,0.6698901057243347,0.4188244938850403
1761131523677173500,3.074173583984375,2.1162662506103516,0.928286075592041,0.43653959035873413
1761131523687173400,3.08417333984375,2.0154736042022705,1.24104905128479,0.45120033621788025
1761131523697173500,3.094173583984375,1.8908569812774658,1.5458709001541138,0.45181119441986084
1761131523707173400,3.10417333984375,1.7509688138961792,1.8140406608581543,0.4243222773075104
1761131523717173500,3.114173583984375,1.6116915941238403,2.038839101791382,0.36018142104148865
1761131523727173400,3.12417333984375,1.4876859188079834,2.2251529693603516,0.26855164766311646
1761131523737173500,3.134173583984375,1.3911691904067993,2.3534348011016846,0.1610393524169922
1761131523747173400,3.14417333984375,1.323363184928894,2.355267286300659,0.04864014685153961
1761131523757173500,3.154173583984375,1.3032046556472778,2.1866683959960938,-0.05826127156615257
1761131523767174100,3.164174072265625,1.3355804681777954,1.936213731765747,-0.1419498175382614
1761131523777174300,3.17417431640625,1.4088842868804932,1.6937001943588257,-0.2085341215133667
1761131523787174400,3.18417431640625,1.475468635559082,1.4750105142593384,-0.26656633615493774
1761131523797174300,3.19417431640625,1.511509656906128,1.2575424909591675,-0.32765284180641174
1761131523807174400,3.20417431640625,1.5194509029388428,1.0138071775436401,-0.3991240859031677
1761131523817174300,3.21417431640625,1.5304465293884277,0.7511351704597473,-0.4571562707424164
1761131523827174400,3.22417431640625,1.5677093267440796,0.49273917078971863,-0.48342347145080566
1761131523837174300,3.23417431640625,1.626352310180664,0.2832123935222626,-0.47426050901412964
1761131523847174400,3.24417431640625,1.6801085472106934,0.1604284793138504,-0.4363868534564972
1761131523857174300,3.25417431640625,1.704543113708496,0.1256091594696045,-0.38690677285194397
1761131523867173400,3.26417333984375,1.691714882850647,0.18975001573562622,-0.33192890882492065
1761131523877173500,3.274173583984375,1.6404023170471191,0.3833943009376526,-0.24457517266273499
1761131523887173400,3.28417333984375,1.6159676313400269,0.5202280879020691,-0.16455182433128357
1761131523897173500,3.294173583984375,1.6031395196914673,0.6405685544013977,-0.057650405913591385
1761131523907173400,3.30417333984375,1.6006959676742554,0.7242571115493774,0.06879869848489761
1761131523917173500,3.314173583984375,1.6013069152832031,0.7786241173744202,0.20685423910617828
1761131523927173000,3.324173095703125,1.6025285720825195,0.7993935346603394,0.34063372015953064
1761131523937173000,3.334173095703125,1.5988633632659912,0.7890087962150574,0.45181119441986084
1761131523947173000,3.344173095703125,1.5976417064666748,0.7499134540557861,0.5287802219390869
1761131523957173000,3.354173095703125,1.6043611764907837,0.6784422397613525,0.5697082281112671
1761131523967174000,3.364173828125,1.6141350269317627,0.5709299445152283,0.5745950937271118
1761131523977174000,3.374174072265625,1.626352310180664,0.4530329406261444,0.5538256764411926
1761131523987174000,3.384173828125,1.638569712638855,0.3669009506702423,0.5196172595024109
1761131523997174000,3.394174072265625,1.6355153322219849,0.3589596748352051,0.4780784249305725
1761131524007174000,3.404173828125,1.6129133701324463,0.4328743815422058,0.43653959035873413
1761131524017174000,3.414174072265625,1.5738179683685303,0.6228534579277039,0.3925572633743286
1761131524027174000,3.424173828125,1.5182292461395264,0.9032406210899353,0.3375793993473053
1761131524037174000,3.434174072265625,1.4406492710113525,1.1988993883132935,0.2624429762363434
1761131524047174000,3.444173828125,1.3667346239089966,1.4200326204299927,0.16836974024772644
1761131524057174000,3.454174072265625,1.3196979761123657,1.575803279876709,0.0797942727804184
1761131524067173000,3.464173095703125,1.3056480884552002,1.6851481199264526,0.014431691728532314
1761131524077173000,3.474173095703125,1.3093132972717285,1.699808955192566,-0.031383201479911804
1761131524087173000,3.484173095703125,1.3368022441864014,1.5709162950515747,-0.06986771523952484
1761131524097173000,3.494173095703125,1.3978887796401978,1.3595569133758545,-0.08941540122032166
1761131524107173000,3.504173095703125,1.55182683467865,1.099939227104187,-0.057650405913591385
1761131524117173000,3.514173095703125,1.6562848091125488,1.0009790658950806,-0.011835514567792416
1761131524127172900,3.5241728515625,1.7375298738479614,0.9893726110458374,0.05047274008393288
1761131524137173000,3.534173095703125,1.7851773500442505,1.044350504875183,0.1201113760471344
1761131524147172900,3.5441728515625,1.7967838048934937,1.1029936075210571,0.18241962790489197
1761131524157173000,3.554173095703125,1.7870099544525146,1.0828349590301514,0.22701279819011688
1761131524167174000,3.564173828125,1.7778469324111938,0.9545533061027527,0.25022566318511963
1761131524177173800,3.574173828125,1.7747925519943237,0.7554112076759338,0.2661081850528717
1761131524187174000,3.584173828125,1.7747925519943237,0.5049564838409424,0.282601535320282
1761131524197173800,3.594173828125,1.7821229696273804,0.23189972341060638,0.29909488558769226
1761131524207174000,3.604173828125,1.8016706705093384,-0.05581781268119812,0.3119230568408966
1761131524217173800,3.614173828125,1.8358790874481201,-0.35697436332702637,0.3180317282676697
1761131524227174100,3.624174072265625,1.8890243768692017,-0.6495788097381592,0.31986430287361145
1761131524237174300,3.63417431640625,1.9641607999801636,-0.878042459487915,0.31925344467163086
1761131524247174100,3.644174072265625,2.0490710735321045,-1.0167088508605957,0.3174208402633667
1761131524257174300,3.65417431640625,2.1321487426757812,-1.077795386314392,0.31864258646965027
1761131524267173400,3.66417333984375,2.201176643371582,-1.05641508102417,0.3265838325023651
1761131524277173500,3.674173583984375,2.2494349479675293,-0.9782243371009827,0.33880114555358887
1761131524287173400,3.68417333984375,2.273869514465332,-0.868268609046936,0.3638466000556946
1761131524297173500,3.694173583984375,2.281810760498047,-0.7326564788818359,0.41149410605430603
1761131524307173400,3.70417333984375,2.2671499252319336,-0.5591707825660706,0.4890739917755127
1761131524317173500,3.714173583984375,2.228665590286255,-0.3612504303455353,0.5904776453971863
1761131524327173400,3.72417333984375,2.164524555206299,-0.15722143650054932,0.7016550898551941
1761131524337173500,3.734173583984375,2.0686187744140625,0.13110695779323578,0.8604800701141357
1761131524347173400,3.74417333984375,2.033188581466675,0.24839307367801666,0.9472229480743408
1761131524357173500,3.754173583984375,2.027690887451172,0.2716059684753418,1.0101420879364014
1761131524376419300,3.77341943359375,2.086944818496704,0.13660474121570587,1.0461831092834473
1761131524386419500,3.78341943359375,2.139479160308838,0.0797942727804184,1.0272462368011475
1761131524396419300,3.79341943359375,2.1907918453216553,0.06635523587465286,1.0009790658950806
1761131524406419500,3.80341943359375,2.223167657852173,0.08284860104322433,0.9692140817642212
1761131524416419300,3.81341943359375,2.2298872470855713,0.0999528244137764,0.9398925304412842
1761131524426419500,3.82341943359375,2.2256112098693848,0.08101600408554077,0.9142361879348755
1761131524436419300,3.83341943359375,2.2280545234680176,0.04680754989385605,0.909349262714386
1761131524446419500,3.84341943359375,2.248213291168213,-0.010002918541431427,0.9258426427841187
1761131524456419300,3.85341943359375,2.2866976261138916,-0.04909829422831535,0.9612728357315063
1761131524466418400,3.86341845703125,2.327014684677124,-0.027718011289834976,0.9936487078666687
1761131524476418600,3.87341845703125,2.349616765975952,0.05902485549449921,1.0070877075195312
1761131524486418400,3.88341845703125,2.346562385559082,0.20807597041130066,0.9832639694213867
1761131524496418600,3.89341845703125,2.3257930278778076,0.3974441885948181,0.9166796803474426
1761131524506418400,3.90341845703125,2.2983040809631348,0.5422192811965942,0.8128325939178467
1761131524516418600,3.91341845703125,2.29647159576416,0.5654321312904358,0.6973790526390076
1761131524526418400,3.92341845703125,2.370997190475464,0.47258061170578003,0.6222426295280457
1761131524536418600,3.93341845703125,2.5243241786956787,0.292375385761261,0.6106361746788025
1761131524546418400,3.94341845703125,2.7051403522491455,0.1604284793138504,0.6705009937286377
1761131524556418600,3.95341845703125,2.8273134231567383,0.23800836503505707,0.7883979678153992
1761131524566419200,3.963419189453125,2.796159267425537,0.6900486350059509,1.003422498703003
1761131524576419300,3.97341943359375,2.662379741668701,1.0871111154556274,1.1567497253417969
1761131524586419200,3.983419189453125,2.4907267093658447,1.443245530128479,1.299692153930664
1761131524596419300,3.99341943359375,2.320906162261963,1.7053066492080688,1.4212543964385986
1761131524606419200,4.003419189453125,2.184683084487915,1.8500818014144897,1.5037211179733276
1761131524616419300,4.01341943359375,2.089388132095337,1.8488600254058838,1.536707878112793
1761131524626419500,4.02341943359375,2.0075323581695557,1.7254652976989746,1.5165493488311768
1761131524636419300,4.03341943359375,1.9366718530654907,1.5189927816390991,1.4542410373687744
1761131524646419500,4.04341943359375,1.8798614740371704,1.2172253131866455,1.3393983840942383
1761131524656419300,4.05341943359375,1.85787034034729,0.8885798454284668,1.1811842918395996
1761131524666418400,4.06341845703125,1.8816940784454346,0.5794820189476013,1.0009790658950806
1761131524676418600,4.07341845703125,1.9391154050827026,0.3742313086986542,0.8189412355422974
1761131524686418400,4.08341845703125,2.011808395385742,0.3119230568408966,0.6570619344711304
1761131524696418600,4.09341845703125,2.0875556468963623,0.3577379584312439,0.5208389759063721
1761131524706418400,4.10341845703125,2.1663572788238525,0.5135086178779602,0.42554399371147156
1761131524716418600,4.11341845703125,2.243326187133789,0.7560220956802368,0.3778965175151825
1761131524726418400,4.12341845703125,2.310521364212036,1.024802803993225,0.3772856593132019
1761131524736418300,4.133418212890625,2.3593907356262207,1.2697597742080688,0.4231005311012268
1761131524746418400,4.14341845703125,2.3807709217071533,1.4377477169036865,0.511676013469696
1761131524756418300,4.153418212890625,2.374051332473755,1.5110515356063843,0.6307947039604187
1761131524766419200,4.163419189453125,2.3508384227752686,1.536707878112793,0.7700719833374023
1761131524776419300,4.17341943359375,2.331901788711548,1.5580881834030151,0.9087384343147278
1761131524786419200,4.183419189453125,2.3166301250457764,1.5977944135665894,1.03274405002594
1761131524796419300,4.19341943359375,2.304412841796875,1.6698764562606812,1.1701887845993042
1761131524806419200,4.203419189453125,2.2799782752990723,1.6930893659591675,1.2086732387542725
1761131524816419300,4.21341943359375,2.2604305744171143,1.6851481199264526,1.2080624103546143
1761131524826419500,4.22341943359375,2.232330799102783,1.66071355342865,1.1793516874313354
1761131524836419300,4.23341943359375,2.203619956970215,1.6087900400161743,1.1249847412109375
1761131524846419500,4.24341943359375,2.181628942489624,1.5153275728225708,1.053513526916504
1761131524856419300,4.25341943359375,2.165135622024536,1.4261412620544434,0.9728792905807495
1761131524866418400,4.26341845703125,2.1437551975250244,1.3699417114257812,0.8843038082122803
1761131524876418600,4.27341845703125,2.111990213394165,1.3601678609848022,0.7877870798110962
1761131524886418400,4.28341845703125,2.069840431213379,1.3711633682250977,0.6882160305976868
1761131524896418600,4.29341845703125,2.0240256786346436,1.374828577041626,0.5935319662094116
1761131524906418400,4.30341845703125,1.9818758964538574,1.3638330698013306,0.5135086178779602
1761131524916418600,4.31341845703125,1.9519435167312622,1.3491722345352173,0.45669811964035034
1761131524926418400,4.32341845703125,1.933006763458252,1.3021355867385864,0.4182136058807373
1761131524936418600,4.33341845703125,1.9366718530654907,1.1976776123046875,0.4072180390357971
1761131524946418400,4.34341845703125,1.9586631059646606,1.060843825340271,0.42615485191345215
1761131524956418600,4.35341845703125,1.9843194484710693,0.9356164932250977,0.47258061170578003
1761131524966419500,4.36341943359375,2.002645254135132,0.8531496524810791,0.5397757887840271
1761131524976419300,4.37341943359375,1.9983693361282349,0.8439866900444031,0.6240752339363098
1761131524986419500,4.38341943359375,1.9635499715805054,0.9252317547798157,0.7224245071411133
1761131524996419300,4.39341943359375,1.8896353244781494,1.0828349590301514,0.8146651387214661
1761131525006419500,4.40341943359375,1.7876207828521729,1.291140079498291,0.889801561832428
1761131525016419300,4.41341943359375,1.6630042791366577,1.4750105142593384,0.9429468512535095
1761131525026419500,4.42341943359375,1.5304465293884277,1.5715272426605225,0.9808205366134644
1761131525036419300,4.43341943359375,1.3545173406600952,1.5770249366760254,1.0119746923446655
1761131525046419500,4.44341943359375,1.275715708732605,1.5385404825210571,1.0046442747116089
1761131525056419300,4.45341943359375,1.2311224937438965,1.490893006324768,0.9826530814170837
1761131525066418400,4.46341845703125,1.2134073972702026,1.4310282468795776,0.9374490976333618
1761131525076418600,4.47341845703125,1.2127965688705444,1.3607786893844604,0.8733082413673401
1761131525086418400,4.48341845703125,1.2219595909118652,1.3314571380615234,0.8116108179092407
1761131525096418600,4.49341845703125,1.2207378149032593,1.3815481662750244,0.7627416253089905
1761131525106418400,4.50341845703125,1.2048553228378296,1.4963908195495605,0.7248679995536804
1761131525116418600,4.51341845703125,1.1663708686828613,1.64177668094635,0.6912704110145569
1761131525126418400,4.52341845703125,1.1211668252944946,1.7804430723190308,0.6625596880912781
1761131525136418600,4.53341845703125,1.068021535873413,1.840918779373169,0.6301838755607605
1761131525146418400,4.54341845703125,1.0160980224609375,1.7957147359848022,0.6026949286460876
1761131525156418600,4.55341845703125,0.981278657913208,1.718134880065918,0.5843689441680908
1761131525166419200,4.563419189453125,0.9513462781906128,1.6216181516647339,0.5758168697357178
1761131525176419300,4.57341943359375,0.9091965556144714,1.4768431186676025,0.5660430192947388
1761131525186419200,4.583419189453125,0.857883870601654,1.3045791387557983,0.5422192811965942
1761131525196419300,4.59341943359375,0.7961865067481995,1.1091022491455078,0.49640437960624695
1761131525206419200,4.603419189453125,0.7320456504821777,0.8934667706489563,0.42065706849098206
1761131525216419300,4.61341943359375,0.6660721898078918,0.6900486350059509,0.311312198638916
1761131525226419200,4.623419189453125,0.5897140502929688,0.5550474524497986,0.17081318795681
1761131525236419300,4.63341943359375,0.47853657603263855,0.5471062064170837,0.005879578180611134
1761131525246419200,4.643419189453125,0.32765284180641174,0.6393468379974365,-0.18226692080497742
1761131525256419300,4.65341943359375,0.1529453843832016,0.7401396036148071,-0.38385245203971863
1761131525266418400,4.66341845703125,-0.06818783283233643,0.8024478554725647,-0.6434701681137085
1761131525276418600,4.67341845703125,-0.1549306958913803,0.8500953316688538,-0.7741953134536743
1761131525286418400,4.68341845703125,-0.19341520965099335,0.9423360228538513,-0.8621599078178406
1761131525296418300,4.693418212890625,-0.21418462693691254,1.0504591464996338,-0.9128617644309998
1761131525306418400,4.70341845703125,-0.22212587296962738,1.1237629652023315,-0.953178882598877
1761131525316418300,4.713418212890625,-0.20929770171642303,1.109713077545166,-0.9825003743171692
1761131525326418400,4.72341845703125,-0.17631098628044128,1.0223593711853027,-0.9934959411621094
1761131525336418300,4.733418212890625,-0.13110695779323578,0.8293259143829346,-0.9745591282844543
1761131525346418400,4.74341845703125,-0.07673994451761246,0.5440518856048584,-0.9067531228065491
1761131525356418300,4.753418212890625,-0.025427265092730522,0.3357468247413635,-0.7980191111564636
1761131525366419200,4.763419189453125,0.0020616701804101467,0.3076470196247101,-0.6569092273712158
1761131525376419300,4.77341943359375,-0.008323038928210735,0.4078288972377777,-0.5103015303611755
1761131525386419200,4.783419189453125,-0.05719225853681564,0.5061782002449036,-0.38201984763145447
1761131525396419300,4.79341943359375,-0.10606148093938828,0.49701523780822754,-0.2683989107608795
1761131525406419200,4.803419189453125,-0.11583532392978668,0.382783442735672,-0.15538884699344635
1761131525416419300,4.81341943359375,-0.07918340712785721,0.29420796036720276,-0.03443752974271774
1761131525426419200,4.823419189453125,-0.021762074902653694,0.30337095260620117,0.08162686973810196
1761131525436419300,4.83341943359375,0.01366810966283083,0.36629006266593933,0.1659262776374817
1761131525446419200,4.843419189453125,0.01061378326267004,0.453643798828125,0.21479548513889313
1761131525456419300,4.85341943359375,-0.021762074902653694,0.5061782002449036,0.2264019250869751
1761131525466418400,4.86341845703125,-0.05841398984193802,0.43104177713394165,0.20318904519081116
1761131525476418300,4.873418212890625,-0.06879869848489761,0.2856558561325073,0.16409367322921753
1761131525486418400,4.88341845703125,-0.059635721147060394,0.20196732878684998,0.1353830099105835
1761131525496418300,4.893418212890625,-0.05902485549449921,0.21296289563179016,0.11339186131954193
1761131525506418400,4.90341845703125,-0.07735081017017365,0.23739750683307648,0.1146135926246643
1761131525516418300,4.913418212890625,-0.09812022745609283,0.25999951362609863,0.1256091594696045
1761131525526418400,4.92341845703125,-0.09873109310865402,0.25816693902015686,0.13660474121570587
1761131525536418300,4.933418212890625,-0.06879869848489761,0.2520582675933838,0.14454598724842072
1761131525546418400,4.94341845703125,-0.035811975598335266,0.2520582675933838,0.1457677185535431
1761131525556418300,4.953418212890625,-0.03520110994577408,0.23861923813819885,0.12805262207984924
1761131525566419200,4.963419189453125,-0.07796167582273483,0.1799761801958084,0.0846811980009079
1761131525576419000,4.973419189453125,-0.140269935131073,0.1457677185535431,0.039477165788412094
1761131525586419200,4.983419189453125,-0.19891299307346344,0.1909717470407486,0.012599095702171326
1761131525596419300,4.99341943359375,-0.24839307367801666,0.25022566318511963,0.00038179077091626823
1761131525606419200,5.003419189453125,-0.2813797891139984,0.25999951362609863,-0.01488984003663063
1761131525616419300,5.01341943359375,-0.2807689309120178,0.230677992105484,-0.030161472037434578
1761131525626419200,5.023419189453125,-0.24778221547603607,0.18791742622852325,-0.04604396969079971
1761131525636419300,5.03341943359375,-0.20379991829395294,0.12194397300481796,-0.07353290170431137
1761131525646419200,5.043419189453125,-0.1653154045343399,0.04008803144097328,-0.09857837855815887
1761131525656419300,5.05341943359375,-0.13843733072280884,-0.03565925732254982,-0.10957395285367966
1761131525666418400,5.06341845703125,-0.12744176387786865,-0.05948300287127495,-0.09674578160047531
1761131525676418300,5.073418212890625,-0.13416127860546112,-0.045433104038238525,-0.05887213721871376
1761131525686418400,5.08341845703125,-0.15187637507915497,-0.019776761531829834,0.007712173741310835
1761131525696418300,5.093418212890625,-0.17386752367019653,0.0290924571454525,0.09812022745609283
1761131525706418400,5.10341845703125,-0.19952386617660522,0.08773551881313324,0.1952477991580963
1761131525716418300,5.113418212890625,-0.22945626080036163,0.13232868909835815,0.27954721450805664
1761131525726418400,5.12341845703125,-0.27343854308128357,0.22395847737789154,0.35407277941703796
1761131525736418300,5.133418212890625,-0.3107013404369354,0.301538348197937,0.35590535402297974
1761131525746418400,5.14341845703125,-0.35407277941703796,0.3278055489063263,0.31864258646965027
1761131525756418300,5.153418212890625,-0.37972912192344666,0.28993192315101624,0.2563343346118927
1761131525766419200,5.163419189453125,-0.37972912192344666,0.22334760427474976,0.18303050100803375
1761131525776419300,5.17341943359375,-0.3589596748352051,0.14454598724842072,0.10422888398170471
1761131525786419200,5.183419189453125,-0.3271946907043457,0.07246389240026474,0.02603813074529171
1761131525796419300,5.19341943359375,-0.29481884837150574,0.009544769302010536,-0.048487428575754166
1761131525806419200,5.203419189453125,-0.2667190432548523,-0.0264962799847126,-0.10835222154855728
1761131525816419300,5.21341943359375,-0.2459496259689331,-0.019165897741913795,-0.14439326524734497
1761131525826419500,5.22341943359375,-0.22334760427474976,0.009544769302010536,-0.16088663041591644
1761131525836419300,5.23341943359375,-0.20257818698883057,0.013820826075971127,-0.15111279487609863
1761131525846419500,5.24341943359375,-0.1659262776374817,-0.010002918541431427,-0.10957395285367966
1761131525856419300,5.25341943359375,-0.12255483865737915,-0.01488984003663063,-0.033826664090156555
1761131525866418400,5.26341845703125,-0.08040513843297958,0.008323038928210735,0.06757696717977524
1761131525876418600,5.27341845703125,-0.05902485549449921,0.04130976274609566,0.18180876970291138
1761131525886418400,5.28341845703125,-0.07735081017017365,0.08712465316057205,0.2911536395549774
1761131525896418600,5.29341845703125,-0.130496084690094,0.13904820382595062,0.3736204504966736
1761131525906418400,5.30341845703125,-0.1958586722612381,0.190360888838768,0.41454842686653137
1761131525916418600,5.31341845703125,-0.25511258840560913,0.20013472437858582,0.41577014327049255
1761131525926418400,5.32341845703125,-0.2917645275592804,0.13782647252082825,0.3876703679561615
1761131525936418600,5.33341845703125,-0.30459266901016235,0.03825543448328972,0.33513593673706055
1761131525946418400,5.34341845703125,-0.29909488558769226,-0.04787656292319298,0.26916250586509705
1761131525956418600,5.35341845703125,-0.28015807271003723,-0.10041097551584244,0.16409367322921753
1761131525966419500,5.36341943359375,-0.27404943108558655,-0.08636107295751572,0.09078984707593918
1761131525976419300,5.37341943359375,-0.27343854308128357,-0.06498079001903534,0.01748601719737053
1761131525986419500,5.38341943359375,-0.2764928936958313,-0.05276348441839218,-0.04909829422831535
1761131525996419300,5.39341943359375,-0.27404943108558655,-0.02344195358455181,-0.09613491594791412
1761131526006419500,5.40341943359375,-0.2606103718280792,0.038866300135850906,-0.1175151988863945
1761131526016419300,5.41341943359375,-0.2361757755279541,0.09140071272850037,-0.11385001242160797
1761131526026419500,5.42341943359375,-0.20196732878684998,0.12805262207984924,-0.08636107295751572
1761131526036419300,5.43341943359375,-0.1653154045343399,0.14271339774131775,-0.05032002553343773
1761131526046419500,5.44341943359375,-0.1353830099105835,0.1347721517086029,-0.011224648915231228
1761131526056419300,5.45341943359375,-0.10545061528682709,0.10667234659194946,0.03520110994577408
1761131526066418400,5.46341845703125,-0.0846811980009079,0.09017898142337799,0.09078984707593918
1761131526076418600,5.47341845703125,-0.08162686973810196,0.10239628702402115,0.15309810638427734
1761131526086418400,5.48341845703125,-0.08834638446569443,0.1249983012676239,0.22029328346252441
1761131526096418600,5.49341845703125,-0.09689849615097046,0.14149166643619537,0.28382325172424316
1761131526106418400,5.50341845703125,-0.09567677229642868,0.16714800894260406,0.3357468247413635
1761131526116418600,5.51341845703125,-0.07673994451761246,0.22701279819011688,0.3736204504966736
1761131526126418400,5.52341845703125,-0.04253149405121803,0.3076470196247101,0.39133554697036743
1761131526136418600,5.53341845703125,-0.009544769302010536,0.3430771827697754,0.3742313086986542
1761131526146418400,5.54341845703125,0.0032834007870405912,0.29848402738571167,0.31436651945114136
1761131526156418600,5.55341845703125,-0.0034361169673502445,0.1854739636182785,0.21296289563179016
1761131526166419200,5.563419189453125,-0.015653422102332115,0.022372938692569733,0.08162686973810196
1761131526176419300,5.57341943359375,-0.025427265092730522,-0.15050192177295685,-0.06620252132415771
1761131526186419200,5.583419189453125,-0.016264287754893303,-0.30138564109802246,-0.21525363624095917
1761131526196419300,5.59341943359375,0.08086328953504562,-0.30566170811653137,-0.3343723714351654
1761131526206419200,5.603419189453125,0.18043431639671326,-0.12484558671712875,-0.31238120794296265
1761131526216419300,5.61341943359375,0.26717719435691833,0.16409367322921753,-0.21281017363071442
1761131526226419200,5.623419189453125,0.3337614834308624,0.46647197008132935,-0.05032002553343773
1761131526236419300,5.63341943359375,0.3795763850212097,0.6821073889732361,0.1506546437740326
1761131526246419200,5.643419189453125,0.3899610936641693,0.7639633417129517,0.34368807077407837
1761131526256419300,5.65341943359375,0.34842225909233093,0.6900486350059509,0.48724138736724854
1761131526266418400,5.66341845703125,0.25740334391593933,0.4878522455692291,0.5733733773231506
1761131526276418600,5.67341845703125,0.12423472106456757,0.20441077649593353,0.5843689441680908
1761131526286418400,5.68341845703125,-0.036422841250896454,-0.13339769840240479,0.4988478422164917
1761131526306418400,5.70341845703125,-0.2771037518978119,-0.8022951483726501,0.08773551881313324
1761131526316418600,5.71341845703125,-0.3009274899959564,-0.9574549198150635,-0.1419498175382614
1761131526326418400,5.72341845703125,-0.2807689309120178,-0.9317985773086548,-0.32093334197998047
1761131526336418600,5.73341845703125,-0.24350616335868835,-0.7986299395561218,-0.4369977116584778
1761131526346418400,5.74341845703125,-0.19341520965099335,-0.5646685361862183,-0.4699844419956207
1761131526356418600,5.75341845703125,-0.14943291246891022,-0.22991441190242767,-0.4095087945461273
1761131526366419500,5.76341943359375,-0.1201113760471344,0.130496084690094,-0.2683989107608795
1761131526376419300,5.77341943359375,-0.12744176387786865,0.41454842686653137,-0.07964155822992325
1761131526386419500,5.78341943359375,-0.1598176211118698,0.5538256764411926,0.12316570430994034
1761131526396419300,5.79341943359375,-0.18730655312538147,0.5550474524497986,0.3223077654838562
1761131526406419500,5.80341943359375,-0.18913915753364563,0.47135889530181885,0.5055673718452454
1761131526416419300,5.81341943359375,-0.17631098628044128,0.31925344467163086,0.653396725654602
1761131526426419500,5.82341943359375,-0.14454598724842072,0.03764457255601883,0.7786241173744202
1761131526436419300,5.83341943359375,-0.12072224169969559,-0.12056952714920044,0.7908414006233215
1761131526446419500,5.84341943359375,-0.08101600408554077,-0.25679248571395874,0.7499134540557861
1761131526456419300,5.85341943359375,-0.025427265092730522,-0.36674821376800537,0.6717227101325989
1761131526466418400,5.86341845703125,0.039935316890478134,-0.4516584873199463,0.5745950937271118
1761131526476418600,5.87341845703125,0.09002626687288284,-0.5017494559288025,0.4786892831325531
1761131526486418400,5.88341845703125,0.09674578160047531,-0.5084689855575562,0.3833943009376526
1761131526496418600,5.89341845703125,0.05398521572351456,-0.4718170464038849,0.2880993187427521
1761131526506418400,5.90341845703125,-0.02054034359753132,-0.3960697650909424,0.18730655312538147
1761131526516418600,5.91341845703125,-0.1048397496342659,-0.34292447566986084,0.0846811980009079
1761131526526418400,5.92341845703125,-0.16836974024772644,-0.35208746790885925,0.0034361169673502445
1761131526536418600,5.93341845703125,-0.19402606785297394,-0.38324159383773804,-0.03199406713247299
1761131526546418400,5.94341845703125,-0.2056325078010559,-0.4101196527481079,-0.03810271993279457
1761131526556418600,5.95341845703125,-0.22334760427474976,-0.43760859966278076,-0.04360050708055496
1761131526566419500,5.96341943359375,-0.2508365511894226,-0.43821945786476135,-0.057650405913591385
1761131526576419300,5.97341943359375,-0.28504499793052673,-0.40828704833984375,-0.08330674469470978
1761131526586419500,5.98341943359375,-0.32414036989212036,-0.3856850564479828,-0.11323914676904678
1761131526596419300,5.99341943359375,-0.35529449582099915,-0.3942371606826782,-0.1321759670972824
1761131526606419500,6.00341943359375,-0.3772856593132019,-0.43455424904823303,-0.1278999149799347
1761131526616419300,6.01341943359375,-0.38461601734161377,-0.45349109172821045,-0.10041097551584244
1761131526626419500,6.02341943359375,-0.3931681513786316,-0.4162282943725586,-0.060704734176397324
1761131526636419300,6.03341943359375,-0.41027235984802246,-0.33742669224739075,-0.025885414332151413
1761131526646419500,6.04341943359375,-0.4194353520870209,-0.2738966941833496,0.0009926559869199991
1761131526656419300,6.05341943359375,-0.36506834626197815,-0.273285835981369,0.047418415546417236
1761131526666418400,6.06341845703125,-0.2880993187427521,-0.2726749777793884,0.0999528244137764
1761131526676418600,6.07341845703125,-0.23434318602085114,-0.27145323157310486,0.1451568603515625
1761131526686418400,6.08341845703125,-0.23800836503505707,-0.31238120794296265,0.15187637507915497
1761131526696418600,6.09341845703125,-0.2807689309120178,-0.3801872432231903,0.11583532392978668
1761131526706418400,6.10341845703125,-0.31436651945114136,-0.3911828398704529,0.06207918003201485
1761131526716418600,6.11341845703125,-0.33391422033309937,-0.3948480188846588,-0.011835514567792416
1761131526726418400,6.12341845703125,-0.36567920446395874,-0.505414605140686,-0.13584116101264954
1761131526736418600,6.13341845703125,-0.4072180390357971,-0.6819546818733215,-0.30749428272247314
1761131526746418400,6.14341845703125,-0.4340961277484894,-0.8273406028747559,-0.49502992630004883
1761131526756418600,6.15341845703125,-0.4285983145236969,-0.9085856676101685,-0.6636287569999695
1761131526766419500,6.16341943359375,-0.3974441885948181,-0.903698742389679,-0.799851655960083
1761131526776419300,6.17341943359375,-0.3565162420272827,-0.8248971700668335,-0.8957574963569641
1761131526786419500,6.18341943359375,-0.33024901151657104,-0.6935611367225647,-0.933631181716919
1761131526796419300,6.19341943359375,-0.3168099820613861,-0.5115233063697815,-0.8890380263328552
1761131526806419500,6.20341943359375,-0.32475122809410095,-0.3044399619102478,-0.7607563138008118
1761131526816419300,6.21341943359375,-0.36995527148246765,-0.12667818367481232,-0.5878814458847046
1761131526826419500,6.22341943359375,-0.4542546570301056,-0.01488984003663063,-0.4113413989543915
1761131526836419300,6.23341943359375,-0.5593234896659851,0.03459024429321289,-0.2586250603199005
1761131526846419500,6.24341943359375,-0.6521750092506409,0.026648996397852898,-0.1431715488433838
1761131526856419300,6.25341943359375,-0.7108180522918701,-0.03443752974271774,-0.07108944654464722
1761131526866418400,6.26341845703125,-0.7352526783943176,-0.11568260937929153,-0.04604396969079971
1761131526876418600,6.27341845703125,-0.7199810743331909,-0.18959729373455048,-0.04787656292319298
1761131526886418400,6.28341845703125,-0.6106361746788025,-0.18104518949985504,-0.03260493278503418
1761131526896418600,6.29341845703125,-0.5128977298736572,-0.102243572473526,-0.002672535367310047
1761131526906418400,6.30341845703125,-0.43653959035873413,-0.017333300784230232,0.03520110994577408
1761131526916418600,6.31341845703125,-0.3840051591396332,0.06757696717977524,0.07918340712785721
1761131526926418400,6.32341845703125,-0.34552064538002014,0.12927435338497162,0.12744176387786865
1761131526936418600,6.33341845703125,-0.31864258646965027,0.13110695779323578,0.16409367322921753
1761131526946418400,6.34341845703125,-0.30398181080818176,0.0645226389169693,0.1799761801958084
1761131526956418600,6.35341845703125,-0.29909488558769226,-0.031383201479911804,0.180587038397789
1761131526966419500,6.36341943359375,-0.29420796036720276,-0.11018481850624084,0.17203491926193237
1761131526976419300,6.37341943359375,-0.2868776023387909,-0.16027577221393585,0.15676330029964447
1761131526986419500,6.38341943359375,-0.27954721450805664,-0.19142989814281464,0.13293954730033875
1761131526996419300,6.39341943359375,-0.28443413972854614,-0.20547980070114136,0.0999528244137764
1761131527006419500,6.40341943359375,-0.29909488558769226,-0.22258402407169342,0.0492510087788105
1761131527016419300,6.41341943359375,-0.32475122809410095,-0.25618159770965576,0.0016035212902352214
1761131527026419500,6.42341943359375,-0.36079227924346924,-0.2433534413576126,-0.02710714563727379
1761131527036419300,6.43341943359375,-0.41088324785232544,-0.2134210467338562,-0.04054617881774902
1761131527046419200,6.443419189453125,-0.4683045744895935,-0.16394096612930298,-0.03810271993279457
1761131527056419300,6.45341943359375,-0.5141194462776184,-0.08819366991519928,-0.02344195358455181
1761131527066418400,6.46341845703125,-0.5361106395721436,0.0009926559869199991,-0.00939205288887024
1761131527076418600,6.47341845703125,-0.5287802219390869,0.06330090761184692,-0.0069485921412706375
1761131527086418400,6.48341845703125,-0.4878522455692291,0.0742964819073677,-0.02099849283695221
1761131527096418300,6.493418212890625,-0.4194353520870209,0.03214678168296814,-0.04604396969079971
1761131527106418400,6.50341845703125,-0.3357468247413635,-0.0466548316180706,-0.07108944654464722
1761131527116418300,6.513418212890625,-0.2013564556837082,-0.082085020840168,-0.07170030474662781
1761131527126418400,6.52341845703125,-0.1256091594696045,-0.019165897741913795,-0.03627012297511101
1761131527136418600,6.53341845703125,-0.07246389240026474,0.048029281198978424,0.013209961354732513
1761131527146385200,6.54338525390625,-0.05719225853681564,0.07063129544258118,0.03764457255601883
1761131527156351700,6.553351806640625,-0.04069889709353447,0.08590292185544968,0.07857254147529602
1761131527166319400,6.5633193359375,-0.025427265092730522,0.07246389240026474,0.1298852264881134
1761131527176286000,6.573285888671875,-0.021762074902653694,0.05535966157913208,0.15737415850162506
1761131527186252500,6.58325244140625,-0.027259862050414085,0.025427265092730522,0.17875444889068604
1761131527196219400,6.593219482421875,-0.0443640872836113,-0.039324451237916946,0.1860848218202591
1761131527206186000,6.60318603515625,-0.05535966157913208,-0.1278999149799347,0.18241962790489197
1761131527216152600,6.613152587890625,-0.0492510087788105,-0.15966489911079407,0.17875444889068604
1761131527226119400,6.623119384765625,-0.027870727702975273,-0.10346530377864838,0.18241962790489197
1761131527236086000,6.6330859375,-0.0071013085544109344,0.035811975598335266,0.19280433654785156
1761131527246052600,6.643052490234375,0.015500705689191818,0.2661081850528717,0.20502164959907532
1761131527256019200,6.653019287109375,0.033826664090156555,0.5318345427513123,0.21846067905426025
1761131527265985000,6.662985107421875,0.03199406713247299,0.7053202986717224,0.20685423910617828
1761131527275951900,6.672951904296875,0.015500705689191818,0.7260897159576416,0.15737415850162506
1761131527285918500,6.68291845703125,0.005726861767470837,0.6417902708053589,0.08284860104322433
1761131527295885000,6.692885009765625,0.0069485921412706375,0.5183955430984497,-0.0038942659739404917
1761131527305852000,6.702851806640625,0.022220224142074585,0.4029420018196106,-0.09491318464279175
1761131527315818500,6.712818603515625,0.057039543986320496,0.24533875286579132,-0.18409951031208038
1761131527325785000,6.72278515625,0.11018481850624084,0.014431691728532314,-0.2751184403896332
1761131527335751700,6.732751708984375,0.18409951031208038,-0.2286926805973053,-0.36247217655181885
1761131527345718500,6.742718505859375,0.28122708201408386,-0.3807981312274933,-0.42355868220329285
1761131527355685000,6.75268505859375,0.3856850564479828,-0.39729148149490356,-0.4400520622730255
1761131527365652700,6.76265283203125,0.4913647174835205,-0.2745075821876526,-0.3942371606826782
1761131527375619300,6.772619384765625,0.5884923338890076,-0.06559165567159653,-0.28733575344085693
1761131527385586200,6.782586181640625,0.657520055770874,0.14210252463817596,-0.1382846236228943
1761131527395552800,6.792552734375,0.6569092273712158,0.28015807271003723,0.06635523587465286
1761131527405519400,6.802519287109375,0.5909357666969299,0.20441077649593353,0.13660474121570587
1761131527415486000,6.81248583984375,0.5109124183654785,0.04558581858873367,0.16470454633235931
1761131527425452800,6.822452880859375,0.4247804284095764,-0.15050192177295685,0.14698944985866547
1761131527435419400,6.83241943359375,0.33131805062294006,-0.31726813316345215,0.08590292185544968
1761131527445419300,6.842419189453125,0.2335795909166336,-0.3765220642089844,0.00038179077091626823
1761131527455419400,6.85241943359375,0.14989106357097626,-0.3691916763782501,-0.10590875893831253
1761131527465418500,6.86241845703125,0.1077413558959961,-0.3142138123512268,-0.19509509205818176
1761131527475418600,6.872418701171875,0.12667818367481232,-0.18226692080497742,-0.24152085185050964
1761131527485418500,6.88241845703125,0.18532124161720276,0.02054034359753132,-0.24029912054538727
1761131527495418400,6.89241845703125,0.2537381649017334,0.23312145471572876,-0.20547980070114136
1761131527505418500,6.90241845703125,0.31177034974098206,0.401720255613327,-0.1376737505197525
1761131527515418400,6.91241845703125,0.3465896546840668,0.4945717751979828,-0.051541756838560104
1761131527525418500,6.92241845703125,0.3588069677352905,0.49151745438575745,0.04069889709353447
1761131527535418400,6.93241845703125,0.36735907196998596,0.3974441885948181,0.12622003257274628
1761131527545418500,6.94241845703125,0.37224599719047546,0.263053834438324,0.20013472437858582
1761131527555418400,6.95241845703125,0.37285688519477844,0.11094839870929718,0.2465604841709137
1761131527565419300,6.962419189453125,0.36369389295578003,-0.04604396969079971,0.25328001379966736
1761131527575419400,6.97241943359375,0.35330918431282043,-0.17127133905887604,0.21418462693691254
1761131527585419300,6.982419189453125,0.3508657217025757,-0.23052527010440826,0.1408807933330536
1761131527595419400,6.99241943359375,0.3643047511577606,-0.19998200237751007,0.05291620269417763
1761131527605419300,7.002419189453125,0.3801872432231903,-0.12179125845432281,-0.03810271993279457
1761131527615419400,7.01241943359375,0.38873937726020813,-0.07475463300943375,-0.1175151988863945
1761131527625419300,7.022419189453125,0.3948480188846588,-0.014278975315392017,-0.16394096612930298
1761131527635419400,7.03241943359375,0.38385245203971863,0.011377365328371525,-0.15477798879146576
1761131527645419300,7.042419189453125,0.36674821376800537,0.0022143865935504436,-0.12118039280176163
1761131527655419400,7.05241943359375,0.3551417887210846,-0.05032002553343773,-0.06864598393440247
1761131527665418500,7.06241845703125,0.34781140089035034,-0.12362385541200638,-0.010002918541431427
1761131527675418400,7.07241845703125,0.3441462218761444,-0.19448421895503998,0.04375322163105011
1761131527685418500,7.08241845703125,0.33681583404541016,-0.22747094929218292,0.09017898142337799
1761131527695418400,7.09241845703125,0.32215505838394165,-0.20486892759799957,0.12866349518299103
1761131527705418500,7.10241845703125,0.29710957407951355,-0.1724930703639984,0.1500437706708908
1761131527715418400,7.11241845703125,0.2653445899486542,-0.16455182433128357,0.15126550197601318
1761131527725418500,7.12241845703125,0.2341904640197754,-0.17432567477226257,0.140269935131073
1761131527735418400,7.13241845703125,0.20425806939601898,-0.20181460678577423,0.12072224169969559
1761131527745418500,7.14241845703125,0.17188221216201782,-0.25618159770965576,0.09017898142337799
1761131527755418400,7.15241845703125,0.13523028790950775,-0.3239876627922058,0.05047274008393288
1761131527765419300,7.162419189453125,0.1071304902434349,-0.3899610936641693,0.005879578180611134
1761131527775419400,7.17241943359375,0.09491318464279175,-0.44860416650772095,-0.039324451237916946
1761131527785419300,7.182419189453125,0.10163270682096481,-0.5072472095489502,-0.08025242388248444
1761131527795419400,7.19241943359375,0.122402124106884,-0.5145776271820068,-0.09491318464279175
1761131527805419300,7.202419189453125,0.1376737505197525,-0.4510476291179657,-0.07841982692480087
1761131527815419400,7.21241943359375,0.12423472106456757,-0.33315062522888184,-0.05398521572351456
1761131527825419300,7.222419189453125,0.08269587904214859,-0.22563834488391876,-0.0619264654815197
1761131527835419400,7.23241943359375,0.04482223838567734,-0.16210836172103882,-0.12118039280176163
1761131527845419300,7.242419189453125,0.04237877577543259,-0.12912164628505707,-0.22502748668193817
1761131527855419400,7.25241943359375,0.0771980956196785,-0.12179125845432281,-0.3490331172943115
1761131527865418500,7.26241845703125,0.14133894443511963,-0.1932624876499176,-0.5561164617538452
1761131527875418600,7.272418701171875,0.16577355563640594,-0.29649871587753296,-0.6923394203186035
1761131527885418500,7.28241845703125,0.18532124161720276,-0.3753003478050232,-0.7967973351478577
1761131527895418600,7.292418701171875,0.22502748668193817,-0.4107305109500885,-0.8365035653114319
1761131527905418500,7.30241845703125,0.27695104479789734,-0.38324159383773804,-0.7967973351478577
1761131527915418600,7.312418701171875,0.3307071626186371,-0.2793944776058197,-0.6843981742858887
1761131527925418500,7.32241845703125,0.36369389295578003,-0.0771980956196785,-0.5035820603370667
1761131527935418400,7.33241845703125,0.36735907196998596,0.1598176211118698,-0.28061622381210327
1761131527945418500,7.34241845703125,0.33681583404541016,0.3571271002292633,-0.05032002553343773
1761131527955418400,7.35241845703125,0.2885574698448181,0.44997861981391907,0.1604284793138504
1761131527965419300,7.362419189453125,0.2439643144607544,0.4334852397441864,0.3314707577228546
1761131527975419400,7.37241943359375,0.21647536754608154,0.35529449582099915,0.45669811964035034
1761131527985419300,7.382419189453125,0.1987602859735489,0.2679407596588135,0.5318345427513123
1761131527995419400,7.39241943359375,0.17554740607738495,0.18180876970291138,0.5483279228210449
1761131528005419300,7.402419189453125,0.14866933226585388,0.1048397496342659,0.5037347674369812
1761131528015419400,7.41241943359375,0.122402124106884,0.059635721147060394,0.4072180390357971
1761131528025419300,7.422419189453125,0.10407616943120956,0.05169447138905525,0.2777146100997925
1761131528035419400,7.43241943359375,0.10529789328575134,0.10239628702402115,0.14943291246891022
1761131528045419300,7.442419189453125,0.12118039280176163,0.20807597041130066,0.04314235970377922
1761131528055419400,7.45241943359375,0.13645201921463013,0.33391422033309937,-0.030772335827350616
1761131528065418500,7.46241845703125,0.1419498175382614,0.4487568736076355,-0.05642867833375931
1761131528075418600,7.472418701171875,0.14500413835048676,0.5281693339347839,-0.039324451237916946
1761131528085418500,7.48241845703125,0.1474476009607315,0.5526039600372314,0.019318614155054092
1761131528095418400,7.49241845703125,0.14989106357097626,0.49212831258773804,0.13904820382595062
1761131528105418500,7.50241845703125,0.14439326524734497,0.39011383056640625,0.21296289563179016
1761131528115418600,7.512418701171875,0.14011721312999725,0.263053834438324,0.2667190432548523
1761131528125418500,7.52241845703125,0.13889548182487488,0.1298852264881134,0.2874884605407715
1761131528135418400,7.53241845703125,0.14622586965560913,0.026648996397852898,0.28382325172424316
1761131528145418500,7.54241845703125,0.15355625748634338,-0.011224648915231228,0.2624429762363434
1761131528155418400,7.55241845703125,0.14683672785758972,-0.0038942659739404917,0.22395847737789154
1761131528165419300,7.562419189453125,0.12973250448703766,0.0339793786406517,0.1854739636182785
1761131528175419400,7.57241943359375,0.11079568415880203,0.11094839870929718,0.16653713583946228
1761131528185419300,7.582419189453125,0.0918588638305664,0.18852828443050385,0.16409367322921753
1761131528195419400,7.59241943359375,0.07536549866199493,0.24289529025554657,0.17814357578754425
1761131528205419300,7.602419189453125,0.0668133869767189,0.27466028928756714,0.2007455974817276
1761131528215419400,7.61241943359375,0.05948300287127495,0.2654972970485687,0.21296289563179016
1761131528225419300,7.622419189453125,0.048487428575754166,0.22518019378185272,0.2111303061246872
1761131528235419400,7.63241943359375,0.03443752974271774,0.15737415850162506,0.19341520965099335
1761131528245419300,7.642419189453125,0.0264962799847126,0.08284860104322433,0.1702023297548294
1761131528255419400,7.65241943359375,0.03260493278503418,0.021762074902653694,0.14698944985866547
1761131528265418500,7.66241845703125,0.05642867833375931,-0.005726861767470837,0.13416127860546112
1761131528275418400,7.67241845703125,0.09308059513568878,0.005879578180611134,0.13721559941768646
1761131528285418500,7.68241845703125,0.13950635492801666,0.048029281198978424,0.15676330029964447
1761131528295418400,7.69241845703125,0.192651629447937,0.09689849615097046,0.1860848218202591
1761131528305418500,7.70241845703125,0.2531272768974304,0.1249983012676239,0.21357376873493195
1761131528315418400,7.71241845703125,0.325209379196167,0.1451568603515625,0.24289529025554657
1761131528325418500,7.72241845703125,0.42294782400131226,0.18303050100803375,0.2722168266773224
1761131528335418400,7.73241845703125,0.47487136721611023,0.17081318795681,0.27527114748954773
1761131528345418500,7.74241845703125,0.5206862688064575,0.11888964474201202,0.2819906771183014
1761131528355418400,7.75241845703125,0.5677229166030884,0.03153591975569725,0.29542970657348633
1761131528365419300,7.762419189453125,0.5970444083213806,-0.07353290170431137,0.3009274899959564
1761131528375419400,7.77241943359375,0.5970444083213806,-0.18715384602546692,0.28015807271003723
1761131528385419300,7.782419189453125,0.5701663494110107,-0.2384665161371231,0.23434318602085114
1761131528395419400,7.79241943359375,0.5359578728675842,-0.18654297292232513,0.17264579236507416
1761131528405419300,7.802419189453125,0.5035820603370667,-0.0771980956196785,0.10056369006633759
1761131528415419400,7.81241943359375,0.45959973335266113,0.011988230049610138,-0.006337726954370737
1761131528425419300,7.822419189453125,0.4015675485134125,0.08101600408554077,-0.142560675740242
1761131528435419400,7.83241943359375,0.3655264973640442,0.1952477991580963,-0.28244882822036743
1761131528445419300,7.842419189453125,0.36308303475379944,0.263053834438324,-0.4150065779685974
1761131528455419400,7.85241943359375,0.39240455627441406,0.15309810638427734,-0.5518403649330139
1761131528465418500,7.86241845703125,0.4504367709159851,-0.022831087931990623,-0.658130943775177
1761131528475418400,7.87241845703125,0.5322927236557007,-0.09491318464279175,-0.6801220774650574
1761131528485418500,7.88241845703125,0.6086508631706238,-0.016722436994314194,-0.6043748259544373
1761131528495418400,7.89241845703125,0.6562983393669128,0.18486309051513672,-0.4467715620994568
1761131528505418500,7.90241845703125,0.6660721898078918,0.47196975350379944,-0.23724478483200073
1761131528515418400,7.91241845703125,0.6410267353057861,0.7120398283004761,-0.024052819237113
1761131528525418500,7.92241845703125,0.5939900875091553,0.8097782135009766,0.15431983768939972
1761131528535418400,7.93241845703125,0.5408447980880737,0.7529677748680115,0.2673299014568329
1761131528545418500,7.94241845703125,0.4828126132488251,0.6100252866744995,0.29848402738571167
1761131528555418400,7.95241845703125,0.354530930519104,0.3082578778266907,0.17814357578754425
1761131528565419300,7.962419189453125,0.2726749777793884,0.10728321224451065,0.012599095702171326
1761131528575419100,7.972419189453125,0.2244166135787964,-0.025885414332151413,-0.17676913738250732
1761131528585419300,7.982419189453125,0.2189188301563263,-0.05581781268119812,-0.3612504303455353
1761131528595419100,7.992419189453125,0.24701863527297974,-0.0014508049935102463,-0.5103015303611755
1761131528605419300,8.002419189453125,0.292833536863327,0.11888964474201202,-0.6172029972076416
1761131528615419400,8.01241943359375,0.3465896546840668,0.2917645275592804,-0.6715700030326843
1761131528625419300,8.022419189453124,0.4040110111236572,0.4994587004184723,-0.6709591150283813
1761131528635419400,8.03241943359375,0.4559345543384552,0.6949355602264404,-0.6184247136116028
1761131528645419300,8.042419189453126,0.5121341347694397,0.8140543103218079,-0.5133558511734009
1761131528655419400,8.05241943359375,0.5774967074394226,0.8549822568893433,-0.36369389295578003
1761131528665418500,8.06241845703125,0.6434701681137085,0.8397106528282166,-0.18654297292232513
1761131528675418600,8.072418701171875,0.686841607093811,0.7908414006233215,-0.016722436994314194
1761131528685418500,8.08241845703125,0.7027240991592407,0.6931029558181763,0.12438743561506271
1761131528695418600,8.092418701171875,0.7070001363754272,0.5446627140045166,0.22701279819011688
1761131528705418500,8.10241845703125,0.7149413824081421,0.36018142104148865,0.2929862439632416
1761131528715418600,8.112418701171874,0.7289913296699524,0.16653713583946228,0.32536208629608154
1761131528725418500,8.12241845703125,0.7503715753555298,-0.011835514567792416,0.3363576829433441
1761131528735418400,8.13241845703125,0.7754170894622803,-0.1126282811164856,0.3418554663658142
1761131528745418500,8.14241845703125,0.7851909399032593,-0.11140654981136322,0.3418554663658142
1761131528755418400,8.15241845703125,0.7693084478378296,-0.045433104038238525,0.3314707577228546
1761131528765419300,8.162419189453125,0.7289913296699524,0.03520110994577408,0.3125339448451996
1761131528775419400,8.17241943359375,0.6813437938690186,0.11217013001441956,0.28504499793052673
1761131528785419300,8.182419189453125,0.6184247136116028,0.16714800894260406,0.2471713423728943
1761131528795419400,8.19241943359375,0.5689446330070496,0.16714800894260406,0.22395847737789154
1761131528805419300,8.202419189453124,0.5109124183654785,0.16348281502723694,0.21235203742980957
1761131528815419400,8.21241943359375,0.4455498456954956,0.180587038397789,0.20746511220932007
1761131528825419500,8.22241943359375,0.37346774339675903,0.2007455974817276,0.21296289563179016
1761131528835419400,8.23241943359375,0.30199649930000305,0.23312145471572876,0.23251058161258698
1761131528845419500,8.24241943359375,0.22502748668193817,0.29970577359199524,0.2569451928138733
1761131528855419400,8.25241943359375,0.1376737505197525,0.37545305490493774,0.2777146100997925
1761131528865418500,8.26241845703125,0.054596081376075745,0.4035528600215912,0.2758820056915283
1761131528875418600,8.272418701171874,-0.002825251780450344,0.35590535402297974,0.23495404422283173
1761131528885418500,8.28241845703125,-0.016264287754893303,0.21846067905426025,0.14454598724842072
1761131528895418600,8.292418701171876,0.015500705689191818,0.027259862050414085,0.011988230049610138
1761131528905418500,8.30241845703125,0.08269587904214859,-0.2335795909166336,-0.15355625748634338
1761131528915418600,8.312418701171875,0.15966489911079407,-0.5200753808021545,-0.3337614834308624
1761131528925418500,8.32241845703125,0.22747094929218292,-0.7015023827552795,-0.4925864636898041
1761131528935418600,8.332418701171875,0.2586250603199005,-0.7540367841720581,-0.6141486167907715
1761131528945418500,8.34241845703125,0.24457517266273499,-0.7320456504821777,-0.7008914947509766
1761131528955418600,8.352418701171874,0.2079232633113861,-0.6092617511749268,-0.7405977249145508
1761131528965419300,8.362419189453124,0.16699528694152832,-0.34842225909233093,-0.7198283076286316
1761131528975419400,8.37241943359375,0.12301298975944519,0.0022143865935504436,-0.6666830778121948
1761131528985419300,8.382419189453126,0.07353290170431137,0.2612212598323822,-0.6153703927993774
1761131528995419400,8.39241943359375,0.03810271993279457,0.33941200375556946,-0.5787184834480286
1761131529005419300,8.402419189453125,0.03443752974271774,0.2716059684753418,-0.5432882905006409
1761131529015419400,8.41241943359375,0.06131559982895851,0.14149166643619537,-0.4956407845020294
1761131529025419300,8.422419189453125,0.1584431678056717,-0.025885414332151413,-0.39179369807243347
1761131529035419400,8.43241943359375,0.23968824744224548,-0.04115704447031021,-0.2946661114692688
1761131529045419300,8.442419189453124,0.3038291037082672,0.0022143865935504436,-0.18715384602546692
1761131529055419400,8.45241943359375,0.35758525133132935,0.0645226389169693,-0.07597636431455612
1761131529065418500,8.46241845703125,0.38751763105392456,0.15737415850162506,0.03703370690345764
1761131529075418600,8.472418701171875,0.37346774339675903,0.27954721450805664,0.12438743561506271
1761131529085418500,8.48241845703125,0.3099377453327179,0.321086049079895,0.16836974024772644
1761131529095418400,8.49241845703125,0.22563834488391876,0.2819906771183014,0.16653713583946228
1761131529105418500,8.50241845703125,0.1529453843832016,0.2111303061246872,0.13110695779323578
1761131529115418600,8.512418701171875,0.0924697294831276,0.10300715267658234,0.06818783283233643
1761131529125418500,8.52241845703125,0.042989641427993774,-0.01488984003663063,-0.002672535367310047
1761131529135418400,8.53241845703125,0.008781188167631626,-0.09002626687288284,-0.06803511828184128
1761131529145418500,8.54241845703125,0.0038942659739404917,-0.10407616943120956,-0.11079568415880203
1761131529155418400,8.55241845703125,0.02344195358455181,-0.028939740732312202,-0.122402124106884
1761131529165419300,8.562419189453125,0.0619264654815197,0.12377656996250153,-0.082085020840168
1761131529175419400,8.57241943359375,0.09674578160047531,0.32536208629608154,-0.0038942659739404917
1761131529185419300,8.582419189453125,0.10468703508377075,0.49640437960624695,0.08834638446569443
1761131529195419400,8.59241943359375,0.08513934165239334,0.5916993618011475,0.18730655312538147
1761131529205419300,8.602419189453125,0.05276348441839218,0.6466771960258484,0.292375385761261
1761131529215419400,8.61241943359375,0.013057244941592216,0.6772204637527466,0.39072468876838684
1761131529225419300,8.622419189453124,-0.027870727702975273,0.6478989720344543,0.4573090076446533
1761131529235419400,8.63241943359375,-0.06269004940986633,0.5477170348167419,0.4841870665550232
1761131529245419300,8.642419189453125,-0.07673994451761246,0.41577014327049255,0.4683045744895935
1761131529255419400,8.65241943359375,-0.0645226389169693,0.2526691257953644,0.3925572633743286
1761131529265418500,8.66241845703125,-0.0492510087788105,0.20746511220932007,0.330859899520874
1761131529275418400,8.67241845703125,-0.0443640872836113,0.21357376873493195,0.2722168266773224
1761131529285418500,8.68241845703125,-0.059635721147060394,0.2160172164440155,0.21235203742980957
1761131529295418400,8.69241845703125,-0.09262244403362274,0.1958586722612381,0.15370896458625793
1761131529305418500,8.70241845703125,-0.13232868909835815,0.17081318795681,0.10239628702402115
1761131529315418400,8.71241845703125,-0.17386752367019653,0.14943291246891022,0.06391177326440811
1761131529325418500,8.72241845703125,-0.2166280895471573,0.1298852264881134,0.0290924571454525
1761131529335418400,8.73241845703125,-0.2563343346118927,0.1097266674041748,-0.004505131393671036
1761131529345418500,8.74241845703125,-0.27527114748954773,0.09201157838106155,-0.031383201479911804
1761131529355418400,8.75241845703125,-0.263053834438324,0.07002042979001999,-0.04726569727063179
1761131529365419300,8.762419189453125,-0.2257910668849945,0.04680754989385605,-0.04909829422831535
1761131529375419400,8.77241943359375,-0.1799761801958084,0.039477165788412094,-0.028939740732312202
1761131529385419300,8.782419189453124,-0.13355042040348053,0.09140071272850037,0.012599095702171326
1761131529395419400,8.79241943359375,-0.10056369006633759,0.19280433654785156,0.06207918003201485
1761131529405419300,8.802419189453126,-0.08590292185544968,0.2874884605407715,0.09567677229642868
1761131529415419400,8.81241943359375,-0.06574437022209167,0.3333033621311188,0.11644618958234787
1761131529425419300,8.822419189453125,-0.019318614155054092,0.3161991238594055,0.14332425594329834
1761131529435419400,8.83241943359375,0.04787656292319298,0.25450173020362854,0.1854739636182785
1761131529445419300,8.842419189453125,0.10651962459087372,0.21479548513889313,0.23251058161258698
1761131529455419400,8.85241943359375,0.12973250448703766,0.1909717470407486,0.2575560510158539
1761131529465418500,8.86241845703125,0.1278999149799347,0.15370896458625793,0.24533875286579132
1761131529475418400,8.87241845703125,0.12301298975944519,0.11155926436185837,0.19769126176834106
1761131529485418500,8.88241845703125,0.12301298975944519,0.06391177326440811,0.07307475805282593
1761131529495418400,8.89241845703125,0.12118039280176163,0.09017898142337799,-0.027718011289834976
1761131529505418500,8.90241845703125,0.11934779584407806,0.21784982085227966,-0.1272890418767929
1761131529515418400,8.91241845703125,0.1175151988863945,0.36079227924346924,-0.22075143456459045
1761131529525418500,8.92241845703125,0.1126282811164856,0.3467423915863037,-0.32704198360443115
1761131529535418400,8.93241845703125,0.11140654981136322,0.18486309051513672,-0.44310638308525085
1761131529545418500,8.94241845703125,0.1321759670972824,0.0290924571454525,-0.5432882905006409
1761131529555418400,8.95241845703125,0.1688278764486313,-0.06986771523952484,-0.6239224672317505
1761131529565419300,8.962419189453126,0.21036672592163086,-0.1724930703639984,-0.6843981742858887
1761131529575419100,8.972419189453126,0.25251641869544983,-0.2726749777793884,-0.7143305540084839
1761131529585419300,8.982419189453125,0.3184898793697357,-0.2696206569671631,-0.6746243238449097
1761131529595419100,8.992419189453125,0.39851322770118713,-0.11629346758127213,-0.5603924989700317
1761131529605419300,9.002419189453125,0.46448665857315063,0.11217013001441956,-0.3789655268192291
1761131529615419400,9.01241943359375,0.4901430010795593,0.33391422033309937,-0.16577355563640594
1761131529625419300,9.022419189453124,0.47975829243659973,0.49273917078971863,0.04314235970377922
1761131529635419400,9.03241943359375,0.44310638308525085,0.5807037949562073,0.2111303061246872
1761131529645419300,9.042419189453126,0.3856850564479828,0.5715407729148865,0.30886873602867126
1761131529655419400,9.05241943359375,0.32643112540245056,0.5135086178779602,0.3375793993473053
1761131529665418500,9.06241845703125,0.25740334391593933,0.3528510332107544,0.2771037518978119
1761131529675418400,9.07241845703125,0.192651629447937,0.05841398984193802,0.12438743561506271
1761131529685418500,9.08241845703125,0.16394096612930298,-0.283059686422348,-0.08941540122032166
1761131529695418400,9.09241845703125,0.19509509205818176,-0.5206862688064575,-0.3001639246940613
1761131529705418500,9.10241845703125,0.2793944776058197,-0.5811619162559509,-0.45410194993019104
1761131529715418400,9.11241845703125,0.40706533193588257,-0.4412737786769867,-0.534736156463623
1761131529725418500,9.12241845703125,0.4718170464038849,-0.1834886521100998,-0.4876995384693146
1761131529735418400,9.13241845703125,0.5322927236557007,0.18486309051513672,-0.3649156391620636
1761131529745418500,9.14241845703125,0.5597816109657288,0.5483279228210449,-0.2030363380908966
1761131529755418400,9.15241845703125,0.5555055737495422,0.7651850581169128,-0.03565925732254982
1761131529765419300,9.162419189453125,0.5402339696884155,0.8262715935707092,0.1201113760471344
1761131529775419400,9.17241943359375,0.5371796488761902,0.7541894912719727,0.25877779722213745
1761131529785419300,9.182419189453125,0.5457317233085632,0.5843689441680908,0.3742313086986542
1761131529795419400,9.19241943359375,0.5585598945617676,0.382172554731369,0.4591415822505951
1761131529805419300,9.202419189453124,0.5726097822189331,0.17203491926193237,0.5000695586204529
1761131529815419400,9.21241943359375,0.590324878692627,-0.016111571341753006,0.49273917078971863
1761131529825419300,9.222419189453126,0.6159812211990356,-0.11629346758127213,0.44570255279541016
1761131529835419400,9.23241943359375,0.6410267353057861,-0.1431715488433838,0.36018142104148865
1761131529845419300,9.242419189453125,0.6605743765830994,-0.12423472106456757,0.2471713423728943
1761131529855419400,9.25241943359375,0.6648504734039307,-0.08758280426263809,0.12133310735225677
1761131529865418500,9.26241845703125,0.6520223021507263,-0.060704734176397324,-0.0014508049935102463
1761131529875418600,9.272418701171874,0.6251442432403564,-0.07780896127223969,-0.11507174372673035
1761131529885418500,9.28241845703125,0.5909357666969299,-0.14500413835048676,-0.21464277803897858
1761131529895418600,9.292418701171876,0.5622251033782959,-0.21036672592163086,-0.292833536863327
1761131529905418500,9.30241845703125,0.5414556860923767,-0.23785565793514252,-0.3514765799045563
1761131529915418400,9.31241845703125,0.5341253280639648,-0.2537381649017334,-0.38751763105392456
1761131529925418500,9.32241845703125,0.535347044467926,-0.24029912054538727,-0.3862959146499634
1761131529935418400,9.33241845703125,0.5384013652801514,-0.14683672785758972,-0.33681583404541016
1761131529945418500,9.34241845703125,0.5243514776229858,0.022372938692569733,-0.21219931542873383
1761131529955418400,9.35241845703125,0.5109124183654785,0.07673994451761246,-0.1126282811164856
1761131529965419300,9.362419189453124,0.5017494559288025,0.0999528244137764,-0.0020616701804101467
1761131529975419400,9.37241943359375,0.48464521765708923,0.12683089077472687,0.09140071272850037
1761131529985419300,9.382419189453126,0.44799330830574036,0.1146135926246643,0.1451568603515625
1761131529995419400,9.39241943359375,0.39301541447639465,0.06391177326440811,0.15920674800872803
1761131530005419300,9.402419189453125,0.3404810130596161,0.005268712528049946,0.14637859165668488
1761131530015419400,9.41241943359375,0.2879466116428375,-0.0869719386100769,0.09506590664386749
1761131530025418500,9.42241845703125,0.24701863527297974,-0.21281017363071442,0.008933904580771923
1761131530035418400,9.43241845703125,0.2189188301563263,-0.3288745880126953,-0.09857837855815887
1761131530045418500,9.44241845703125,0.19998200237751007,-0.405843585729599,-0.2140319049358368
1761131530055418400,9.45241845703125,0.182877779006958,-0.4314999282360077,-0.33192890882492065
1761131530065418500,9.46241845703125,0.16088663041591644,-0.43821945786476135,-0.4461607038974762
1761131530075418400,9.47241845703125,0.12545645236968994,-0.46876272559165955,-0.5524512529373169
1761131530085418500,9.48241845703125,0.07964155822992325,-0.5115233063697815,-0.6398049592971802
1761131530095418400,9.49241845703125,0.019776761531829834,-0.496862530708313,-0.6917285323143005
1761131530105418500,9.50241845703125,-0.06269004940986633,-0.40217840671539307,-0.7033349871635437
1761131530115418400,9.51241845703125,-0.17753271758556366,-0.2897791862487793,-0.6941719651222229
1761131530125418500,9.52241845703125,-0.321086049079895,-0.20181460678577423,-0.677067756652832
1761131530135418400,9.53241845703125,-0.45547640323638916,-0.13889548182487488,-0.6446918845176697
1761131530145418500,9.54241845703125,-0.5385540723800659,-0.04604396969079971,-0.5787184834480286
1761131530155418400,9.55241845703125,-0.5593234896659851,0.0797942727804184,-0.48403435945510864
1761131530165419300,9.562419189453125,-0.5202280879020691,0.24533875286579132,-0.3606395721435547
1761131530175419100,9.572419189453125,-0.4127158224582672,0.4640285074710846,-0.15905404090881348
1761131530185419300,9.582419189453125,-0.31925344467163086,0.47135889530181885,-0.019165897741913795
1761131530195419100,9.592419189453125,-0.24472789466381073,0.40966150164604187,0.180587038397789
1761131530205419300,9.602419189453125,-0.25328001379966736,0.16898059844970703,0.36506834626197815
1761131530215419100,9.612419189453124,-0.3125339448451996,-0.14989106357097626,0.4579198658466339
1761131530225419300,9.622419189453124,-0.3986659348011017,-0.32765284180641174,0.45486554503440857
1761131530235419100,9.632419189453126,-0.50251305103302,-0.39301541447639465,0.3840051591396332
