time,seconds_elapsed,z,y,x
1761132242967582200,0.122582275390625,-7.053261756896973,-2.6628947257995605,2.1075403690338135
1761132242987607300,0.142607177734375,-6.9000749588012695,-2.9790217876434326,2.352445602416992
1761132242997607200,0.152607177734375,-6.817267417907715,-3.133490562438965,2.4754796028137207
1761132243007598600,0.1625986328125,-6.730376243591309,-3.2854511737823486,2.5988080501556396
1761132243017598700,0.1725986328125,-6.680913925170898,-3.405904531478882,2.548859119415283
1761132243027598600,0.1825986328125,-6.625459671020508,-3.5267493724823,2.523557424545288
1761132243037598700,0.1925986328125,-6.5626678466796875,-3.650221109390259,2.524775981903076
1761132243047598600,0.2025986328125,-6.4901838302612305,-3.779345750808716,2.5554656982421875
1761132243057598700,0.2125986328125,-6.400284767150879,-3.9227945804595947,2.628411293029785
1761132243067598600,0.2225986328125,-6.297913551330566,-4.078433990478516,2.708956718444824
1761132243077598700,0.2325986328125,-6.189347267150879,-4.2414655685424805,2.7716891765594482
1761132243087598600,0.2425986328125,-6.081551551818848,-4.407469272613525,2.7933549880981445
1761132243097598700,0.2525986328125,-5.979837417602539,-4.575091361999512,2.751469135284424
1761132243107598600,0.2625986328125,-5.877660274505615,-4.750372409820557,2.654271125793457
1761132243117598700,0.2725986328125,-5.765636444091797,-4.939633846282959,2.5153045654296875
1761132243127598600,0.2825986328125,-5.629231929779053,-5.151891231536865,2.3617687225341797
1761132243137598700,0.2925986328125,-5.454779148101807,-5.391406536102295,2.240633964538574
1761132243147598600,0.3025986328125,-5.254705905914307,-5.637995719909668,2.1645610332489014
1761132243157598700,0.3125986328125,-5.096601963043213,-5.820812225341797,2.10970401763916
1761132243167598800,0.322598876953125,-5.029232978820801,-5.905153751373291,2.0085320472717285
1761132243177598700,0.3325986328125,-5.062972545623779,-5.882768630981445,1.8778529167175293
1761132243187598800,0.342598876953125,0.8994784355163574,2.836975574493408,1.2260185480117798
1761132243197598700,0.3525986328125,1.6687302589416504,2.392892837524414,1.9474000930786133
1761132243207597600,0.36259765625,1.4241652488708496,1.9889416694641113,2.317960739135742
1761132243217597700,0.37259765625,1.168121337890625,2.3307347297668457,2.0692880153656006
1761132243227597600,0.38259765625,0.24351787567138672,-0.7989120483398438,3.713012933731079
1761132243237597700,0.39259765625,-0.4953880310058594,-2.6172471046447754,4.126961708068848
1761132243247597600,0.40259765625,-1.3996362686157227,-4.9591875076293945,4.733931541442871
1761132243257597700,0.41259765625,-1.946786880493164,-3.1929454803466797,3.551807403564453
1761132243267597600,0.42259765625,-2.4339332580566406,-0.15815401077270508,-1.3159661293029785
1761132243277597700,0.43259765625,-2.8856983184814453,-1.0129024982452393,-2.5825035572052
1761132243287597600,0.44259765625,-2.7473483085632324,-0.9745371341705322,-2.410351037979126
1761132243297597700,0.45259765625,-2.9472146034240723,-0.542750358581543,-1.267103910446167
1761132243307598600,0.4625986328125,-3.797455310821533,-0.25107288360595703,0.9082547426223755
1761132243317598500,0.472598388671875,-4.93815803527832,-0.6373927593231201,3.2758471965789795
1761132243327598600,0.4825986328125,-6.003170967102051,0.015865325927734375,4.15704345703125
1761132243337598500,0.492598388671875,-7.422797203063965,0.6202340126037598,3.680150270462036
1761132243347598600,0.5025986328125,-8.975396156311035,0.24305129051208496,3.7416269779205322
1761132243357598500,0.512598388671875,-9.968664169311523,0.548616886138916,3.2156460285186768
1761132243367598600,0.5225986328125,-10.152095794677734,1.5769867897033691,2.529252529144287
1761132243377598500,0.532598388671875,-10.223438262939453,1.5610339641571045,2.2053427696228027
1761132243387598600,0.5425986328125,-10.15565013885498,0.24049043655395508,2.5042495727539062
1761132243397598500,0.552598388671875,-10.031962394714355,-0.9075213670730591,3.346021890640259
1761132243407597600,0.56259765625,-10.907866477966309,-0.5129199028015137,-0.13319924473762512
1761132243417597700,0.57259765625,-10.970902442932129,1.1868338584899902,-0.8370256423950195
1761132243427597600,0.58259765625,-10.745389938354492,2.4239208698272705,-1.8428092002868652
1761132243437597700,0.59259765625,-11.303468704223633,1.306843638420105,-1.8522393703460693
1761132243447597600,0.60259765625,-11.836957931518555,0.35081779956817627,-1.8136407136917114
1761132243457597700,0.61259765625,-11.855360984802246,0.5105005502700806,-2.1473443508148193
1761132243467597600,0.62259765625,-11.885599136352539,1.1976934671401978,-2.38784122467041
1761132243477597700,0.63259765625,-12.037090301513672,1.3555494546890259,-1.8070563077926636
1761132243487597600,0.64259765625,-11.929496765136719,0.7387140989303589,-0.12280924618244171
1761132243497597700,0.65259765625,-9.982958793640137,0.4200754165649414,1.5591121912002563
1761132243507598300,0.662598388671875,-8.786030769348145,0.3412017822265625,1.6117515563964844
1761132243517598500,0.672598388671875,-7.514174461364746,-0.5872427225112915,0.8726894855499268
1761132243527598300,0.682598388671875,-4.354645252227783,-1.3211864233016968,-0.21225988864898682
1761132243537598500,0.692598388671875,-1.3718929290771484,-1.6106810569763184,-1.456007480621338
1761132243547598300,0.702598388671875,0.8677244186401367,-1.6315529346466064,-1.9087756872177124
1761132243557598500,0.712598388671875,3.175872802734375,-1.3743668794631958,-1.6053141355514526
1761132243567598600,0.7225986328125,5.915035247802734,-0.979887843132019,-1.6730674505233765
1761132243577598500,0.732598388671875,8.481160163879395,-0.31399208307266235,-1.7498174905776978
1761132243587598600,0.7425986328125,9.28243637084961,0.7640163898468018,-2.280411958694458
1761132243597598500,0.752598388671875,9.482144355773926,2.037144660949707,-2.0250439643859863
1761132243607597600,0.76259765625,10.845033645629883,3.0594186782836914,-0.04558786749839783
1761132243617597700,0.77259765625,15.810492515563965,2.451235771179199,4.742558002471924
1761132243627597600,0.78259765625,22.62979507446289,0.260351300239563,8.033093452453613
1761132243637597700,0.79259765625,29.153610229492188,-2.360471248626709,9.917075157165527
1761132243647597600,0.80259765625,34.001407623291016,-3.880138635635376,10.961995124816895
1761132243657597700,0.81259765625,35.903038024902344,-5.758719444274902,11.880627632141113
1761132243667597600,0.82259765625,32.15299987792969,-2.9299628734588623,9.926299095153809
1761132243677597700,0.83259765625,23.60706329345703,-0.14119412004947662,7.714568138122559
1761132243687597600,0.84259765625,17.072729110717773,1.9208636283874512,5.086318492889404
1761132243697597700,0.85259765625,12.910405158996582,3.1573634147644043,2.94514536857605
1761132243707598600,0.8625986328125,10.28459644317627,3.382885217666626,1.9786131381988525
1761132243717598500,0.872598388671875,8.38727855682373,3.172631025314331,1.059903860092163
1761132243727598600,0.8825986328125,6.440801620483398,3.571578025817871,-0.31587380170822144
1761132243737598500,0.892598388671875,4.688041687011719,4.329352378845215,0.15579718351364136
1761132243747598600,0.9025986328125,2.2029247283935547,4.524075508117676,2.927027702331543
1761132243757598500,0.912598388671875,-1.4981613159179688,4.96819543838501,4.503026008605957
1761132243767598600,0.9225986328125,-5.267010688781738,5.153355598449707,4.069644451141357
1761132243777598500,0.932598388671875,-8.377415657043457,5.382105827331543,2.0960211753845215
1761132243787598600,0.9425986328125,-10.964848518371582,5.380124568939209,0.05834698677062988
1761132243797598500,0.952598388671875,-10.955111503601074,5.2207489013671875,-0.03706216812133789
1761132243807597600,0.96259765625,-12.71808910369873,4.182830810546875,-2.117091417312622
1761132243817597700,0.97259765625,-13.276397705078125,3.719080686569214,-2.3865177631378174
1761132243827597600,0.98259765625,-13.989851951599121,3.3926925659179688,-2.134704351425171
1761132243837597700,0.99259765625,-14.761838912963867,2.999469757080078,-1.667320966720581
1761132243847597800,1.002597900390625,-15.378719329833984,2.615816354751587,-1.2199206352233887
1761132243857597700,1.01259765625,-15.35978889465332,2.491156578063965,-1.2765259742736816
1761132243867597600,1.02259765625,-15.353350639343262,1.7226570844650269,-0.7585805654525757
1761132243877597700,1.03259765625,-14.256475448608398,1.2623484134674072,-0.7166444063186646
1761132243887597600,1.04259765625,-12.559508323669434,0.7571982145309448,-0.9575246572494507
1761132243897597700,1.05259765625,-10.588981628417969,0.06977653503417969,-1.275208592414856
1761132243907598600,1.0625986328125,-8.42990493774414,-0.6554051637649536,-1.63448965549469
1761132243917598500,1.072598388671875,-6.32907772064209,-1.0346311330795288,-1.911698818206787
1761132243927598600,1.0825986328125,-4.978732585906982,-1.3614646196365356,-2.301754951477051
1761132243937598500,1.092598388671875,-4.810825824737549,-1.7535746097564697,-2.7639663219451904
1761132243947598600,1.1025986328125,-5.723733901977539,-1.9385390281677246,-2.9325881004333496
1761132243957598500,1.112598388671875,-7.266393184661865,-1.9516613483428955,-2.6967411041259766
1761132243967598300,1.122598388671875,-7.296850681304932,-2.0215249061584473,-2.5127062797546387
1761132243977598200,1.13259814453125,-9.751557350158691,-2.040593147277832,-1.4664994478225708
1761132243987598300,1.142598388671875,-9.674628257751465,-2.207878828048706,-1.5298113822937012
1761132243997598200,1.15259814453125,-8.922625541687012,-2.3556368350982666,-2.1025304794311523
1761132244007597600,1.16259765625,-8.301118850708008,-2.661698818206787,-2.8057613372802734
1761132244017597400,1.172597412109375,-8.309303283691406,-2.7082695960998535,-2.688406229019165
1761132244027597600,1.18259765625,-7.5500898361206055,-2.840235471725464,-3.1569080352783203
1761132244037597400,1.192597412109375,-5.287148475646973,-2.6301212310791016,-3.062685966491699
1761132244047597600,1.20259765625,-3.4306440353393555,-2.7327938079833984,-2.315047025680542
1761132244057597400,1.212597412109375,-0.9387245178222656,-3.0944712162017822,-2.538858413696289
1761132244067597600,1.22259765625,1.6561269760131836,-3.454907178878784,-3.856734037399292
1761132244077597400,1.232597412109375,5.897790908813477,-2.8462321758270264,-5.137737274169922
1761132244087597600,1.24259765625,11.059739112854004,-1.523453950881958,-5.307316303253174
1761132244097597400,1.252597412109375,15.036685943603516,-0.349811315536499,-3.958768129348755
1761132244107598300,1.262598388671875,16.69487762451172,1.474798560142517,-1.9508284330368042
1761132244117598500,1.272598388671875,14.82584285736084,4.00856876373291,1.2625069618225098
1761132244127598300,1.282598388671875,13.16414737701416,5.800793170928955,5.637303352355957
1761132244137598500,1.292598388671875,16.295324325561523,5.779581069946289,10.42633056640625
1761132244147598300,1.302598388671875,21.581684112548828,3.527006149291992,14.127554893493652
1761132244157598200,1.31259814453125,25.436552047729492,2.1384034156799316,17.195663452148438
1761132244167598300,1.322598388671875,29.024795532226562,3.225935220718384,18.331192016601562
1761132244177598200,1.33259814453125,29.817399978637695,4.2211012840271,17.155790328979492
1761132244187598300,1.342598388671875,25.847373962402344,5.924397945404053,14.741870880126953
1761132244197598200,1.35259814453125,18.924562454223633,8.211163520812988,11.804780960083008
1761132244207597300,1.362597412109375,13.479716300964355,9.601612091064453,10.497127532958984
1761132244217597400,1.372597412109375,9.957907676696777,9.374070167541504,10.035221099853516
1761132244227597300,1.382597412109375,8.323549270629883,8.233569145202637,9.229419708251953
1761132244237597400,1.392597412109375,7.198015213012695,6.634413719177246,7.656966209411621
1761132244247597300,1.402597412109375,5.057981491088867,4.791016101837158,5.848398208618164
1761132244257597400,1.412597412109375,2.044468879699707,3.519019603729248,4.447356700897217
1761132244267597600,1.42259765625,-1.788743495941162,2.728135824203491,3.3554606437683105
1761132244277597700,1.43259765625,-5.8588995933532715,2.239457845687866,2.5677342414855957
1761132244287597600,1.44259765625,-9.331674575805664,1.8372101783752441,1.614683747291565
1761132244297597700,1.45259765625,-12.093207359313965,1.3723782300949097,0.7583929300308228
1761132244307598300,1.462598388671875,-14.253408432006836,0.844970703125,0.20289579033851624
1761132244317598500,1.472598388671875,-15.524297714233398,0.17755454778671265,0.12107387185096741
1761132244327598300,1.482598388671875,-16.159954071044922,-0.4730800986289978,-0.3165036737918854
1761132244337598500,1.492598388671875,-16.096134185791016,-1.3481465578079224,-0.6358106136322021
1761132244347598300,1.502598388671875,-15.291759490966797,-1.905080795288086,-0.5179290175437927
1761132244357598500,1.512598388671875,-15.43834114074707,-2.714094877243042,-0.5697944164276123
1761132244367598600,1.5225986328125,-15.678922653198242,-3.092461585998535,-0.5963013172149658
1761132244377598500,1.532598388671875,-15.588493347167969,-3.4462318420410156,-0.47302746772766113
1761132244387598600,1.5425986328125,-15.2954683303833,-3.800668239593506,-0.800671398639679
1761132244397598500,1.552598388671875,-14.558926582336426,-4.086307525634766,-1.8343173265457153
1761132244410775300,1.565775390625,-14.424789428710938,-4.592109680175781,-2.438800811767578
1761132244420775200,1.575775146484375,-13.418553352355957,-5.097426414489746,-2.7792348861694336
1761132244430775300,1.585775390625,-12.145986557006836,-5.211371421813965,-3.458848714828491
1761132244440775200,1.595775146484375,-11.389007568359375,-5.117184162139893,-3.304600715637207
1761132244450775300,1.605775390625,-10.899477005004883,-4.968613624572754,-2.4032747745513916
1761132244460775200,1.615775146484375,-10.554641723632812,-4.604652404785156,-1.4662668704986572
1761132244470775300,1.625775390625,-10.406571388244629,-4.253715991973877,-0.7718324065208435
1761132244480775200,1.635775146484375,-10.363393783569336,-4.251084327697754,-0.2401321828365326
1761132244490775300,1.645775390625,-10.029837608337402,-4.555212497711182,-0.25089216232299805
1761132244500775200,1.655775146484375,-9.744034767150879,-4.484213352203369,-0.8673944473266602
1761132244510775800,1.66577587890625,-9.606154441833496,-4.274754524230957,-1.1733453273773193
1761132244520775700,1.675775634765625,-9.29045295715332,-4.038671970367432,-0.9016025066375732
1761132244530775800,1.68577587890625,-8.625438690185547,-3.6184029579162598,-0.6713975071907043
1761132244540775700,1.695775634765625,-6.9705305099487305,-3.2388720512390137,-0.5961059331893921
1761132244550775800,1.70577587890625,-4.197315692901611,-3.250154495239258,-0.7974573969841003
1761132244560775700,1.715775634765625,-0.36211490631103516,-3.388279438018799,-1.2916890382766724
1761132244570775800,1.72577587890625,3.5370912551879883,-3.5130791664123535,-1.9323292970657349
1761132244580775700,1.735775634765625,6.738116264343262,-2.834883689880371,-3.1794745922088623
1761132244590775800,1.74577587890625,8.8881196975708,-1.2123445272445679,-4.371471405029297
1761132244600775700,1.755775634765625,11.655340194702148,1.291772484779358,-4.539016246795654
1761132244610775000,1.765775146484375,11.669694900512695,1.2379150390625,-4.655162334442139
1761132244620775000,1.77577490234375,20.491046905517578,4.294020652770996,-1.6979877948760986
1761132244630775000,1.785775146484375,24.58993911743164,4.6065850257873535,1.5197948217391968
1761132244640775000,1.79577490234375,26.117807388305664,5.348328590393066,5.244778633117676
1761132244650774800,1.80577490234375,24.988182067871094,7.786104202270508,8.138138771057129
1761132244660775000,1.81577490234375,23.502166748046875,10.287385940551758,11.166210174560547
1761132244670774800,1.82577490234375,23.576828002929688,10.614486694335938,15.390938758850098
1761132244680775000,1.83577490234375,23.175243377685547,10.284156799316406,19.83180809020996
1761132244690774800,1.84577490234375,21.461769104003906,9.892666816711426,21.630626678466797
1761132244700775000,1.85577490234375,19.411996841430664,9.015971183776855,20.574281692504883
1761132244710775800,1.86577587890625,19.426841735839844,9.131254196166992,20.467941284179688
1761132244720775700,1.875775634765625,15.17895221710205,6.687212944030762,14.887443542480469
1761132244730775800,1.88577587890625,10.15758991241455,5.89117431640625,11.719189643859863
1761132244740775700,1.895775634765625,4.80519962310791,4.790182590484619,8.591175079345703
1761132244750775800,1.90577587890625,0.5443944931030273,3.7967255115509033,6.372373580932617
1761132244760775700,1.915775634765625,-2.4993677139282227,2.5020828247070312,4.443164825439453
1761132244770774800,1.92577490234375,-4.728168964385986,1.0506114959716797,2.792048215866089
1761132244780775000,1.93577490234375,-6.2975568771362305,-0.2241460084915161,1.7346959114074707
1761132244790774800,1.94577490234375,-7.462684631347656,-0.9647523760795593,1.0965888500213623
1761132244800775000,1.95577490234375,-8.697365760803223,-1.607628345489502,0.12400436401367188
1761132244810775300,1.965775390625,-8.657846450805664,-1.7829489707946777,0.1299271583557129
1761132244820775200,1.975775146484375,-11.91945743560791,-2.7824196815490723,-2.4585139751434326
1761132244830775300,1.985775390625,-13.828582763671875,-3.2210888862609863,-3.7238526344299316
1761132244840775200,1.995775146484375,-15.207653045654297,-3.5907981395721436,-3.93660569190979
1761132244850775300,2.005775390625,-15.95025634765625,-4.1209611892700195,-3.9613888263702393
1761132244860775400,2.015775390625,-16.271080017089844,-4.6121110916137695,-4.20172119140625
1761132244870775300,2.025775390625,-16.204145431518555,-5.073818206787109,-4.6164445877075195
1761132244880775200,2.035775146484375,-15.789091110229492,-5.3022050857543945,-5.015325546264648
1761132244890775300,2.045775390625,-15.211180686950684,-5.553040981292725,-5.1482319831848145
1761132244900775200,2.055775146484375,-14.702569007873535,-5.892239570617676,-5.108541488647461
1761132244910776000,2.065776123046875,-14.168403625488281,-6.291827201843262,-5.2815399169921875
1761132244920776200,2.075776123046875,-13.635968208312988,-6.546356201171875,-5.534074783325195
1761132244930776000,2.085776123046875,-13.051060676574707,-6.869210243225098,-5.911691665649414
1761132244940776200,2.095776123046875,-12.506608963012695,-7.394742965698242,-6.013288497924805
1761132244950776000,2.105776123046875,-11.980627059936523,-7.955808162689209,-5.98512077331543
1761132244960776200,2.115776123046875,-11.545450210571289,-8.120920181274414,-5.663944244384766
1761132244970775800,2.12577587890625,-11.10292911529541,-8.129365921020508,-5.056221008300781
1761132244980775700,2.135775634765625,-10.548909187316895,-7.9434494972229,-4.382055759429932
1761132244990775800,2.14577587890625,-10.120826721191406,-7.833254814147949,-3.9267210960388184
1761132245000775700,2.155775634765625,-9.863621711730957,-7.7974042892456055,-3.4342987537384033
1761132245010775000,2.165775146484375,-9.795246124267578,-7.673320770263672,-2.9342689514160156
1761132245020775000,2.17577490234375,-9.592167854309082,-7.803640365600586,-3.026360034942627
1761132245030774800,2.18577490234375,-8.865236282348633,-7.786477565765381,-3.3294315338134766
1761132245040775000,2.19577490234375,-7.585014343261719,-7.7126569747924805,-3.350914478302002
1761132245050774800,2.20577490234375,-6.025156497955322,-7.412623405456543,-3.422455310821533
1761132245060775000,2.21577490234375,-3.976454257965088,-6.794620513916016,-2.785907030105591
1761132245070775800,2.22577587890625,-1.1188087463378906,-5.912556171417236,-0.42553597688674927
1761132245080775700,2.235775634765625,2.137845993041992,-4.91874361038208,2.124706745147705
1761132245090775800,2.24577587890625,5.771976470947266,-3.4842562675476074,4.613922119140625
1761132245100775700,2.255775634765625,8.678801536560059,-0.8825715184211731,5.282836437225342
1761132245110775800,2.26577587890625,11.225549697875977,2.7186758518218994,4.3207926750183105
1761132245120776000,2.27577587890625,15.687884330749512,4.971921443939209,3.5960707664489746
1761132245130775800,2.28577587890625,22.80953598022461,6.4571614265441895,3.195955514907837
1761132245140776000,2.29577587890625,31.144147872924805,7.418125629425049,5.097763538360596
1761132245150775800,2.30577587890625,42.05033874511719,7.3382062911987305,7.9282145500183105
1761132245160775700,2.315775634765625,47.12975311279297,7.7115159034729,9.546334266662598
1761132245170775800,2.32577587890625,50.98164367675781,4.022679805755615,14.401412010192871
1761132245180776000,2.33577587890625,49.18351364135742,4.571257591247559,14.278996467590332
1761132245190775800,2.34577587890625,42.89872741699219,6.306199073791504,12.805597305297852
1761132245200776000,2.35577587890625,33.99742889404297,7.079503059387207,10.712063789367676
1761132245210775000,2.365775146484375,25.603206634521484,7.087652206420898,8.061820030212402
1761132245220775000,2.37577490234375,18.16535186767578,6.27211332321167,6.613245010375977
1761132245230775000,2.385775146484375,12.183788299560547,5.250471115112305,5.728495121002197
1761132245240775000,2.39577490234375,6.378118515014648,3.9085512161254883,4.322948932647705
1761132245250775000,2.405775146484375,1.3637714385986328,2.6861634254455566,3.3341047763824463
1761132245260775000,2.41577490234375,-3.625436305999756,1.7528226375579834,2.61100435256958
1761132245270775300,2.425775390625,-7.986008644104004,0.9844653010368347,2.3962907791137695
1761132245280775200,2.435775146484375,-11.493804931640625,0.35355210304260254,2.632732629776001
1761132245290775300,2.445775390625,-13.915153503417969,-0.19387447834014893,2.9943151473999023
1761132245300775200,2.455775146484375,-16.20204734802246,-0.8664283752441406,2.827242851257324
1761132245310776000,2.465776123046875,-17.769866943359375,-1.8064184188842773,2.55204176902771
1761132245320776200,2.475776123046875,-18.578182220458984,-2.8095617294311523,2.3598551750183105
1761132245330776000,2.485776123046875,-18.229442596435547,-4.158919334411621,1.9488277435302734
1761132245340776200,2.495776123046875,-17.679046630859375,-5.405858993530273,1.2105950117111206
1761132245350776000,2.505776123046875,-16.431682586669922,-5.824993133544922,0.9536885023117065
1761132245360776200,2.515776123046875,-15.551104545593262,-6.293972969055176,0.9502514600753784
1761132245370776000,2.525776123046875,-15.315221786499023,-7.031159400939941,1.317915678024292
1761132245380776200,2.535776123046875,-15.187299728393555,-7.58891487121582,1.0912052392959595
1761132245390776000,2.545776123046875,-14.823070526123047,-8.119850158691406,0.4982680380344391
1761132245400776200,2.555776123046875,-14.334616661071777,-8.650728225708008,-0.19970703125
1761132245410775300,2.565775390625,-13.788751602172852,-9.116379737854004,-0.751734733581543
1761132245420775200,2.575775146484375,-12.94005012512207,-9.82950210571289,-1.0514055490493774
1761132245430775300,2.585775390625,-11.731823921203613,-10.284061431884766,-1.4921668767929077
1761132245440775200,2.595775146484375,-10.48291015625,-10.46296501159668,-1.5566247701644897
1761132245450775300,2.605775390625,-9.611054420471191,-10.524740219116211,-1.5273760557174683
1761132245460775200,2.615775146484375,-9.110507011413574,-10.06346321105957,-1.2697629928588867
1761132245470775300,2.625775390625,-8.840082168579102,-9.497220993041992,-0.7956303358078003
1761132245480775200,2.635775146484375,-8.620401382446289,-9.13102912902832,-0.4718872308731079
1761132245490775300,2.645775390625,-8.578808784484863,-8.584342956542969,-0.44513607025146484
1761132245500775200,2.655775146484375,-8.617087364196777,-8.040380477905273,-0.5671031475067139
1761132245510776000,2.665776123046875,-8.437868118286133,-7.587131500244141,-0.5703363418579102
1761132245520776200,2.675776123046875,-8.04727554321289,-6.931582450866699,-0.8473329544067383
1761132245530776000,2.685776123046875,-7.279220104217529,-5.386784553527832,-1.8342502117156982
1761132245540776200,2.695776123046875,-6.33275032043457,-3.6959218978881836,-2.480327844619751
1761132245550776000,2.705776123046875,-5.243887901306152,-1.8550584316253662,-2.4856643676757812
1761132245560776200,2.715776123046875,-4.259195804595947,0.7103323936462402,-2.3763904571533203
1761132245570775300,2.725775390625,-3.1191372871398926,3.685610771179199,-2.8026373386383057
1761132245580775200,2.735775146484375,-1.1503214836120605,6.598585605621338,-3.2869582176208496
1761132245590775300,2.745775390625,3.5762548446655273,8.786384582519531,-3.620563507080078
1761132245600775400,2.755775390625,10.350584030151367,10.106524467468262,-2.8746488094329834
1761132245610774500,2.7657744140625,18.21792984008789,9.498394012451172,0.45428264141082764
1761132245620774400,2.7757744140625,26.212127685546875,6.792460918426514,5.840291976928711
1761132245630774500,2.7857744140625,32.660301208496094,4.901715278625488,8.974056243896484
1761132245640774400,2.7957744140625,34.73721694946289,4.088564872741699,8.106486320495605
1761132245650774500,2.8057744140625,32.05054473876953,4.127359867095947,5.089596271514893
1761132245660774400,2.8157744140625,26.485898971557617,4.845245838165283,3.4794135093688965
1761132245670774300,2.825774169921875,18.963598251342773,5.645907402038574,3.580026626586914
1761132245680774400,2.8357744140625,11.695395469665527,6.1352152824401855,2.8908486366271973
1761132245690774300,2.845774169921875,8.510445594787598,6.03819465637207,2.35640287399292
1761132245700774400,2.8557744140625,12.251935958862305,5.154881477355957,0.5475320816040039
1761132245710775300,2.865775390625,15.45991039276123,5.45561408996582,-1.1408106088638306
1761132245720775200,2.875775146484375,16.163532257080078,5.360291481018066,0.6063584685325623
1761132245730775300,2.885775390625,14.820796012878418,4.775351524353027,5.020971775054932
1761132245740775200,2.895775146484375,10.797436714172363,4.185783386230469,9.222831726074219
1761132245750775300,2.905775390625,4.860577583312988,3.776730537414551,11.582881927490234
1761132245760775200,2.915775146484375,-2.8714118003845215,3.442014694213867,10.9138765335083
1761132245770775300,2.925775390625,-9.088828086853027,3.270336866378784,8.245473861694336
1761132245780775200,2.935775146484375,-13.5430326461792,2.697371006011963,5.599050521850586
1761132245790775300,2.945775390625,-15.639633178710938,1.6341655254364014,3.139056444168091
1761132245800775200,2.955775146484375,-15.547679901123047,1.3861782550811768,3.2203292846679688
1761132245810774500,2.9657744140625,-14.236051559448242,-0.10095620155334473,-0.8776594996452332
1761132245820774400,2.9757744140625,-14.173786163330078,-0.24634385108947754,-0.8220491409301758
1761132245830774500,2.9857744140625,-9.83530044555664,-2.102034091949463,1.3928364515304565
1761132245840774400,2.9957744140625,-9.208579063415527,-2.6402158737182617,1.9808505773544312
1761132245850774500,3.0057744140625,-9.556352615356445,-3.162263870239258,2.1488795280456543
1761132245860774400,3.0157744140625,-10.308923721313477,-3.6358819007873535,2.0930514335632324
1761132245870775300,3.025775390625,-10.931578636169434,-4.0418829917907715,1.850196123123169
1761132245880775200,3.035775146484375,-11.287029266357422,-4.38340950012207,1.7688647508621216
1761132245890775300,3.045775390625,-11.20024585723877,-4.752542972564697,1.5877609252929688
1761132245900775200,3.055775146484375,-10.928214073181152,-5.01489782333374,1.2384309768676758
1761132245910776000,3.065776123046875,-10.649652481079102,-5.319704055786133,0.9357545375823975
1761132245920776200,3.075776123046875,-10.374862670898438,-5.583218097686768,0.8142275214195251
1761132245930776000,3.085776123046875,-9.081243515014648,-5.840453624725342,0.5757657289505005
1761132245940776200,3.095776123046875,-7.284424781799316,-6.040881633758545,-0.14438512921333313
1761132245950776000,3.105776123046875,-5.645295143127441,-6.091363430023193,-0.8255981802940369
1761132245960776200,3.115776123046875,-4.975365161895752,-6.113221645355225,-1.2834043502807617
1761132245970776000,3.125776123046875,-4.858811855316162,-5.714417934417725,-1.504969596862793
1761132245980776200,3.135776123046875,-4.6404619216918945,-5.144747734069824,-1.3914849758148193
1761132245990776000,3.145776123046875,-3.4416732788085938,-4.659486293792725,-1.754277229309082
1761132246000776200,3.155776123046875,-1.1741838455200195,-3.854682445526123,-2.7127625942230225
1761132246010775300,3.165775390625,1.4480323791503906,-2.8960845470428467,-3.9134747982025146
1761132246020775200,3.175775146484375,4.334841728210449,-1.7412996292114258,-4.514059543609619
1761132246030775300,3.185775390625,6.849076271057129,-0.34446096420288086,-4.06870698928833
1761132246040775200,3.195775146484375,6.91501522064209,-0.44204092025756836,-4.214840412139893
1761132246050775300,3.205775390625,10.1402006149292,2.740701198577881,2.2136831283569336
1761132246060775200,3.215775146484375,9.13785171508789,4.112164497375488,5.431051254272461
1761132246070775300,3.225775390625,7.256786346435547,5.44269323348999,6.548895359039307
1761132246080775200,3.235775146484375,6.052340030670166,5.845219612121582,4.827945709228516
1761132246090775300,3.245775390625,6.368739604949951,5.3606157302856445,1.9373127222061157
1761132246100775200,3.255775146484375,8.458003997802734,4.144940376281738,0.2597609758377075
1761132246110776000,3.265776123046875,12.637002944946289,2.826643466949463,-0.2517789900302887
1761132246120776200,3.275776123046875,18.121707916259766,1.589615821838379,-0.052840203046798706
1761132246130776000,3.285776123046875,22.257354736328125,0.6352524757385254,0.8457359075546265
1761132246140776200,3.295776123046875,21.60367202758789,0.4020519256591797,1.6086986064910889
1761132246150776000,3.305776123046875,17.748397827148438,0.7412238121032715,1.7974281311035156
1761132246160776200,3.315776123046875,10.744145393371582,1.229383945465088,1.7338844537734985
1761132246170776000,3.325776123046875,4.60819149017334,1.462064266204834,1.7240402698516846
1761132246180776200,3.335776123046875,-0.23606300354003906,1.684802532196045,1.3618577718734741
1761132246190776000,3.345776123046875,-3.757277011871338,1.8145999908447266,0.37784531712532043
1761132246200776200,3.355776123046875,-6.1085286140441895,1.861194133758545,-0.5298691987991333
1761132246210775300,3.365775390625,-7.382816314697266,1.8883533477783203,-0.9034665822982788
1761132246220775200,3.375775146484375,-7.8283915519714355,1.7146716117858887,-0.06779664754867554
1761132246230775300,3.385775390625,-7.4035773277282715,1.4975471496582031,1.0848171710968018
1761132246240775200,3.395775146484375,-6.4101409912109375,1.2938661575317383,1.8251692056655884
1761132246250775300,3.405775390625,-5.272880554199219,1.17203950881958,2.3562440872192383
1761132246260775200,3.415775146484375,-5.20005989074707,1.0495171546936035,2.3519344329833984
1761132246270775300,3.425775390625,-5.867271423339844,0.7612109184265137,1.807248830795288
1761132246280775200,3.435775146484375,-7.000807762145996,0.49507999420166016,0.6122041344642639
1761132246290775300,3.445775390625,-8.15090274810791,0.027503013610839844,-0.3840219974517822
1761132246300775200,3.455775146484375,-9.308741569519043,-0.5615100860595703,-1.0353882312774658
1761132246310776000,3.465776123046875,-10.176704406738281,-1.2120904922485352,-1.3211605548858643
1761132246320776000,3.47577587890625,-10.819576263427734,-1.8432502746582031,-1.3321038484573364
1761132246330776000,3.485776123046875,-11.298892974853516,-2.229966402053833,-1.0524954795837402
1761132246340776000,3.49577587890625,-11.363762855529785,-2.5307857990264893,-0.2966845631599426
1761132246350776000,3.505776123046875,-10.891398429870605,-2.7987165451049805,0.3856738209724426
1761132246360776200,3.515776123046875,-10.119330406188965,-3.058786392211914,0.9376329183578491
1761132246370776000,3.525776123046875,-9.363935470581055,-3.23980975151062,1.5351732969284058
1761132246380776200,3.535776123046875,-8.607884407043457,-3.1628212928771973,2.0055928230285645
1761132246390776000,3.545776123046875,-7.593106746673584,-2.8984267711639404,2.093351125717163
1761132246400776000,3.55577587890625,-6.303390979766846,-2.8312997817993164,2.3496756553649902
1761132246410775000,3.565775146484375,-4.458626747131348,-2.772340774536133,2.614515781402588
1761132246420775200,3.575775146484375,-1.8365297317504883,-2.133199453353882,1.9059892892837524
1761132246430775000,3.585775146484375,0.9358453750610352,-1.0880365371704102,0.4402966797351837
1761132246440775200,3.595775146484375,3.039557456970215,0.6105670928955078,-0.7403914928436279
1761132246450775000,3.605775146484375,4.481376647949219,2.664191722869873,-1.0051684379577637
1761132246460775200,3.615775146484375,5.8831915855407715,4.712987422943115,0.6640509366989136
1761132246470775000,3.625775146484375,7.742007255554199,5.849977016448975,3.7299299240112305
1761132246480775200,3.635775146484375,9.37855339050293,6.172872066497803,6.076836109161377
1761132246490775000,3.645775146484375,10.141407012939453,6.5596795082092285,6.298183441162109
1761132246500775200,3.655775146484375,9.258267402648926,6.442142009735107,5.12946081161499
1761132246510776000,3.665776123046875,6.956863880157471,5.483687400817871,2.816944122314453
1761132246520776000,3.67577587890625,4.853774547576904,5.098613739013672,0.4170158803462982
1761132246530776000,3.685776123046875,4.034815788269043,4.59992790222168,-1.689954161643982
1761132246540776000,3.69577587890625,5.148687362670898,3.3579487800598145,-3.2234930992126465
1761132246550776000,3.705776123046875,7.338345527648926,1.980557918548584,-3.598888397216797
1761132246560776000,3.71577587890625,10.07955551147461,1.3810276985168457,-3.1098432540893555
1761132246570776000,3.725776123046875,12.504886627197266,1.056276798248291,-1.8929356336593628
1761132246580776000,3.73577587890625,12.711709976196289,1.2901930809020996,-1.4089106321334839
1761132246590776000,3.745776123046875,11.626020431518555,1.5237603187561035,-1.5060112476348877
1761132246600776200,3.755776123046875,9.646263122558594,1.4169812202453613,-1.70904541015625
1761132246610775300,3.765775390625,9.597248077392578,1.593787670135498,-1.5869649648666382
1761132246620775200,3.775775146484375,4.421801567077637,1.3964343070983887,-2.2686963081359863
1761132246630775300,3.785775390625,4.431312561035156,1.3613731861114502,-2.289062023162842
1761132246640775200,3.795775146484375,-2.156017303466797,0.9750585556030273,-1.6599842309951782
1761132246650775300,3.805775390625,-4.762653350830078,0.6356711387634277,-1.1506736278533936
1761132246660775200,3.815775146484375,-4.713717460632324,0.4774150848388672,-1.2585039138793945
1761132246670775300,3.825775390625,-7.829215049743652,-0.30262064933776855,-0.03145277500152588
1761132246680775200,3.835775146484375,-8.51537036895752,-0.8914523124694824,0.5681964755058289
1761132246690775300,3.845775390625,-8.641790390014648,-1.3082232475280762,1.234206199645996
1761132246700775200,3.855775146484375,-8.469523429870605,-1.7418076992034912,1.667840600013733
1761132246710776000,3.865776123046875,-8.175420761108398,-2.12380313873291,1.7307255268096924
1761132246720776200,3.875776123046875,-7.8748459815979,-2.4814136028289795,1.4568833112716675
1761132246730776000,3.885776123046875,-7.511226177215576,-2.947999954223633,1.045877456665039
1761132246740776200,3.895776123046875,-7.267596244812012,-3.4206185340881348,1.165330410003662
1761132246750776000,3.905776123046875,-7.326075077056885,-3.820614814758301,1.9890865087509155
1761132246760776200,3.915776123046875,-7.509965896606445,-4.082495212554932,2.5557663440704346
1761132246770776000,3.925776123046875,-7.769580364227295,-4.038665294647217,2.567963123321533
1761132246780776200,3.935776123046875,-8.065160751342773,-3.9340648651123047,2.289139747619629
1761132246790776000,3.945776123046875,-8.120087623596191,-3.957627296447754,1.7129120826721191
1761132246800776200,3.955776123046875,-7.561452865600586,-3.780512571334839,0.4422244429588318
1761132246810775300,3.965775390625,-6.92422342300415,-3.513529062271118,-0.6148539781570435
1761132246820775200,3.975775146484375,-6.341370105743408,-3.1534955501556396,-1.371568202972412
1761132246830775300,3.985775390625,-5.603166580200195,-2.427536964416504,-1.8093291521072388
1761132246840775200,3.995775146484375,-4.594120979309082,-1.531914234161377,-1.4499880075454712
1761132246850775300,4.005775390625,-2.958761215209961,-0.5554676055908203,-0.37650442123413086
1761132246860775200,4.015775146484375,-0.20816278457641602,0.5716633796691895,0.7689418792724609
1761132246870775300,4.025775390625,2.759121894836426,1.3255019187927246,1.1497665643692017
1761132246880775200,4.035775146484375,5.086023807525635,1.4199934005737305,0.7424024343490601
1761132246890775300,4.045775390625,5.315066814422607,1.43739652633667,0.9146047830581665
1761132246900775200,4.055775146484375,4.674967288970947,2.3289637565612793,1.9820985794067383
1761132246910776000,4.065776123046875,5.41165828704834,4.316190242767334,1.9676105976104736
1761132246920776000,4.07577587890625,7.301572322845459,5.156493186950684,1.315826416015625
1761132246930776000,4.085776123046875,8.843406677246094,4.743825912475586,0.5068682432174683
1761132246940776000,4.09577587890625,9.825338363647461,4.355328559875488,-0.22918248176574707
1761132246950776000,4.105776123046875,9.986135482788086,4.1217875480651855,-1.1198447942733765
1761132246960776000,4.11577587890625,9.626519203186035,4.654846668243408,-2.3317768573760986
1761132246970776000,4.125776123046875,9.810392379760742,4.652578353881836,-2.3139848709106445
1761132246980776000,4.13577587890625,10.191400527954102,3.8698654174804688,-0.8458420038223267
1761132246990776000,4.145776123046875,9.631980895996094,3.2383804321289062,0.4500061273574829
1761132247000776000,4.15577587890625,8.168183326721191,2.3870434761047363,1.3642401695251465
1761132247010775300,4.165775390625,5.819362640380859,1.7214746475219727,1.670466423034668
1761132247020775200,4.175775146484375,2.7603721618652344,1.337930679321289,1.6497557163238525
1761132247030775300,4.185775390625,-0.9870076179504395,0.8349442481994629,1.271188735961914
1761132247040775200,4.195775146484375,-3.975098133087158,0.17160511016845703,0.6863595247268677
1761132247050775300,4.205775390625,-6.0691375732421875,-0.570612907409668,0.10751831531524658
1761132247060775200,4.215775146484375,-6.735601902008057,-1.225329875946045,-0.33317697048187256
1761132247070775300,4.225775390625,-5.63925838470459,-1.9388797283172607,-0.552702784538269
1761132247080775200,4.235775146484375,-4.07472562789917,-2.4834671020507812,-0.10851192474365234
1761132247090775300,4.245775390625,-2.939356803894043,-2.71791934967041,0.4500158429145813
1761132247100775200,4.255775146484375,-2.4051947593688965,-2.61334228515625,0.4453366994857788
1761132247110776000,4.265776123046875,-2.224466323852539,-2.415332317352295,0.2882724404335022
1761132247120776200,4.275776123046875,-2.4899144172668457,-2.198758363723755,0.3908768892288208
1761132247130776000,4.285776123046875,-3.1317248344421387,-1.9685649871826172,0.6547101140022278
1761132247140776200,4.295776123046875,-4.188592433929443,-1.8954732418060303,0.8028961420059204
1761132247150776000,4.305776123046875,-5.769896507263184,-1.8996531963348389,0.5368784070014954
1761132247160776200,4.315776123046875,-7.066104888916016,-2.0654149055480957,0.45611006021499634
1761132247170776000,4.325776123046875,-7.049586296081543,-2.137598991394043,0.3398345112800598
1761132247180776200,4.335776123046875,-9.069884300231934,-2.4682297706604004,0.34142136573791504
1761132247190776000,4.345776123046875,-9.785491943359375,-2.6402297019958496,0.40449827909469604
1761132247200776200,4.355776123046875,-10.197652816772461,-2.8000853061676025,0.7277578115463257
1761132247210775300,4.365775390625,-10.302027702331543,-2.9502339363098145,1.004508137702942
1761132247220775200,4.375775146484375,-10.033647537231445,-3.085792064666748,1.1501634120941162
1761132247230775300,4.385775390625,-9.575319290161133,-3.2740321159362793,1.2359142303466797
1761132247240775200,4.395775146484375,-8.9314603805542,-3.453094720840454,1.1337357759475708
1761132247250775300,4.405775390625,-8.316099166870117,-3.6489739418029785,1.0270825624465942
1761132247260775200,4.415775146484375,-8.03821086883545,-3.809438943862915,1.0335184335708618
1761132247270775300,4.425775390625,-7.783970832824707,-3.970643997192383,0.9696729183197021
1761132247280775200,4.435775146484375,-7.108638763427734,-4.066503047943115,0.5972913503646851
1761132247290775300,4.445775390625,-5.692987442016602,-4.049760818481445,0.04275614023208618
1761132247300775200,4.455775146484375,-3.7238550186157227,-4.123106479644775,-0.5485735535621643
1761132247310776000,4.465776123046875,-1.483940601348877,-3.898622989654541,-0.9971175789833069
1761132247320776000,4.47577587890625,0.2594728469848633,-2.9602603912353516,-0.7015458345413208
1761132247330776000,4.485776123046875,1.28076171875,-1.7821733951568604,0.0036683082580566406
1761132247340776000,4.49577587890625,2.392423629760742,0.10402917861938477,0.22105827927589417
1761132247350776000,4.505776123046875,3.4765243530273438,1.2883353233337402,0.38447338342666626
1761132247360776000,4.51577587890625,4.389224052429199,2.070920467376709,-0.2128700613975525
1761132247370776000,4.525776123046875,4.712580680847168,3.1804652214050293,-1.3603284358978271
1761132247380776200,4.535776123046875,4.808313369750977,4.191013336181641,-2.4153194427490234
1761132247390776000,4.545776123046875,5.690220832824707,3.8665828704833984,-1.5845937728881836
1761132247400776000,4.55577587890625,9.202260971069336,2.733837366104126,0.7335732579231262
1761132247410775300,4.565775390625,15.049771308898926,1.4447081089019775,3.0161328315734863
1761132247420775200,4.575775146484375,20.51165771484375,-0.4461328983306885,4.463365077972412
1761132247430775300,4.585775390625,23.534759521484375,-2.27561092376709,3.2981016635894775
1761132247440775200,4.595775146484375,24.580307006835938,-3.0084404945373535,0.7655236721038818
1761132247450775300,4.605775390625,22.125120162963867,-1.4179034233093262,-1.426173448562622
1761132247460775200,4.615775146484375,17.929630279541016,0.23810994625091553,-1.786069393157959
1761132247470775300,4.625775390625,13.420997619628906,2.1061785221099854,-1.2591516971588135
1761132247480775200,4.635775146484375,8.93072509765625,3.6646499633789062,0.030450880527496338
1761132247490775000,4.645775146484375,4.809009552001953,4.405941009521484,2.5354785919189453
1761132247500775200,4.655775146484375,1.5557622909545898,4.725313663482666,4.81748104095459
1761132247510776000,4.665776123046875,-0.16056346893310547,4.705374717712402,5.116082668304443
1761132247520776000,4.67577587890625,-1.6716499328613281,4.13884973526001,3.93436336517334
1761132247530776000,4.685776123046875,-2.646078586578369,3.6572351455688477,2.065232515335083
1761132247540776000,4.69577587890625,-3.188655376434326,3.7850189208984375,0.7023207545280457
1761132247550776000,4.705776123046875,-3.0257182121276855,4.373685836791992,0.23672235012054443
1761132247560776000,4.71577587890625,-2.211770534515381,4.882481575012207,-0.12132918834686279
1761132247570776000,4.725776123046875,-1.6244277954101562,5.1913838386535645,-0.4467375874519348
1761132247580776200,4.735776123046875,-1.941760540008545,5.191949844360352,-0.39270615577697754
1761132247590776000,4.745776123046875,-3.5320000648498535,5.154444694519043,0.08477187156677246
1761132247600776200,4.755776123046875,-6.00620174407959,5.050958633422852,0.8963912129402161
1761132247610775300,4.765775390625,-8.427023887634277,4.763026237487793,1.6478748321533203
1761132247620775200,4.775775146484375,-10.475434303283691,4.429245471954346,2.285806655883789
1761132247630775300,4.785775390625,-11.489605903625488,4.078228950500488,2.4391074180603027
1761132247640775200,4.795775146484375,-12.176652908325195,3.481825351715088,2.0943570137023926
1761132247650775300,4.805775390625,-12.660654067993164,2.770388126373291,1.3730669021606445
1761132247660775200,4.815775146484375,-12.559454917907715,1.9858479499816895,0.3990072011947632
1761132247670775300,4.825775390625,-11.465765953063965,1.22614586353302,-0.9480440616607666
1761132247680775200,4.835775146484375,-9.98107624053955,0.8038276433944702,-2.299743175506592
1761132247690775300,4.845775390625,-8.58292007446289,0.685742974281311,-3.2509584426879883
1761132247700775200,4.855775146484375,-7.627239227294922,0.6735877394676208,-3.536447763442993
1761132247710776000,4.865776123046875,-7.087204933166504,0.7688205242156982,-3.1828079223632812
1761132247720776200,4.875776123046875,-6.71097469329834,0.8821265697479248,-2.217468500137329
1761132247730776000,4.885776123046875,-6.704090118408203,0.91993248462677,-2.184419631958008
1761132247740776200,4.895776123046875,-5.144931316375732,0.9097545146942139,-1.8506968021392822
1761132247750776000,4.905776123046875,-4.216445446014404,0.8076941967010498,-1.9226018190383911
1761132247760776200,4.915776123046875,-3.6382155418395996,0.6560739278793335,-2.1672310829162598
1761132247770776000,4.925776123046875,-3.0662894248962402,0.6086762547492981,-2.6879146099090576
1761132247780776200,4.935776123046875,-3.071564197540283,0.5791401267051697,-2.717960834503174
1761132247790776000,4.945776123046875,0.14047813415527344,0.07577741146087646,-3.0974693298339844
1761132247800776200,4.955776123046875,2.889706611633301,-0.34837090969085693,-2.624669313430786
1761132247810775300,4.965775390625,5.455397605895996,-0.6529386043548584,-1.7319161891937256
1761132247820775200,4.975775146484375,7.404606819152832,-0.8785290718078613,-1.102374792098999
1761132247830775300,4.985775390625,8.203536033630371,-1.034592866897583,-1.3543953895568848
1761132247840775200,4.995775146484375,7.900762557983398,-0.9480328559875488,-1.7895495891571045
1761132247850775300,5.005775390625,7.873849868774414,-0.7292823791503906,-1.6091850996017456
1761132247860775200,5.015775146484375,8.753113746643066,-0.7139231562614441,-0.6704484820365906
1761132247870775300,5.025775390625,9.741724014282227,-0.9554723501205444,0.4900524914264679
1761132247880775200,5.035775146484375,10.292154312133789,-1.4823579788208008,1.739203691482544
1761132247890775300,5.045775390625,10.611324310302734,-2.195537567138672,2.6605100631713867
1761132247900775200,5.055775146484375,11.16611385345459,-3.589663028717041,2.8938496112823486
1761132247910776000,5.065776123046875,13.457630157470703,-4.883866310119629,1.9246485233306885
1761132247920776000,5.07577587890625,16.95565414428711,-6.288683891296387,0.36678609251976013
1761132247930776000,5.085776123046875,19.81635284423828,-6.787477970123291,-0.5402957201004028
1761132247940776000,5.09577587890625,20.619314193725586,-5.686053276062012,-0.3031668961048126
1761132247950776000,5.105776123046875,19.289627075195312,-3.5932416915893555,1.0162898302078247
1761132247960776000,5.11577587890625,15.636585235595703,-1.3393352031707764,2.6065146923065186
1761132247970776000,5.125776123046875,12.44986629486084,0.16959786415100098,3.466017723083496
1761132247980776000,5.13577587890625,9.712334632873535,1.4703378677368164,3.7756855487823486
1761132247990776000,5.145776123046875,7.443197250366211,2.1086721420288086,3.499171733856201
1761132248000776000,5.15577587890625,5.6542816162109375,2.212419033050537,1.961345911026001
1761132248010775300,5.165775390625,4.208915710449219,2.2882046699523926,-0.11364187300205231
1761132248020775400,5.175775390625,2.210397720336914,2.7110180854797363,-2.3523197174072266
1761132248030775300,5.185775390625,0.22478199005126953,3.3901357650756836,-3.5380022525787354
1761132248040775200,5.195775146484375,-1.563793659210205,4.226027488708496,-3.890462636947632
1761132248050775300,5.205775390625,-3.2016677856445312,5.149170875549316,-3.635108709335327
1761132248060775200,5.215775146484375,-4.684576988220215,5.780135154724121,-2.9071640968322754
1761132248070775300,5.225775390625,-6.107149124145508,6.073984146118164,-2.0619449615478516
1761132248080775200,5.235775146484375,-7.261519432067871,6.075688362121582,-1.247945785522461
1761132248090775300,5.245775390625,-8.465327262878418,6.026113510131836,-0.8229360580444336
1761132248100775400,5.255775390625,-9.747543334960938,5.801755905151367,-0.39838236570358276
1761132248110776000,5.265776123046875,-10.961043357849121,5.513917922973633,-0.09098287671804428
1761132248120776200,5.275776123046875,-12.30712890625,5.004152774810791,0.18933381140232086
1761132248130776000,5.285776123046875,-13.29030704498291,4.532931327819824,-0.04591931030154228
1761132248140776200,5.295776123046875,-13.472333908081055,4.096624851226807,-0.4961397051811218
1761132248150776000,5.305776123046875,-12.91653823852539,3.615370273590088,-1.0697954893112183
1761132248160776200,5.315776123046875,-12.001419067382812,3.093928337097168,-1.6860355138778687
1761132248170776000,5.325776123046875,-12.011601448059082,3.032144069671631,-1.6398872137069702
1761132248180776200,5.335776123046875,-9.901010513305664,2.2101492881774902,-2.5481836795806885
1761132248190776000,5.345776123046875,-8.87706470489502,1.8236337900161743,-2.6506128311157227
1761132248200776200,5.355776123046875,-7.988282203674316,1.4650800228118896,-2.4800217151641846
1761132248210775300,5.365775390625,-7.250314712524414,1.156003475189209,-2.248230457305908
1761132248220775400,5.375775390625,-6.832054615020752,0.7283793091773987,-1.7996503114700317
1761132248230775300,5.385775390625,-6.801314353942871,0.3058764934539795,-1.3353462219238281
1761132248240775400,5.395775390625,-7.112618446350098,0.04861760139465332,-1.0757617950439453
1761132248250775300,5.405775390625,-8.096518516540527,-0.1509716510772705,-0.7790405750274658
1761132248260775400,5.415775390625,-9.166215896606445,-0.4229121208190918,-0.5179803967475891
1761132248270775300,5.425775390625,-9.956537246704102,-0.7490217685699463,-0.20702993869781494
1761132248280775400,5.435775390625,-10.3331937789917,-0.8422659635543823,0.10498327016830444
1761132248290775300,5.445775390625,-9.695219039916992,-0.8534299731254578,0.05726003646850586
1761132248300775400,5.455775390625,-6.803769588470459,-1.1479721069335938,0.07970869541168213
1761132248310776000,5.465776123046875,-1.6306114196777344,-1.8039942979812622,-0.2902824878692627
1761132248320776000,5.47577587890625,3.772441864013672,-3.0491037368774414,0.35884523391723633
1761132248330776000,5.485776123046875,8.459213256835938,-4.5282816886901855,1.9038286209106445
1761132248340776000,5.49577587890625,11.483302116394043,-5.630749225616455,3.3365159034729004
1761132248350776000,5.505776123046875,11.607588768005371,-5.854374885559082,3.498795986175537
1761132248360776200,5.515776123046875,8.710663795471191,-5.351374626159668,3.252249240875244
1761132248370776000,5.525776123046875,8.713638305664062,-5.424649715423584,3.3470330238342285
1761132248380776200,5.535776123046875,7.107122421264648,-3.9684700965881348,-0.7514195442199707
1761132248390776000,5.545776123046875,9.349533081054688,-5.158387660980225,-4.471034049987793
1761132248400776000,5.55577587890625,13.701712608337402,-7.05658483505249,-7.196200847625732
1761132248410775300,5.565775390625,19.799118041992188,-7.926697731018066,-8.791587829589844
1761132248420775200,5.575775146484375,27.673267364501953,-7.0013227462768555,-7.836646556854248
1761132248430775300,5.585775390625,31.562898635864258,-4.401213645935059,-4.379276752471924
1761132248440775200,5.595775146484375,31.41008758544922,-1.108189582824707,-1.1711070537567139
1761132248450775300,5.605775390625,27.12824058532715,1.372618317604065,0.8304380178451538
1761132248460775200,5.615775146484375,20.367431640625,2.2259364128112793,1.4622819423675537
1761132248470775300,5.625775390625,14.010031700134277,2.919797420501709,0.9363724589347839
1761132248480775200,5.635775146484375,8.442560195922852,3.9660420417785645,0.3308924436569214
1761132248490775300,5.645775390625,5.245121002197266,4.606959342956543,-0.6100723743438721
1761132248500775200,5.655775146484375,4.180352210998535,4.800004959106445,-1.7179105281829834
1761132248510776000,5.665776123046875,5.677299499511719,4.784348487854004,-2.791090965270996
1761132248520776000,5.67577587890625,7.167431831359863,4.570143699645996,-4.030588150024414
1761132248530776000,5.685776123046875,7.372723579406738,4.588986873626709,-5.014444351196289
1761132248540776000,5.69577587890625,5.690702438354492,4.826678276062012,-5.705117702484131
1761132248550776000,5.705776123046875,2.631437301635742,5.08256721496582,-5.72075891494751
1761132248560776000,5.71577587890625,-1.1309194564819336,5.27190637588501,-5.323635101318359
1761132248570776000,5.725776123046875,-1.1822280883789062,5.1080522537231445,-5.247705459594727
1761132248580776000,5.73577587890625,-4.99392557144165,4.918485641479492,-4.3494062423706055
1761132248590776000,5.745776123046875,-10.074703216552734,4.543177604675293,-1.9661513566970825
1761132248600776000,5.75577587890625,-11.55763053894043,4.214508533477783,-0.5979781746864319
1761132248610775600,5.765775634765625,-12.26363468170166,3.7558979988098145,0.6323710083961487
1761132248620775400,5.775775390625,-12.738457679748535,3.033249616622925,1.2558408975601196
1761132248630775600,5.785775634765625,-12.525564193725586,2.6368470191955566,1.6292341947555542
1761132248640775400,5.795775390625,-11.965648651123047,2.202543020248413,3.1210994720458984
1761132248650775300,5.805775390625,-11.550921440124512,1.1824109554290771,4.008413314819336
1761132248660775400,5.815775390625,-11.499263763427734,0.28578805923461914,3.6381802558898926
1761132248670775300,5.825775390625,-11.542093276977539,-0.25529009103775024,2.529578685760498
1761132248680775400,5.835775390625,-11.340797424316406,-1.0082354545593262,2.2649214267730713
1761132248690775300,5.845775390625,-11.324095726013184,-1.8821884393692017,2.0762569904327393
1761132248700775400,5.855775390625,-11.508779525756836,-2.5140960216522217,2.079366445541382
1761132248710776300,5.8657763671875,-11.800822257995605,-2.8596572875976562,2.1551709175109863
1761132248720776200,5.875776123046875,-12.168563842773438,-3.344409942626953,2.5301246643066406
1761132248730776300,5.8857763671875,-12.46312141418457,-3.9627413749694824,2.863436698913574
1761132248740776200,5.895776123046875,-12.649003982543945,-4.325599193572998,2.639847993850708
1761132248750776300,5.9057763671875,-12.497031211853027,-4.433966636657715,1.9891319274902344
1761132248760776200,5.915776123046875,-12.063375473022461,-4.609559535980225,1.2717640399932861
1761132248770776300,5.9257763671875,-11.385178565979004,-4.971681594848633,0.7073054313659668
1761132248780776200,5.935776123046875,-10.374789237976074,-5.0335469245910645,0.05955147743225098
1761132248790776300,5.9457763671875,-9.282047271728516,-4.747691631317139,-0.3996638059616089
1761132248800776200,5.955776123046875,-8.080306053161621,-4.475891590118408,-0.5472893714904785
1761132248810775300,5.965775390625,-6.819718837738037,-3.9557929039001465,-0.7523478269577026
1761132248820775400,5.975775390625,-6.815401554107666,-3.968048095703125,-0.7289407253265381
1761132248830775300,5.985775390625,-3.400937080383301,-2.334855556488037,-0.3749743700027466
1761132248840775400,5.995775390625,-3.400588035583496,-2.3421196937561035,-0.37810754776000977
1761132248850775600,6.005775634765625,1.6653079986572266,0.05578112602233887,-0.797825813293457
1761132248860775400,6.015775390625,4.497624397277832,2.2022242546081543,-2.5475831031799316
1761132248870775600,6.025775634765625,8.104180335998535,4.06320858001709,-3.837686777114868
1761132248880775400,6.035775390625,12.034052848815918,5.7645039558410645,-4.316430568695068
1761132248890775600,6.045775634765625,15.489614486694336,6.923574447631836,-3.2201075553894043
1761132248900775400,6.055775390625,15.452589988708496,7.036242485046387,-3.4638304710388184
1761132248910776000,6.065776123046875,27.741134643554688,5.178470611572266,1.6505358219146729
1761132248920776000,6.07577587890625,34.97380828857422,1.9943971633911133,1.898935079574585
1761132248930776000,6.085776123046875,38.65210723876953,-0.6004378795623779,0.9476245045661926
1761132248940776000,6.09577587890625,35.3203239440918,0.25086677074432373,-0.09864568710327148
1761132248950776000,6.105776123046875,27.757667541503906,2.1185150146484375,0.7635563611984253
1761132248960776000,6.11577587890625,19.158113479614258,4.073164939880371,3.395489454269409
1761132248970776000,6.125776123046875,11.764130592346191,5.599109649658203,5.383791446685791
1761132248980776000,6.13577587890625,6.41490364074707,6.267651081085205,6.151699542999268
1761132248990776000,6.145776123046875,4.10066032409668,6.470620632171631,5.259023666381836
1761132249000776000,6.15577587890625,3.483379364013672,5.865531921386719,3.317780017852783
1761132249010775300,6.165775390625,4.470156669616699,5.129885673522949,1.0865790843963623
1761132249020775200,6.175775146484375,5.012777328491211,4.387045860290527,-0.5751816034317017
1761132249030775000,6.185775146484375,3.8699989318847656,4.015510559082031,-1.5679537057876587
1761132249040775200,6.195775146484375,1.3447093963623047,3.8751988410949707,-1.5744398832321167
1761132249050775000,6.205775146484375,-2.118901252746582,3.954620361328125,-0.6588951349258423
1761132249060775200,6.215775146484375,-6.26418399810791,4.135654449462891,0.7830780744552612
1761132249070775300,6.225775390625,-9.393221855163574,4.111181735992432,2.118588924407959
1761132249080775200,6.235775146484375,-11.59503173828125,3.873188018798828,3.2010297775268555
1761132249090775300,6.245775390625,-12.790064811706543,3.4927589893341064,3.593148708343506
1761132249100775200,6.255775146484375,-13.093047142028809,2.934864044189453,3.423686981201172
1761132249110776000,6.265776123046875,-12.496182441711426,1.5353233814239502,3.1413936614990234
1761132249120776200,6.275776123046875,-12.03726863861084,1.0534851551055908,2.1661994457244873
1761132249130776000,6.285776123046875,-11.96109676361084,0.5712213516235352,1.4417916536331177
1761132249140776200,6.295776123046875,-12.22757625579834,-0.17319968342781067,1.2611597776412964
1761132249150776000,6.305776123046875,-12.439870834350586,-0.8229712247848511,1.4519407749176025
1761132249160776000,6.31577587890625,-12.601360321044922,-1.0462361574172974,1.253347635269165
1761132249170776000,6.325776123046875,-12.22060775756836,-1.040546178817749,1.3718719482421875
1761132249180776200,6.335776123046875,-12.549842834472656,-1.5735175609588623,2.850330352783203
1761132249190776000,6.345776123046875,-13.019346237182617,-1.9868988990783691,3.4917969703674316
1761132249200776200,6.355776123046875,-13.886270523071289,-1.964695930480957,4.3237504959106445
1761132249210775300,6.365775390625,-14.829818725585938,-2.5302157402038574,5.345161437988281
1761132249220775200,6.375775146484375,-15.477285385131836,-3.8136191368103027,6.1482696533203125
1761132249230775300,6.385775390625,-15.671548843383789,-5.09930944442749,5.6871337890625
1761132249240775200,6.395775146484375,-15.191423416137695,-5.36083984375,3.9397988319396973
1761132249250775300,6.405775390625,-14.051736831665039,-5.496000289916992,2.2579092979431152
1761132249260775200,6.415775146484375,-14.035823822021484,-5.380314350128174,2.386531352996826
1761132249270775300,6.425775390625,-7.571386337280273,-5.074617385864258,0.31415247917175293
1761132249280775200,6.435775146484375,-5.660897254943848,-5.968392848968506,1.0863122940063477
1761132249290775300,6.445775390625,-1.9434003829956055,-6.705666542053223,0.9258079528808594
1761132249300775200,6.455775146484375,0.3853445053100586,-6.0919270515441895,0.06538605690002441
1761132249310776000,6.465776123046875,0.569544792175293,-6.1324687004089355,-0.04640650749206543
1761132249320776000,6.47577587890625,-0.5109586715698242,-5.271462440490723,-0.31406402587890625
1761132249330776000,6.485776123046875,-1.9895553588867188,-4.013699531555176,-0.010673761367797852
1761132249340776000,6.49577587890625,-2.7213940620422363,-2.292212963104248,0.06052422523498535
1761132249350776000,6.505776123046875,-1.4061269760131836,-0.797505259513855,-0.2584209442138672
1761132249360776000,6.51577587890625,3.327998161315918,-0.45411205291748047,-0.6020476818084717
1761132249370776000,6.525776123046875,10.810837745666504,-1.20563805103302,-0.24637389183044434
1761132249380776200,6.535776123046875,19.43621826171875,-3.008322238922119,0.884968638420105
1761132249390776000,6.545776123046875,30.014371871948242,-4.641164302825928,0.9139331579208374
1761132249400776000,6.55577587890625,39.530967712402344,-6.380289554595947,-0.422310471534729
1761132249410775300,6.565775390625,41.96576690673828,-6.880062103271484,-1.2491322755813599
1761132249420775200,6.575775146484375,36.155208587646484,-4.555479526519775,-0.9363376498222351
1761132249430775300,6.585775390625,27.366897583007812,-2.083256244659424,0.5137104988098145
1761132249440775200,6.595775146484375,20.681982040405273,0.2725496292114258,1.181300401687622
1761132249450775300,6.605775390625,18.21783447265625,1.2739746570587158,0.1825982630252838
1761132249460775200,6.615775146484375,17.48678970336914,1.0900778770446777,-0.963317334651947
1761132249470775000,6.625775146484375,17.993675231933594,1.4993929862976074,-3.431741952896118
1761132249480775200,6.635775146484375,16.2724609375,1.9220693111419678,-4.974608898162842
1761132249490775000,6.645775146484375,12.18762493133545,2.8731040954589844,-5.148555755615234
1761132249500775200,6.655775146484375,7.353143692016602,4.130115032196045,-4.322654724121094
1761132249510776000,6.665776123046875,2.5795326232910156,5.078371524810791,-2.9885611534118652
1761132249520776000,6.67577587890625,-2.249882221221924,5.9793477058410645,-1.1457946300506592
1761132249530776000,6.685776123046875,-6.19943904876709,6.667634010314941,0.6207485198974609
1761132249540776000,6.69577587890625,-9.175924301147461,7.171212196350098,2.184074640274048
1761132249550776000,6.705776123046875,-10.77787971496582,7.258821487426758,2.7661805152893066
1761132249560776000,6.71577587890625,-11.46806526184082,6.79088830947876,2.6703224182128906
1761132249570776000,6.725776123046875,-11.81224250793457,6.08352518081665,2.4862074851989746
1761132249580776000,6.73577587890625,-11.486449241638184,5.095373630523682,1.5089911222457886
1761132249590776000,6.745776123046875,-11.366076469421387,4.092733383178711,0.9038124084472656
1761132249600776200,6.755776123046875,-11.273512840270996,3.3912205696105957,0.05581390857696533
1761132249610775300,6.765775390625,-10.778961181640625,4.190739631652832,0.020562171936035156
1761132249620775200,6.775775146484375,-10.624593734741211,3.474968433380127,1.722575068473816
1761132249630775300,6.785775390625,-10.741959571838379,2.7059545516967773,3.1522045135498047
1761132249640775200,6.795775146484375,-11.060025215148926,2.392400026321411,3.277925491333008
1761132249650775300,6.805775390625,-11.29774284362793,1.9829188585281372,2.697763442993164
1761132249660775200,6.815775146484375,-11.249795913696289,1.1211458444595337,1.914100170135498
1761132249670775300,6.825775390625,-10.99152946472168,0.621572732925415,0.551082968711853
1761132249680775200,6.835775146484375,-10.69411849975586,0.012469470500946045,-0.14302994310855865
1761132249690775300,6.845775390625,-9.937313079833984,-0.5524384379386902,-0.7089725136756897
1761132249700775200,6.855775146484375,-8.514015197753906,-0.7337350249290466,-1.1154736280441284
1761132249710776000,6.865776123046875,-6.697728157043457,-0.9849767684936523,-1.1201179027557373
1761132249720776000,6.87577587890625,-5.249411106109619,-1.3123644590377808,-0.5548676252365112
1761132249730776000,6.885776123046875,-4.408977508544922,-1.617476224899292,0.43430137634277344
1761132249740776200,6.895776123046875,-3.952451229095459,-1.822397232055664,1.3621443510055542
1761132249750776000,6.905776123046875,-3.731901168823242,-2.057896614074707,1.732576847076416
1761132249760776200,6.915776123046875,-3.442194938659668,-2.2960939407348633,1.3826286792755127
1761132249770776000,6.925776123046875,-2.630723476409912,-2.429708480834961,0.7641196250915527
1761132249780776200,6.935776123046875,-1.0179815292358398,-2.4755139350891113,0.0686766505241394
1761132249790776000,6.945776123046875,1.2204618453979492,-2.4477994441986084,-0.07900965213775635
1761132249800776200,6.955776123046875,4.031229019165039,-1.909245252609253,-0.34673404693603516
1761132249810775300,6.965775390625,6.757007598876953,-1.5601418018341064,-0.10494095087051392
1761132249820775200,6.975775146484375,9.65248966217041,-1.4370551109313965,0.3596353530883789
1761132249830775300,6.985775390625,12.0932035446167,-1.1435281038284302,1.1030558347702026
1761132249840775200,6.995775146484375,13.773300170898438,-0.7957342863082886,1.830649971961975
1761132249850775300,7.005775390625,15.03760051727295,-0.043943166732788086,1.8496290445327759
1761132249860775400,7.015775390625,15.850996017456055,0.5175254344940186,1.4341719150543213
1761132249870775300,7.025775390625,16.561954498291016,0.8226065635681152,0.43781328201293945
1761132249880775400,7.035775390625,16.397769927978516,0.8529086112976074,-0.5058740377426147
1761132249890775300,7.045775390625,15.257611274719238,0.842327356338501,-0.8032935261726379
1761132249900775200,7.055775146484375,14.349113464355469,0.8229391574859619,-0.5395418405532837
1761132249910776000,7.065776123046875,13.601228713989258,0.7860074043273926,0.302842378616333
1761132249920776200,7.075776123046875,12.132620811462402,0.9520800113677979,1.3264102935791016
1761132249930776000,7.085776123046875,10.005290031433105,1.3811304569244385,2.346923589706421
1761132249940776200,7.095776123046875,8.03162670135498,1.8477228879928589,3.5826213359832764
1761132249950776000,7.105776123046875,6.1889190673828125,2.0372462272644043,3.5902211666107178
1761132249960776200,7.115776123046875,4.700618743896484,2.1546897888183594,2.1612541675567627
1761132249970776000,7.125776123046875,2.9580955505371094,1.992871642112732,0.7818248271942139
1761132249980776200,7.135776123046875,0.8946084976196289,1.649470329284668,0.06574559211730957
1761132249990776000,7.145776123046875,-0.8294048309326172,2.2217416763305664,-2.2747974395751953
1761132250000776200,7.155776123046875,-2.6862845420837402,2.6400644779205322,-3.051182508468628
1761132250010775300,7.165775390625,-4.314509391784668,3.232487678527832,-2.8782942295074463
1761132250020775200,7.175775146484375,-5.076600074768066,3.836144208908081,-2.804685115814209
1761132250030775300,7.185775390625,-5.381511688232422,4.209085941314697,-2.453713893890381
1761132250040775200,7.195775146484375,-5.840682029724121,4.421198844909668,-1.6637808084487915
1761132250050775300,7.205775390625,-6.2080607414245605,4.086419105529785,-0.8398612141609192
1761132250060775200,7.215775146484375,-6.567307472229004,3.601959466934204,-0.3631662130355835
1761132250070775300,7.225775390625,-7.155281066894531,2.9893617630004883,-0.2531583309173584
1761132250080775200,7.235775146484375,-7.513659477233887,2.5424282550811768,-0.4745277166366577
1761132250090775300,7.245775390625,-7.72410249710083,2.147331714630127,-1.1524198055267334
1761132250100775200,7.255775146484375,-7.955718040466309,1.6577937602996826,-1.6903940439224243
1761132250110776000,7.265776123046875,-8.239103317260742,0.8649976253509521,-1.6141774654388428
1761132250120776000,7.27577587890625,-8.271156311035156,0.0973435640335083,-1.5388364791870117
1761132250130776000,7.285776123046875,-8.298030853271484,-0.5388307571411133,-1.6418172121047974
1761132250140776000,7.29577587890625,-7.966125011444092,-0.8119670152664185,-1.8797376155853271
1761132250150776000,7.305776123046875,-7.925027370452881,-0.8510799407958984,-1.4058239459991455
1761132250160776000,7.31577587890625,-8.29517936706543,-1.0880950689315796,-0.22401726245880127
1761132250170776000,7.325776123046875,-8.52752685546875,-1.2358007431030273,0.4539535641670227
1761132250180776000,7.33577587890625,-8.485492706298828,-1.4043552875518799,0.5016393065452576
1761132250190776000,7.345776123046875,-8.23214054107666,-1.5704576969146729,1.179124116897583
1761132250200776000,7.35577587890625,-8.184724807739258,-1.732306957244873,1.2107692956924438
1761132250210775300,7.365775390625,-7.955463886260986,-2.1344752311706543,2.1745986938476562
1761132250220775200,7.375775146484375,-7.903372287750244,-2.2344472408294678,1.9991223812103271
1761132250230775300,7.385775390625,-7.128961086273193,-2.64851713180542,1.9553542137145996
1761132250240775200,7.395775146484375,-6.06729793548584,-3.2775392532348633,1.657179594039917
1761132250250775300,7.405775390625,-5.1804046630859375,-3.930976390838623,0.9484334588050842
1761132250260775200,7.415775146484375,-4.563853740692139,-4.305561542510986,0.02527502179145813
1761132250270775300,7.425775390625,-3.951509475708008,-4.029318809509277,-1.137237310409546
1761132250280775200,7.435775146484375,-3.130223274230957,-3.423156976699829,-1.771214246749878
1761132250290775300,7.445775390625,-1.827256679534912,-2.534090280532837,-2.196882963180542
1761132250300775200,7.455775146484375,-0.3728303909301758,-1.0185661315917969,-2.684544324874878
1761132250310776000,7.465776123046875,1.255075454711914,0.9092020988464355,-2.950458526611328
1761132250320776000,7.47577587890625,2.793095588684082,2.900588035583496,-2.9605631828308105
1761132250330776000,7.485776123046875,4.538603782653809,4.672450542449951,-2.3217718601226807
1761132250340776000,7.49577587890625,5.505824089050293,6.14682149887085,-1.9212312698364258
1761132250350776000,7.505776123046875,6.36881160736084,8.2110595703125,-2.698596239089966
1761132250360776200,7.515776123046875,6.703920364379883,10.223970413208008,-3.4114058017730713
1761132250370776000,7.525776123046875,6.758864402770996,10.137332916259766,-3.4250330924987793
1761132250380776200,7.535776123046875,8.981143951416016,11.497800827026367,-1.4986953735351562
1761132250390776000,7.545776123046875,14.567522048950195,7.8753485679626465,1.1044374704360962
1761132250400776200,7.555776123046875,18.733936309814453,4.720982551574707,1.6417920589447021
1761132250410775300,7.565775390625,20.676193237304688,2.2312145233154297,0.43921688199043274
1761132250420775400,7.575775390625,19.666858673095703,0.8349943161010742,-1.8565728664398193
1761132250430775300,7.585775390625,15.978498458862305,0.7328605651855469,-4.239692211151123
1761132250440775400,7.595775390625,10.963526725769043,0.8978304862976074,-5.4251322746276855
1761132250450775300,7.605775390625,5.630406379699707,0.4305860996246338,-5.124485492706299
1761132250460775400,7.615775390625,2.018406867980957,0.013233661651611328,-4.7140583992004395
1761132250470775300,7.625775390625,0.027318954467773438,-0.09402918815612793,-3.9492411613464355
1761132250480775200,7.635775146484375,-0.7070045471191406,-0.03902626037597656,-2.7474756240844727
1761132250490775300,7.645775390625,-0.6747865676879883,-0.04500126838684082,-1.6143068075180054
1761132250500775200,7.655775146484375,-0.5752954483032227,-0.20693135261535645,-0.9581388235092163
1761132250510776000,7.665776123046875,-1.066807746887207,-0.26215648651123047,-0.8305048942565918
1761132250520776200,7.675776123046875,-2.0657124519348145,-0.4865729808807373,-0.7377328872680664
1761132250530776000,7.685776123046875,-3.2261033058166504,-0.7699310779571533,-0.24862098693847656
1761132250540776200,7.695776123046875,-4.240522384643555,-0.8579773902893066,0.9247617721557617
1761132250550776000,7.705776123046875,-5.1143717765808105,-0.7391796112060547,2.5214195251464844
1761132250560776200,7.715776123046875,-6.125349521636963,-0.6012537479400635,4.3921051025390625
1761132250570776000,7.725776123046875,-7.004189491271973,-0.48404383659362793,5.870914459228516
1761132250580776200,7.735776123046875,-8.163372039794922,-0.40115976333618164,6.956018447875977
1761132250590776000,7.745776123046875,-9.470783233642578,-0.397388219833374,7.4408650398254395
1761132250600776200,7.755776123046875,-10.601953506469727,-0.6455898284912109,7.485122203826904
1761132250610775300,7.765775390625,-11.506904602050781,-0.8279194831848145,6.511382579803467
1761132250620775400,7.775775390625,-11.92525577545166,-1.6358413696289062,6.5204925537109375
1761132250630775300,7.785775390625,-12.22586727142334,-2.384488821029663,7.060319423675537
1761132250640775400,7.795775390625,-12.347208976745605,-2.733550548553467,6.654494285583496
1761132250650775300,7.805775390625,-12.396621704101562,-2.85205078125,5.874425888061523
1761132250660775400,7.815775390625,-12.2865571975708,-3.060323476791382,5.315402984619141
1761132250670775300,7.825775390625,-11.979127883911133,-3.4902825355529785,5.016325950622559
1761132250680775200,7.835775146484375,-11.50886344909668,-3.932119846343994,4.851202487945557
1761132250690775300,7.845775390625,-10.859111785888672,-4.550319671630859,4.87030553817749
1761132250700775200,7.855775146484375,-10.00728988647461,-5.042784214019775,4.718013286590576
1761132250710776000,7.865776123046875,-9.381769180297852,-5.2616190910339355,4.233987808227539
1761132250720776000,7.87577587890625,-8.663426399230957,-5.413769721984863,3.5845894813537598
1761132250730776000,7.885776123046875,-7.7422943115234375,-5.617351531982422,2.908672332763672
1761132250740776200,7.895776123046875,-6.5306396484375,-5.549847602844238,1.7481725215911865
1761132250750776000,7.905776123046875,-5.37846565246582,-5.170466899871826,0.5411413908004761
1761132250760776200,7.915776123046875,-4.029142379760742,-4.676313400268555,-0.9233890771865845
1761132250770776000,7.925776123046875,-2.344761848449707,-4.090178489685059,-2.7514991760253906
1761132250780776000,7.93577587890625,0.26747989654541016,-3.545149087905884,-4.278604984283447
1761132250790776000,7.945776123046875,4.00791072845459,-1.8459925651550293,-5.666872501373291
1761132250800776000,7.95577587890625,3.9839820861816406,-1.8450565338134766,-5.787290573120117
1761132250810775000,7.965775146484375,7.853730201721191,2.954057216644287,-6.515542984008789
1761132250820775200,7.975775146484375,7.019665718078613,5.463631629943848,-5.500906944274902
1761132250830775000,7.985775146484375,5.277809143066406,8.324760437011719,-4.463278293609619
1761132250840775200,7.995775146484375,4.262185096740723,11.536275863647461,-2.7418646812438965
1761132250850775300,8.005775390625,6.419431686401367,15.956369400024414,-1.3961241245269775
1761132250860775200,8.015775146484375,12.896169662475586,14.47739315032959,1.9093976020812988
1761132250870775000,8.025775146484374,19.960920333862305,9.869013786315918,4.447532653808594
1761132250880775200,8.035775146484376,27.849346160888672,3.650301218032837,6.50650691986084
1761132250890775000,8.045775146484376,30.518352508544922,-0.1371021270751953,6.416741847991943
1761132250910776000,8.065776123046875,19.15685272216797,1.3713788986206055,1.4881515502929688
1761132250920776000,8.07577587890625,11.09549617767334,2.24470853805542,-0.16113638877868652
1761132250930776000,8.085776123046875,8.032334327697754,2.6160318851470947,-1.618372917175293
1761132250940776000,8.09577587890625,9.974005699157715,2.0960049629211426,-3.807865858078003
1761132250950776000,8.105776123046875,11.514394760131836,0.9497925043106079,-5.452763080596924
1761132250960776000,8.11577587890625,10.531441688537598,0.41766393184661865,-6.081181526184082
1761132250970776000,8.125776123046874,7.363434791564941,1.089287281036377,-6.425858497619629
1761132250980776000,8.13577587890625,3.141172409057617,1.9941494464874268,-5.517406463623047
1761132250990776000,8.145776123046875,-1.4388914108276367,2.654125928878784,-3.5738561153411865
1761132251000776000,8.15577587890625,-5.250497341156006,3.2239065170288086,-0.9341881275177002
1761132251010775000,8.165775146484375,-8.30411434173584,3.457627296447754,1.705977201461792
1761132251020775200,8.175775146484375,-8.304520606994629,3.2193450927734375,1.6580228805541992
1761132251030775000,8.185775146484374,-12.287886619567871,3.331869602203369,5.626030445098877
1761132251040775200,8.195775146484374,-13.391227722167969,2.999370574951172,5.918552875518799
1761132251050775000,8.205775146484376,-13.614986419677734,2.332634925842285,4.865570068359375
1761132251060775200,8.215775146484376,-13.19600772857666,2.1356804370880127,4.703145980834961
1761132251070775000,8.225775146484375,-12.476576805114746,1.663987636566162,5.275752544403076
1761132251080775200,8.235775146484375,-11.593393325805664,1.2874785661697388,5.701628684997559
1761132251090775000,8.245775146484375,-11.054471015930176,1.2342942953109741,5.989965438842773
1761132251100775200,8.255775146484375,-10.660050392150879,1.2968709468841553,6.540402412414551
1761132251110776000,8.265776123046875,-10.52878475189209,1.056574821472168,6.8237199783325195
1761132251120776000,8.27577587890625,-10.813750267028809,0.7210955619812012,6.753628253936768
1761132251130776000,8.285776123046874,-11.362345695495605,0.3052101135253906,6.267261981964111
1761132251140776000,8.29577587890625,-11.871317863464355,-0.2730705738067627,5.600158214569092
1761132251150776000,8.305776123046876,-11.916112899780273,-0.8630796670913696,5.17772102355957
1761132251160776000,8.31577587890625,-11.437187194824219,-1.5542314052581787,4.93183708190918
1761132251170776000,8.325776123046875,-10.294167518615723,-2.2837750911712646,4.7248077392578125
1761132251180776000,8.33577587890625,-8.774789810180664,-2.77545166015625,4.350405693054199
1761132251190776000,8.345776123046875,-7.051164150238037,-3.004263401031494,3.7099294662475586
1761132251200776000,8.35577587890625,-5.003208637237549,-3.3875412940979004,2.9888546466827393
1761132251210775300,8.365775390625,-2.3708019256591797,-3.689072608947754,1.5100734233856201
1761132251220775200,8.375775146484376,0.050899505615234375,-3.979567766189575,0.18227910995483398
1761132251230775300,8.385775390625,1.7100105285644531,-4.337810039520264,-0.8818943500518799
1761132251240775200,8.395775146484375,2.7200918197631836,-4.1445088386535645,-1.9396257400512695
1761132251250775300,8.405775390625,3.627303123474121,-3.2578396797180176,-2.906179904937744
1761132251260775200,8.415775146484375,5.016263961791992,-1.442200779914856,-3.844358444213867
1761132251270775300,8.425775390625,6.677752494812012,0.12520742416381836,-3.7339048385620117
1761132251280775200,8.435775146484374,9.280692100524902,0.8655757904052734,-2.3571653366088867
1761132251290775300,8.445775390625,12.2022123336792,1.4627394676208496,-0.8827743530273438
1761132251300775200,8.455775146484376,12.14517593383789,1.5334150791168213,-1.1361702680587769
1761132251310776000,8.465776123046876,16.8603572845459,2.9668350219726562,0.10394859313964844
1761132251320776000,8.47577587890625,16.789108276367188,3.1627211570739746,-0.11091887950897217
1761132251330776000,8.485776123046875,22.027362823486328,2.8224122524261475,-2.2166972160339355
1761132251340776000,8.49577587890625,22.658517837524414,2.5979042053222656,-3.411005973815918
1761132251350776000,8.505776123046875,20.241518020629883,3.1326475143432617,-4.119738578796387
1761132251360776000,8.51577587890625,15.705779075622559,4.148518085479736,-3.957475185394287
1761132251370776000,8.525776123046874,9.703693389892578,5.380286693572998,-3.005122661590576
1761132251380776200,8.535776123046874,5.9455766677856445,6.011528015136719,-1.4713590145111084
1761132251390776000,8.545776123046876,6.120652198791504,5.797107696533203,-0.5923229455947876
1761132251400776000,8.55577587890625,7.494098663330078,4.970739364624023,-1.2082839012145996
1761132251410775300,8.565775390625,7.393099784851074,3.847290277481079,-2.235280990600586
1761132251420775200,8.575775146484375,5.666706085205078,3.3569586277008057,-3.2090978622436523
1761132251430775300,8.585775390625,2.2960405349731445,3.409956455230713,-4.145941257476807
1761132251440775200,8.595775146484375,-0.8442316055297852,3.8972702026367188,-4.2874674797058105
1761132251450775300,8.605775390625,-3.540113925933838,4.48771858215332,-3.5747551918029785
1761132251460775200,8.615775146484374,-5.5366597175598145,4.869610786437988,-2.1897826194763184
1761132251470775000,8.625775146484376,-6.981612205505371,5.159464359283447,-0.41763460636138916
1761132251480775200,8.635775146484375,-7.9544782638549805,5.263031959533691,1.6821197271347046
1761132251490775000,8.645775146484375,-8.512592315673828,5.062958717346191,3.868002414703369
1761132251500775200,8.655775146484375,-8.75949478149414,4.572573661804199,5.238565444946289
1761132251510776000,8.665776123046875,-9.002238273620605,4.041264057159424,5.8012776374816895
1761132251520776000,8.67577587890625,-9.11453628540039,3.2501444816589355,5.800909519195557
1761132251530776000,8.685776123046875,-8.647783279418945,2.3126204013824463,5.248340129852295
1761132251540776000,8.69577587890625,-8.30942153930664,1.3820866346359253,4.428908348083496
1761132251550776000,8.705776123046874,-8.337998390197754,0.7240846157073975,3.5909016132354736
1761132251560776000,8.71577587890625,-8.361762046813965,0.11348903179168701,2.9774577617645264
1761132251570776300,8.7257763671875,-9.042377471923828,-0.6039775609970093,2.696101188659668
1761132251580776200,8.735776123046875,-9.831469535827637,-1.0874087810516357,2.807230234146118
1761132251590776300,8.7457763671875,-10.300187110900879,-1.4188501834869385,2.84169340133667
1761132251600776400,8.7557763671875,-10.573830604553223,-2.4928994178771973,3.2058281898498535
1761132251610775600,8.765775634765625,-10.089014053344727,-2.930140256881714,3.60005521774292
1761132251620775400,8.775775390625,-10.036608695983887,-3.1075899600982666,3.6278703212738037
1761132251630775600,8.785775634765624,-9.405502319335938,-4.157458305358887,3.5006699562072754
1761132251640775400,8.795775390625,-7.802801132202148,-4.532050609588623,2.5278706550598145
1761132251650775300,8.805775390625,-5.249861717224121,-5.297185897827148,1.0609955787658691
1761132251660775400,8.815775390625,-3.316176414489746,-5.963000297546387,0.17850154638290405
1761132251670775300,8.825775390625,-0.47599315643310547,-5.897335052490234,-0.48304593563079834
1761132251680775400,8.835775390625,3.391665458679199,-5.35090446472168,-1.3792325258255005
1761132251690775300,8.845775390625,7.086738586425781,-4.576119422912598,-1.505576729774475
1761132251700775400,8.855775390625,9.843734741210938,-3.699608564376831,-0.005313575267791748
1761132251710776300,8.8657763671875,11.009037017822266,-3.0784313678741455,2.498950719833374
1761132251720776200,8.875776123046874,11.071182250976562,-2.597533941268921,4.233603477478027
1761132251730776300,8.8857763671875,11.115867614746094,-1.6935837268829346,3.278442859649658
1761132251740776200,8.895776123046875,10.463250160217285,-0.6626391410827637,0.40143007040023804
1761132251750776300,8.9057763671875,10.23773193359375,-0.035774946212768555,-2.7119367122650146
1761132251760776200,8.915776123046875,11.000812530517578,0.08042478561401367,-4.749414443969727
1761132251770776300,8.9257763671875,12.37130069732666,-0.9213999509811401,-4.511260509490967
1761132251780776200,8.935776123046875,14.338784217834473,-1.3712724447250366,-3.742128849029541
1761132251790776300,8.9457763671875,16.4890079498291,-0.6464872360229492,-3.359611749649048
1761132251800776200,8.955776123046874,17.57110595703125,-0.1065148115158081,-2.5815181732177734
1761132251810775300,8.965775390625,16.21678924560547,0.43107032775878906,-1.5673086643218994
1761132251820775400,8.975775390625,16.188674926757812,0.6496268510818481,-1.7043285369873047
1761132251830775300,8.985775390625,8.840873718261719,1.6385326385498047,0.49592965841293335
1761132251840775400,8.995775390625,3.379720687866211,2.415647029876709,1.4189966917037964
1761132251850775600,9.005775634765625,-0.5746650695800781,2.781832695007324,1.265871286392212
1761132251860775400,9.015775390625,-2.7307491302490234,2.5776426792144775,0.11550033092498779
1761132251870775300,9.025775390625,-2.7320404052734375,2.619405746459961,0.0797765851020813
1761132251880775200,9.035775146484376,-3.906114101409912,1.269195556640625,-2.5297412872314453
1761132251890775300,9.045775390625,-4.715090274810791,1.7585620880126953,-3.6990795135498047
1761132251900775200,9.055775146484375,-5.761867046356201,2.18776535987854,-3.807914972305298
1761132251910776000,9.065776123046875,-6.595806121826172,1.7909266948699951,-4.324493408203125
1761132251920776000,9.07577587890625,-7.177396774291992,2.465219497680664,-3.0971508026123047
1761132251930776000,9.085776123046875,-5.965494155883789,3.466200590133667,-1.3018138408660889
1761132251940776200,9.095776123046875,-6.828834533691406,3.7198615074157715,0.5813674926757812
1761132251950776000,9.105776123046875,-8.381044387817383,3.285588264465332,1.7142200469970703
1761132251960776200,9.115776123046874,-9.022991180419922,2.8962759971618652,1.4780422449111938
1761132251970776000,9.125776123046874,-9.091655731201172,2.3580117225646973,0.7750422954559326
1761132251980776200,9.135776123046876,-9.060012817382812,1.5492901802062988,-0.24574685096740723
1761132251990776000,9.145776123046875,-8.814823150634766,0.7601358890533447,-1.3082635402679443
1761132252000776200,9.155776123046875,-8.649940490722656,0.11402738094329834,-1.9218775033950806
1761132252010775300,9.165775390625,-8.134353637695312,-0.4731266498565674,-2.1483101844787598
1761132252020775400,9.175775390625,-8.248641014099121,0.04027867317199707,-2.6970629692077637
1761132252030775300,9.185775390625,-7.750463485717773,0.07955050468444824,-2.26548171043396
1761132252040775400,9.195775390625,-8.016725540161133,-0.5204317569732666,-1.3405768871307373
1761132252050775300,9.205775390625,-8.41283130645752,-1.533875584602356,-0.27690595388412476
1761132252060775400,9.215775390625,-8.061156272888184,-2.4439656734466553,0.49531060457229614
1761132252070775300,9.225775390625,-6.411252498626709,-2.429663896560669,1.0907117128372192
1761132252080775400,9.235775390625,-3.58955717086792,-1.2913295030593872,0.7730499505996704
1761132252090775300,9.245775390625,-0.8215847015380859,-0.738936185836792,0.395679771900177
1761132252110776300,9.2657763671875,2.178770065307617,-1.8071446418762207,1.182373046875
1761132252120776200,9.275776123046874,2.76153564453125,-1.4624006748199463,-0.07579851150512695
1761132252130776000,9.285776123046874,2.569188117980957,-0.5763821601867676,-2.2642126083374023
1761132252140776200,9.295776123046876,1.013930320739746,0.6494615077972412,-3.9785547256469727
1761132252150776000,9.305776123046876,-0.8029489517211914,2.430680751800537,-5.018483638763428
1761132252160776200,9.315776123046875,-2.8456835746765137,4.162852764129639,-4.171708106994629
1761132252170776000,9.325776123046875,-3.7918052673339844,5.425090789794922,-1.79629647731781
1761132252180776200,9.335776123046875,-0.6672916412353516,6.093250751495361,1.4964596033096313
1761132252190776000,9.345776123046875,4.498713493347168,5.099853515625,4.117112159729004
1761132252200776200,9.355776123046875,12.329052925109863,2.4019012451171875,5.730055332183838
1761132252210775300,9.365775390625,18.44705581665039,-0.27451443672180176,6.8486714363098145
1761132252220775400,9.375775390625,20.19860076904297,-2.6106626987457275,6.798210620880127
1761132252230775300,9.385775390625,18.169462203979492,-2.935978651046753,4.604875564575195
1761132252240775200,9.395775146484375,13.094707489013672,-1.0433318614959717,1.3427040576934814
1761132252250775300,9.405775390625,8.273890495300293,0.8582106828689575,-0.0875924825668335
1761132252260775200,9.415775146484375,4.498500823974609,2.0547609329223633,-0.3242366313934326
1761132252270775300,9.425775390625,1.407318115234375,2.46771240234375,-0.36964908242225647
1761132252280775200,9.435775146484374,-0.46759605407714844,2.4122097492218018,-0.2548670470714569
1761132252290775300,9.445775390625,-1.16131591796875,2.4140875339508057,-0.06940943002700806
1761132252300775200,9.455775146484376,-1.2861604690551758,2.347151279449463,-0.3569975197315216
1761132252310776000,9.465776123046876,-1.0955495834350586,2.4690098762512207,-0.5985941886901855
1761132252320776000,9.47577587890625,-1.2797565460205078,2.560272693634033,-0.4822227656841278
1761132252330776000,9.485776123046875,-1.752967357635498,2.504392147064209,-0.440605491399765
1761132252340776000,9.49577587890625,-2.508410930633545,2.3645083904266357,-0.30035436153411865
1761132252350776000,9.505776123046875,-3.3970999717712402,2.3116941452026367,-0.42982280254364014
1761132252360776000,9.51577587890625,-3.6922621726989746,2.1228370666503906,0.04284772276878357
1761132252370776000,9.525776123046874,-3.8230762481689453,2.5417962074279785,0.022619783878326416
1761132252380776000,9.53577587890625,-3.933863639831543,3.0182294845581055,-0.016807377338409424
1761132252390776000,9.545776123046876,-3.4031805992126465,2.452418804168701,0.8301072716712952
1761132252400776000,9.55577587890625,-3.3954758644104004,2.3806867599487305,0.7954593300819397
1761132252410775000,9.565775146484375,-1.8786201477050781,1.3786275386810303,1.5418381690979004
1761132252420775200,9.575775146484375,-1.3850650787353516,1.1079870462417603,1.0591518878936768
