time,seconds_elapsed,z,y,x
1761132787699454200,0.0954541015625,0.28655242919921875,-0.06561189144849777,0.11961100995540619
1761132787729467100,0.125467041015625,0.2866096496582031,-0.0640420913696289,0.1165027767419815
1761132787739467300,0.13546728515625,0.28662967681884766,-0.06352386623620987,0.11546975374221802
1761132787749467100,0.145467041015625,0.2866487503051758,-0.06301047652959824,0.1144452691078186
1761132787759462400,0.15546240234375,0.2866477966308594,-0.0630825012922287,0.11443161964416504
1761132787769462500,0.165462646484375,0.2866497039794922,-0.06303709000349045,0.11441335082054138
1761132787779462700,0.175462646484375,0.2866497039794922,-0.06300700455904007,0.11440549790859222
1761132787789462500,0.185462646484375,0.2866497039794922,-0.06289102137088776,0.11445266008377075
1761132787799462700,0.195462646484375,0.2866497039794922,-0.06290637701749802,0.11450597643852234
1761132787809462500,0.205462646484375,0.2866477966308594,-0.06299147754907608,0.11455404758453369
1761132787819462700,0.215462646484375,0.28664684295654297,-0.06306831538677216,0.11461861431598663
1761132787829462500,0.225462646484375,0.28664302825927734,-0.06308634579181671,0.11478650569915771
1761132787839462700,0.235462646484375,0.28664207458496094,-0.0631014034152031,0.11484001576900482
1761132787849462500,0.245462646484375,0.28664398193359375,-0.06305178999900818,0.11476759612560272
1761132787859462700,0.255462646484375,0.28664493560791016,-0.06294696033000946,0.11475419998168945
1761132787869462500,0.265462646484375,0.28664493560791016,-0.06291859596967697,0.11480535566806793
1761132787879462700,0.275462646484375,0.28664207458496094,-0.0630524531006813,0.11492635309696198
1761132787889462500,0.285462646484375,0.28664112091064453,-0.0629698783159256,0.114993155002594
1761132787899462700,0.295462646484375,0.28664207458496094,-0.06293585896492004,0.11497396230697632
1761132787909462500,0.305462646484375,0.28664302825927734,-0.06285572052001953,0.11499682068824768
1761132787919462700,0.315462646484375,0.28664302825927734,-0.06278553605079651,0.11500217020511627
1761132787929462500,0.325462646484375,0.020883560180664062,0.004170693457126617,0.005004391074180603
1761132787939462700,0.335462646484375,0.028064727783203125,-0.0007132068276405334,-0.002147778868675232
1761132787949462500,0.345462646484375,0.020880699157714844,-0.003130018711090088,-0.016432777047157288
1761132787959461600,0.355461669921875,0.028062820434570312,0.006473317742347717,-0.014031320810317993
1761132787969461500,0.36546142578125,0.030454635620117188,-0.010411463677883148,-0.013893768191337585
1761132787979461600,0.375461669921875,0.03524303436279297,0.006392352283000946,-0.00910690426826477
1761132787989461500,0.38546142578125,0.013692855834960938,0.008775629103183746,-0.028119467198848724
1761132787999461600,0.395461669921875,0.0232696533203125,-0.01747884601354599,-0.023264773190021515
1761132788009461500,0.40546142578125,0.0232696533203125,0.018531426787376404,0.003084734082221985
1761132788019461600,0.415461669921875,0.008904457092285156,-0.0005197077989578247,-0.008742272853851318
1761132788029461500,0.42546142578125,0.032845497131347656,-0.0005541890859603882,-0.008723229169845581
1761132788039461600,0.435461669921875,0.025663375854492188,-0.005306266248226166,-0.003909990191459656
1761132788049461500,0.44546142578125,0.03524017333984375,-0.007706984877586365,-0.001488521695137024
1761132788059462400,0.45546240234375,0.030450820922851562,0.011484943330287933,-0.0014198720455169678
1761132788069462300,0.465462158203125,0.0184783935546875,0.0042340680956840515,0.0010126233100891113
1761132788079462400,0.47546240234375,0.020872116088867188,0.006676584482192993,-0.015660881996154785
1761132788089462300,0.485462158203125,0.03284263610839844,0.009133495390415192,-0.010840281844139099
1761132788099462400,0.49546240234375,0.0184783935546875,0.018798142671585083,-0.010844200849533081
1761132788109462300,0.505462158203125,0.037631988525390625,0.004461310803890228,-0.025158248841762543
1761132788119462400,0.51546240234375,0.020873069763183594,-0.007473386824131012,-0.015556588768959045
1761132788129462300,0.525462158203125,0.04241752624511719,0.0044046565890312195,-0.01787625253200531
1761132788139462400,0.53546240234375,0.020870208740234375,0.006819672882556915,-0.013009995222091675
1761132788149462300,0.545462158203125,0.03044605255126953,0.0044617727398872375,-0.015379369258880615
1761132788159461400,0.55546142578125,0.028049468994140625,-0.0028042420744895935,-0.0033166855573654175
1761132788169461500,0.56546142578125,0.011288642883300781,-0.0005632638931274414,0.006346806883811951
1761132788179461400,0.57546142578125,0.02325725555419922,-0.019838139414787292,0.0015819072723388672
1761132788189461500,0.58546142578125,0.023258209228515625,0.00898715853691101,-0.0008431524038314819
1761132788199461400,0.59546142578125,0.020865440368652344,-0.01490524411201477,-0.003309771418571472
1761132788209461500,0.60546142578125,0.01847076416015625,-0.00773012638092041,-0.0032829493284225464
1761132788219461400,0.61546142578125,0.016076087951660156,-0.01258733868598938,-0.022398553788661957
1761132788229461500,0.62546142578125,0.01846790313720703,0.004088282585144043,-0.01991303265094757
1761132788239461400,0.63546142578125,0.025651931762695312,-0.0030794069170951843,-0.010389670729637146
1761132788249461500,0.64546142578125,0.028043746948242188,0.013594456017017365,-0.012735933065414429
1761132788259462400,0.65546240234375,0.02804279327392578,-0.0031616613268852234,-0.012648895382881165
1761132788269462300,0.665462158203125,0.02325153350830078,0.015928037464618683,-0.0005515962839126587
1761132788279462400,0.67546240234375,0.02325153350830078,-0.010432794690132141,0.011455804109573364
1761132788289462300,0.685462158203125,0.028041839599609375,-0.0031385645270347595,-0.017315417528152466
1761132788299462400,0.69546240234375,0.028039932250976562,-0.003153093159198761,-0.007684797048568726
1761132788309462300,0.705462158203125,0.025646209716796875,-0.008004717528820038,0.00425371527671814
1761132788319462400,0.71546240234375,0.04001045227050781,-0.0032929405570030212,-0.012483656406402588
1761132788329462300,0.725462158203125,0.016068458557128906,0.0014809221029281616,-0.010035648941993713
1761132788339462400,0.73546240234375,0.03282737731933594,-0.0009330809116363525,-0.017253100872039795
1761132788349462300,0.745462158203125,0.023250579833984375,-0.01040390133857727,0.00911305844783783
1761132788359461600,0.755461669921875,0.025646209716796875,-0.007887601852416992,-0.0052751898765563965
1761132788369461500,0.76546142578125,0.020859718322753906,0.013712197542190552,-0.014880254864692688
1761132788379461600,0.775461669921875,0.03282928466796875,0.013687513768672943,0.0019154101610183716
1761132788389461500,0.78546142578125,0.032830238342285156,0.011218614876270294,0.004216358065605164
1761132788399461600,0.795461669921875,0.0256500244140625,0.011274866759777069,-0.0078544020652771
1761132788409461500,0.80546142578125,0.028044700622558594,0.011308901011943817,-0.0006909817457199097
1761132788419461600,0.815461669921875,0.025651931762695312,-0.01011696457862854,-0.012684956192970276
1761132788429461500,0.82546142578125,0.020865440368652344,0.009147189557552338,-0.005586296319961548
1761132788439461600,0.835461669921875,0.025653839111328125,0.001945987343788147,-0.0056202709674835205
1761132788449461500,0.84546142578125,0.020865440368652344,-0.007638603448867798,0.003983139991760254
1761132788459462400,0.85546240234375,0.028044700622558594,0.011425800621509552,-0.02458517998456955
1761132788469462300,0.865462158203125,0.023255348205566406,-0.010118253529071808,0.0042327940464019775
1761132788479462400,0.87546240234375,0.01846599578857422,0.004222474992275238,-0.012490302324295044
1761132788489462300,0.885462158203125,0.016073226928710938,-0.012484632432460785,-0.02209513634443283
1761132788499462400,0.89546240234375,0.01367950439453125,0.004323847591876984,-0.026956237852573395
1761132788509462300,0.905462158203125,0.04001617431640625,0.023477159440517426,-0.014985442161560059
1761132788519462400,0.91546240234375,0.030440330505371094,-0.005173437297344208,-0.005385994911193848
1761132788529462500,0.925462646484375,0.01847076416015625,0.018871046602725983,-0.005443572998046875
1761132788539462400,0.93546240234375,0.037624359130859375,0.002209410071372986,-0.017401009798049927
1761132788549462500,0.945462646484375,0.018469810485839844,0.018990464508533478,0.004225149750709534
1761132788559461600,0.955461669921875,0.03043842315673828,-0.019424356520175934,0.0019591599702835083
1761132788569461500,0.96546142578125,0.023255348205566406,-0.005122371017932892,-0.012438535690307617
1761132788579461600,0.975461669921875,0.020860671997070312,-0.000347040593624115,-0.007552787661552429
1761132788589461500,0.98546142578125,0.018465042114257812,-0.012272544205188751,0.006854012608528137
1761132788599461600,0.995461669921875,0.02325153350830078,0.013925805687904358,-0.012266233563423157
1761132788609461500,1.00546142578125,0.023253440856933594,-0.014692597091197968,-0.03385448455810547
1761132788619462000,1.0154619140625,0.025648117065429688,0.004453137516975403,0.0020850002765655518
1761132788629462000,1.0254619140625,0.035225868225097656,0.002054646611213684,0.01396818459033966
1761132788639462000,1.0354619140625,0.02086162567138672,0.011611603200435638,-0.007614225149154663
1761132788649462000,1.0454619140625,0.02804088592529297,-0.002837538719177246,-0.019493862986564636
1761132788659463000,1.055462890625,0.020857810974121094,-0.012411750853061676,-0.02184382826089859
1761132788679463000,1.075462890625,0.03522205352783203,0.004315830767154694,0.006949663162231445
1761132788689462800,1.085462890625,0.02564525604248047,-0.0028742551803588867,-0.009782925248146057
1761132788699463000,1.095462890625,0.02564239501953125,-0.0030195116996765137,-0.009680360555648804
1761132788709462800,1.105462890625,0.023248672485351562,0.008947595953941345,-0.0001910179853439331
1761132788719463000,1.115462890625,0.03282642364501953,-0.000576704740524292,0.00456942617893219
1761132788729462000,1.1254619140625,0.02564525604248047,0.016162753105163574,-0.014618933200836182
1761132788739462000,1.1354619140625,0.03043365478515625,0.016098059713840485,-0.007512331008911133
1761132788749462000,1.1454619140625,0.04240226745605469,0.013748139142990112,-0.0073122382164001465
1761132788759461000,1.155461181640625,0.0040950775146484375,0.009102411568164825,-0.00725749135017395
1761132788769461000,1.1654609375,0.028038978576660156,0.01883711665868759,0.00950343906879425
1761132788779461000,1.175461181640625,0.028038978576660156,0.011617980897426605,0.007084324955940247
1761132788789461000,1.1854609375,0.02564525604248047,-0.005178675055503845,-0.016883179545402527
1761132788799461000,1.195461181640625,0.01846027374267578,0.028272174298763275,-0.009662061929702759
1761132788809461000,1.2054609375,0.02564525604248047,0.0020140856504440308,-0.024048231542110443
1761132788819461000,1.215461181640625,0.03043079376220703,-0.005206115543842316,-0.014337942004203796
1761132788829461000,1.2254609375,0.01846027374267578,0.018751628696918488,-0.000025659799575805664
1761132788839461000,1.235461181640625,0.02803516387939453,0.0018899813294410706,-0.01193903386592865
1761132788849461000,1.2454609375,0.032822608947753906,0.004239633679389954,-0.016725808382034302
1761132788859462000,1.2554619140625,0.030429840087890625,-0.0005214884877204895,-0.004746794700622559
1761132788869461800,1.265461669921875,0.032825469970703125,0.009147055447101593,-0.01204739511013031
1761132788879462000,1.2754619140625,0.028038978576660156,-0.0028481706976890564,-0.01695840060710907
1761132788889462000,1.2854619140625,0.023248672485351562,-0.007729180157184601,-0.009700894355773926
1761132788899462000,1.2954619140625,0.03521728515625,0.01852509379386902,0.002405315637588501
1761132788909462000,1.3054619140625,0.03282356262207031,0.00658772885799408,-0.000008419156074523926
1761132788919461400,1.31546142578125,0.028036117553710938,-0.0005429759621620178,-0.014402016997337341
1761132788929461500,1.32546142578125,0.016066551208496094,0.013910837471485138,0.014325201511383057
1761132788939461400,1.33546142578125,0.03043365478515625,0.025992698967456818,-0.00012373924255371094
1761132788949461500,1.34546142578125,0.028038978576660156,0.0116443932056427,-0.014498591423034668
1761132788959460600,1.355460693359375,0.018459320068359375,-0.007741592824459076,-0.02157435566186905
1761132788969460700,1.365460693359375,0.028034210205078125,0.006528779864311218,0.00004692375659942627
1761132788979460600,1.375460693359375,0.025638580322265625,0.004091642796993256,-0.009484782814979553
1761132788989460500,1.38546044921875,0.023245811462402344,0.011377602815628052,-0.007147490978240967
1761132788999460600,1.395460693359375,0.030426979064941406,-0.015058867633342743,0.00013653934001922607
1761132789009460500,1.40546044921875,0.030426979064941406,-0.007824651896953583,0.00010792911052703857
1761132789019460600,1.415460693359375,0.02085113525390625,-0.026945143938064575,-0.011882901191711426
1761132789029461500,1.42546142578125,0.02803325653076172,0.011354222893714905,0.0025087594985961914
1761132789039461600,1.435461669921875,0.008881568908691406,-0.0005054846405982971,-0.00475706160068512
1761132789049461000,1.4454609375,0.030429840087890625,-0.0005145072937011719,-0.009562328457832336
1761132789059462000,1.4554619140625,0.02564239501953125,-0.014898627996444702,-0.011990711092948914
1761132789069462000,1.4654619140625,0.016065597534179688,-0.01969534158706665,-0.0023875534534454346
1761132789079462000,1.4754619140625,0.02085399627685547,-0.010127872228622437,0.002383783459663391
1761132789089462000,1.4854619140625,0.03042888641357422,-0.0005645230412483215,-0.0023076534271240234
1761132789099462000,1.4954619140625,0.025638580322265625,-0.0006299912929534912,-0.014196053147315979
1761132789109462000,1.5054619140625,0.028031349182128906,0.0016963183879852295,-0.004580572247505188
1761132789119462000,1.5154619140625,0.0280303955078125,0.0016155242919921875,-0.00460362434387207
1761132789129462000,1.5254619140625,0.030424118041992188,0.016028665006160736,0.007452934980392456
1761132789139462000,1.5354619140625,0.028031349182128906,0.02079574018716812,0.00019219517707824707
1761132789149462000,1.5454619140625,0.030424118041992188,-0.01039685308933258,-0.009346112608909607
1761132789162560800,1.558560791015625,0.028029441833496094,-0.0080045685172081,-0.0022071748971939087
1761132789172560600,1.568560546875,0.03521251678466797,0.011124588549137115,0.007405966520309448
1761132789182560500,1.578560546875,0.023241043090820312,-0.017543144524097443,-0.002138659358024597
1761132789192560600,1.588560546875,0.025635719299316406,-0.0007497817277908325,-0.011734798550605774
1761132789202560500,1.598560546875,0.02324199676513672,0.006539255380630493,0.0026604682207107544
1761132789212560600,1.608560546875,0.03760814666748047,-0.012507013976573944,-0.009279832243919373
1761132789222560800,1.618560791015625,0.028031349182128906,-0.02448839694261551,-0.004509046673774719
1761132789232560600,1.628560546875,0.011273384094238281,-0.0005477815866470337,0.00023597478866577148
1761132789242560500,1.638560546875,0.0280303955078125,0.001833505928516388,-0.0020609796047210693
1761132789252560600,1.648560546875,0.020847320556640625,0.006608977913856506,-0.00435793399810791
1761132789262561500,1.6585615234375,0.030426025390625,-0.002927914261817932,0.00034099817276000977
1761132789272561400,1.6685615234375,0.018454551696777344,0.004306145012378693,-0.014052748680114746
1761132789282561500,1.6785615234375,0.028032302856445312,-0.002827368676662445,-0.011731252074241638
1761132789292561400,1.6885615234375,0.02803325653076172,0.004391320049762726,-0.006918430328369141
1761132789302561500,1.6985615234375,0.051975250244140625,0.009241901338100433,-0.02604014426469803
1761132789312561400,1.7085615234375,0.030426979064941406,0.006894014775753021,-0.014027029275894165
1761132789322561500,1.7185615234375,0.028032302856445312,-0.014735616743564606,-0.011699259281158447
1761132789332561400,1.7285615234375,0.0064849853515625,-0.0027701035141944885,0.01231338083744049
1761132789342561500,1.7385615234375,0.03521442413330078,0.009121067821979523,-0.016439661383628845
1761132789352562000,1.74856201171875,0.030426979064941406,-0.022013336420059204,-0.021245278418064117
1761132789362561000,1.75856103515625,0.018453598022460938,0.0018702596426010132,0.005146592855453491
1761132789372561200,1.76856103515625,0.03521442413330078,-0.0076000988483428955,-0.006794348359107971
1761132789382561000,1.77856103515625,0.0280303955078125,-0.005285352468490601,-0.021181844174861908
1761132789392561200,1.78856103515625,0.02324199676513672,-0.01007169485092163,-0.013955280184745789
1761132789402561000,1.79856103515625,0.030422210693359375,0.006632596254348755,-0.013812586665153503
1761132789412561200,1.80856103515625,0.032814979553222656,-0.0221143439412117,-0.009014204144477844
1761132789422561000,1.81856103515625,0.030420303344726562,-0.012584850192070007,-0.0136861652135849
1761132789432561200,1.82856103515625,0.013658523559570312,0.008968628942966461,-0.0015839487314224243
1761132789442561000,1.83856103515625,0.02802276611328125,0.004119895398616791,-0.020725570619106293
1761132789452561200,1.84856103515625,0.018444061279296875,-0.003056533634662628,0.005742132663726807
1761132789462561800,1.858561767578125,0.018441200256347656,-0.012769818305969238,-0.013334721326828003
1761132789472562000,1.86856201171875,0.020833969116210938,0.004007995128631592,-0.020324312150478363
1761132789482561800,1.878561767578125,0.02562427520751953,-0.0006774216890335083,-0.0036221742630004883
1761132789492562000,1.88856201171875,0.02562427520751953,-0.0006218403577804565,-0.0035631656646728516
1761132789502561800,1.898561767578125,0.025621414184570312,0.008960701525211334,-0.013008609414100647
1761132789512562000,1.90856201171875,0.04238128662109375,-0.002966485917568207,-0.005827978253364563
1761132789522562000,1.91856201171875,0.023227691650390625,-0.022137008607387543,-0.013000980019569397
1761132789532562000,1.92856201171875,0.032802581787109375,0.0017553865909576416,-0.008140161633491516
1761132789542562000,1.93856201171875,0.025620460510253906,0.004204660654067993,-0.01765821874141693
1761132789552562000,1.94856201171875,0.0256195068359375,-0.0005350634455680847,-0.0032067447900772095
1761132789562561000,1.95856103515625,0.03040599822998047,0.00903637707233429,-0.022289790213108063
1761132789572561200,1.96856103515625,0.0208282470703125,-0.0030106231570243835,0.004111483693122864
1761132789582561000,1.97856103515625,0.02801036834716797,0.0065687671303749084,-0.01260368525981903
1761132789592561200,1.98856103515625,0.00646209716796875,-0.017443522810935974,-0.005426585674285889
1761132789602561000,1.99856103515625,0.028011322021484375,-0.0005828216671943665,-0.010315865278244019
1761132789612561200,2.00856103515625,0.030405044555664062,0.004199773073196411,-0.003062814474105835
1761132789622561000,2.01856103515625,0.016040802001953125,-0.003057233989238739,-0.015126898884773254
1761132789632561200,2.02856103515625,0.03040313720703125,-0.005516111850738525,-0.005424514412879944
1761132789642561000,2.03856103515625,0.018431663513183594,-0.017450794577598572,-0.003005474805831909
1761132789652561200,2.04856103515625,0.018433570861816406,-0.007822088897228241,-0.0054280757904052734
1761132789662561800,2.058561767578125,0.016038894653320312,-0.012564465403556824,-0.01735718548297882
1761132789672562000,2.06856201171875,0.0208282470703125,0.0210249125957489,0.004196345806121826
1761132789682562000,2.07856201171875,0.01603984832763672,-0.010118581354618073,-0.005414634943008423
1761132789692562000,2.08856201171875,0.025618553161621094,-0.002896450459957123,-0.007898673415184021
1761132789702562000,2.09856201171875,0.03280067443847656,0.006687164306640625,-0.010319903492927551
1761132789712562000,2.10856201171875,0.028013229370117188,0.006721653044223785,-0.0055505335330963135
1761132789722562000,2.11856201171875,0.025621414184570312,0.03071989119052887,-0.005650073289871216
1761132789732562000,2.12856201171875,0.018436431884765625,-0.007725827395915985,0.008748084306716919
1761132789742562000,2.13856201171875,0.018436431884765625,-0.005285590887069702,-0.010363653302192688
1761132789752562000,2.14856201171875,0.028014183044433594,0.009130246937274933,-0.0008158683776855469
1761132789762561000,2.15856103515625,0.01843738555908203,0.0018728747963905334,0.0038791149854660034
1761132789772561200,2.16856103515625,0.03280162811279297,-0.007777787744998932,-0.005588889122009277
1761132789782561000,2.17856103515625,0.02801227569580078,0.004130527377128601,0.011138319969177246
1761132789792561200,2.18856103515625,0.018436431884765625,-0.01025409996509552,-0.0008671581745147705
1761132789802561000,2.19856103515625,0.018436431884765625,-0.010202646255493164,-0.0008956640958786011
1761132789812561200,2.20856103515625,0.016042709350585938,-0.005439542233943939,0.006322726607322693
1761132789822561000,2.21856103515625,0.0256195068359375,-0.0007159784436225891,-0.01530100405216217
1761132789832561200,2.22856103515625,0.016043663024902344,0.00657307356595993,-0.0009057372808456421
1761132789842561000,2.23856103515625,0.03519630432128906,-0.007788464426994324,-0.008000940084457397
1761132789852561200,2.24856103515625,0.023222923278808594,0.001692935824394226,0.004000663757324219
1761132789862562000,2.25856201171875,0.023224830627441406,-0.0005791708827018738,0.0015834271907806396
1761132789872562000,2.26856201171875,0.039984703063964844,0.0018509700894355774,-0.007968902587890625
1761132789882562000,2.27856201171875,0.016040802001953125,-0.007665976881980896,-0.007822036743164062
1761132789892562000,2.28856201171875,0.023222923278808594,0.013871528208255768,-0.005445301532745361
1761132789902562000,2.29856201171875,0.025617599487304688,-0.005300968885421753,-0.012662112712860107
1761132789912562000,2.30856201171875,0.018433570861816406,0.011390015482902527,-0.024594731628894806
1761132789922562000,2.31856201171875,0.020829200744628906,-0.005317792296409607,-0.022229142487049103
1761132789932562000,2.32856201171875,0.03040599822998047,0.004295326769351959,-0.0126274973154068
1761132789942562000,2.33856201171875,0.01603984832763672,0.004280418157577515,-0.005391433835029602
1761132789952562000,2.34856201171875,0.018433570861816406,0.006656818091869354,-0.005382463335990906
1761132789962561000,2.35856103515625,0.018433570861816406,0.004306204617023468,-0.00299033522605896
1761132789972561200,2.36856103515625,0.01603984832763672,0.004281580448150635,-0.00295393168926239
1761132789982561000,2.37856103515625,0.028009414672851562,0.016244344413280487,-0.014898836612701416
1761132789992561200,2.38856103515625,0.03519153594970703,-0.0005905404686927795,-0.019621916115283966
1761132790002561000,2.39856103515625,0.0160369873046875,0.004296228289604187,-0.005200222134590149
1761132790012561200,2.40856103515625,0.025613784790039062,0.018556907773017883,0.006784379482269287
1761132790022561000,2.41856103515625,0.02800750732421875,0.009014129638671875,-0.019571013748645782
1761132790032561200,2.42856103515625,0.011246681213378906,0.0017372146248817444,-0.009920462965965271
1761132790042561000,2.43856103515625,0.023218154907226562,-0.005483545362949371,0.001982182264328003
1761132790052561200,2.44856103515625,0.023218154907226562,-0.02225237339735031,-0.005217611789703369
1761132790062562000,2.45856201171875,0.01842975616455078,-0.015071168541908264,0.0067100077867507935
1761132790072562000,2.46856201171875,0.025613784790039062,-0.007854603230953217,-0.01246294379234314
1761132790082561800,2.478561767578125,0.02800750732421875,0.008905678987503052,0.0019453763961791992
1761132790092562000,2.48856201171875,0.03040027618408203,-0.0006935968995094299,0.004419699311256409
1761132790102561800,2.498561767578125,0.023217201232910156,-0.015057042241096497,-0.009901776909828186
1761132790112562000,2.50856201171875,0.016035079956054688,0.001683257520198822,-0.019512824714183807
1761132790122561800,2.518561767578125,0.00885009765625,0.006348013877868652,0.002014338970184326
1761132790132562000,2.52856201171875,0.023217201232910156,0.011231690645217896,0.004378020763397217
1761132790142561800,2.538561767578125,0.028005599975585938,0.008773952722549438,-0.007625684142112732
1761132790152562000,2.54856201171875,0.0112457275390625,0.006355956196784973,0.004382207989692688
1761132790162561000,2.55856103515625,0.02561187744140625,-0.00795728713274002,0.006748169660568237
1761132790172561200,2.56856103515625,0.018428802490234375,-0.007964633405208588,-0.017167076468467712
1761132790182561000,2.57856103515625,0.01842784881591797,0.006385132670402527,0.002039670944213867
1761132790192561000,2.588560791015625,0.03039836883544922,0.00877237319946289,-0.012298420071601868
1761132790202561000,2.59856103515625,0.03039836883544922,0.008808836340904236,-0.0003026425838470459
1761132790212561000,2.608560791015625,0.035187721252441406,0.004071526229381561,0.002062663435935974
1761132790222561000,2.61856103515625,0.03279399871826172,0.01369977742433548,-0.0027542561292648315
1761132790232561000,2.628560791015625,0.025609970092773438,-0.005467265844345093,-0.02420511096715927
1761132790242561000,2.63856103515625,0.025609970092773438,-0.01984064280986786,-0.00023683905601501465
1761132790252561000,2.648560791015625,0.02560901641845703,-0.0054908692836761475,-0.01694309711456299
1761132790262561800,2.658561767578125,0.037581443786621094,-0.01022261381149292,-0.017042487859725952
1761132790272562000,2.66856201171875,0.013638496398925781,-0.012641429901123047,-0.024188704788684845
1761132790282562000,2.67856201171875,0.02560901641845703,0.004058435559272766,-0.002585962414741516
1761132790292562000,2.68856201171875,0.03039836883544922,0.011238761246204376,-0.0050241947174072266
1761132790302561800,2.698561767578125,0.01603221893310547,-0.0008126050233840942,-0.007441312074661255
1761132790312562000,2.70856201171875,0.023215293884277344,-0.007999405264854431,-0.012317419052124023
1761132790322562000,2.71856201171875,0.018426895141601562,-0.0031555742025375366,-0.017046719789505005
1761132790332562000,2.72856201171875,0.03518486022949219,0.008794054388999939,0.007018566131591797
1761132790342561800,2.738561767578125,0.016030311584472656,-0.007972709834575653,-0.00731988251209259
1761132790352562000,2.74856201171875,0.018424034118652344,-0.005532622337341309,-0.00009529292583465576
1761132790362561000,2.75856103515625,0.016030311584472656,0.013542331755161285,-0.024016641080379486
1761132790372561200,2.76856103515625,0.02560710906982422,0.0016218796372413635,-0.0024980008602142334
1761132790382561000,2.77856103515625,0.02800273895263672,-0.019877128303050995,-0.0049651265144348145
1761132790392561200,2.78856103515625,0.02082061767578125,-0.024559609591960907,-0.002541154623031616
1761132790402561000,2.79856103515625,0.032792091369628906,0.011460378766059875,-0.009693428874015808
1761132790412561200,2.80856103515625,0.018426895141601562,-0.0029123276472091675,0.0023044198751449585
1761132790422561000,2.81856103515625,0.035185813903808594,0.009106680750846863,0.0023901164531707764
1761132790432561200,2.82856103515625,0.008849143981933594,-0.005268000066280365,-0.0024152547121047974
1761132790442561000,2.83856103515625,0.037578582763671875,-0.00767005980014801,-0.01196560263633728
1761132790452561200,2.84856103515625,0.025606155395507812,-0.022105969488620758,-0.007023736834526062
1761132790462561800,2.858561767578125,0.03757667541503906,0.004208572208881378,0.00008037686347961426
1761132790472562000,2.86856201171875,0.013634681701660156,-0.0005338340997695923,-0.016637131571769714
1761132790482561800,2.878561767578125,0.01602935791015625,0.006641805171966553,0.004937782883644104
1761132790492562000,2.88856201171875,0.01602935791015625,-0.0029544085264205933,-0.009461894631385803
1761132790502561800,2.898561767578125,0.01602935791015625,-0.01480662077665329,0.00020641088485717773
1761132790512562000,2.90856201171875,0.011241912841796875,0.009186044335365295,-0.009399428963661194
1761132790522561800,2.918561767578125,0.016030311584472656,0.0020382776856422424,-0.004629701375961304
1761132790532562000,2.92856201171875,0.028000831604003906,0.006816014647483826,-0.011830165982246399
1761132790542562000,2.93856201171875,0.02560710906982422,-0.0003190934658050537,0.0026204586029052734
1761132790552562000,2.94856201171875,0.028000831604003906,-0.0003269612789154053,-0.021295078098773956
1761132790562561000,2.95856103515625,0.020816802978515625,-0.0170992910861969,0.0027441829442977905
1761132790572561200,2.96856103515625,0.02081775665283203,0.004371322691440582,0.002606824040412903
1761132790582561000,2.97856103515625,0.02321147918701172,-0.0076067522168159485,-0.01173141598701477
1761132790592561200,2.98856103515625,0.018423080444335938,0.004344038665294647,-0.00697799026966095
1761132790602561000,2.99856103515625,0.02081775665283203,-0.0027917176485061646,0.0002470165491104126
1761132790612561200,3.00856103515625,0.035182952880859375,-0.002728573977947235,0.000279352068901062
1761132790622561000,3.01856103515625,0.03997039794921875,-0.02908772975206375,-0.018794290721416473
1761132790632561000,3.028560791015625,0.03039264678955078,0.001968100666999817,-0.01396787166595459
1761132790642561000,3.03856103515625,0.027997970581054688,0.0019591301679611206,0.002774849534034729
1761132790652561000,3.048560791015625,0.02081775665283203,-0.007577776908874512,0.00029118359088897705
1761132790662561800,3.058561767578125,0.025604248046875,0.001991167664527893,-0.009259164333343506
1761132790672562000,3.06856201171875,0.025605201721191406,-0.01711730659008026,-0.009217917919158936
1761132790682561800,3.078561767578125,0.025604248046875,-0.007617965340614319,0.005168825387954712
1761132790692562000,3.08856201171875,0.020814895629882812,0.00673975795507431,-0.021140553057193756
1761132790702561800,3.098561767578125,0.03518104553222656,0.021156050264835358,-0.0044100284576416016
1761132790712562000,3.10856201171875,0.03997039794921875,-0.007540345191955566,-0.01640021800994873
1761132790722561800,3.118561767578125,0.03518104553222656,-0.0003002434968948364,0.0004618614912033081
1761132790732562000,3.12856201171875,0.03039073944091797,-0.014742933213710785,0.00048339366912841797
1761132790742561800,3.138561767578125,0.023209571838378906,0.011641941964626312,-0.006772056221961975
1761132790752562000,3.14856201171875,0.02799701690673828,-0.02674282342195511,0.0004319697618484497
1761132790762561000,3.15856103515625,-0.0007314682006835938,0.0044480860233306885,-0.021197982132434845
1761132790772561200,3.16856103515625,0.023209571838378906,-0.0026868805289268494,-0.006747439503669739
1761132790782561000,3.17856103515625,0.025606155395507812,-0.004977434873580933,0.00042091310024261475
1761132790792561200,3.18856103515625,0.027998924255371094,-0.009773336350917816,-0.009129062294960022
1761132790802561000,3.19856103515625,0.027998924255371094,-0.005004331469535828,0.0028074830770492554
1761132790812561200,3.20856103515625,0.030394554138183594,-0.0025585517287254333,-0.0067979395389556885
1761132790822561000,3.21856103515625,0.042365074157714844,0.009458854794502258,0.002821117639541626
1761132790832561200,3.22856103515625,0.013635635375976562,-0.012049935758113861,-0.002057388424873352
1761132790842561000,3.23856103515625,0.016030311584472656,0.0023054182529449463,-0.009257346391677856
1761132790852561000,3.248560791015625,0.023212432861328125,-0.007277853786945343,-0.002047330141067505
1761132790862561800,3.258561767578125,0.028001785278320312,0.011927209794521332,-0.0020758509635925293
1761132790872562000,3.26856201171875,0.028003692626953125,0.0024452880024909973,-0.0021067410707473755
1761132790882561800,3.278561767578125,0.02800464630126953,0.0024415254592895508,-0.006982699036598206
1761132790892562000,3.28856201171875,0.02321624755859375,-0.0023567304015159607,-0.00460582971572876
1761132790902561800,3.298561767578125,0.028003692626953125,-0.004830904304981232,-0.00941680371761322
1761132790912562000,3.30856201171875,0.03279399871826172,-0.0144214928150177,0.0072378069162368774
1761132790922561800,3.318561767578125,0.020821571350097656,-0.01682829111814499,-0.009424149990081787
1761132790932562000,3.32856201171875,0.006458282470703125,0.011951722204685211,-0.009496569633483887
1761132790942561800,3.338561767578125,0.03279590606689453,0.019191868603229523,-0.000018477439880371094
1761132790952562000,3.34856201171875,0.02082538604736328,0.009534716606140137,-0.009618222713470459
1761132790962561000,3.35856103515625,0.02082538604736328,0.00958617776632309,-0.009646758437156677
1761132790972561200,3.36856103515625,0.03279685974121094,0.004778049886226654,-0.004893019795417786
1761132790982561000,3.37856103515625,0.013642311096191406,-0.000007838010787963867,-0.012031540274620056
1761132790992561000,3.388560791015625,0.03279590606689453,0.004755578935146332,-0.002418696880340576
1761132791002561000,3.39856103515625,0.023220062255859375,0.011934787034988403,-0.004900082945823669
1761132791012561000,3.408560791015625,0.04955577850341797,0.021433763206005096,-0.026426732540130615
1761132791022561000,3.41856103515625,0.013642311096191406,-0.009593985974788666,0.00471082329750061
1761132791032561000,3.428560791015625,0.028005599975585938,-0.004819013178348541,-0.0047690123319625854
1761132791042561000,3.43856103515625,0.037583351135253906,0.014370627701282501,-0.021503813564777374
1761132791052561000,3.448560791015625,0.02082347869873047,-0.007264301180839539,0.012019291520118713
1761132791062561800,3.458561767578125,0.02082347869873047,0.01672358065843582,0.004878640174865723
1761132791072562000,3.46856201171875,0.025613784790039062,0.007203519344329834,-0.0024031996726989746
1761132791082561800,3.478561767578125,0.025612831115722656,-0.004847027361392975,-0.01679082214832306
1761132791092561700,3.488561767578125,0.018428802490234375,-0.011981241405010223,-0.0023395419120788574
1761132791102561800,3.498561767578125,0.03040027618408203,0.002374619245529175,-0.01193341612815857
1761132791112561700,3.508561767578125,0.028005599975585938,-0.016786478459835052,0.00006443262100219727
1761132791122561800,3.518561767578125,0.028003692626953125,-0.01678786426782608,0.00022260844707489014
1761132791132561700,3.528561767578125,0.02082061767578125,-0.0024468228220939636,-0.006923481822013855
1761132791142561800,3.538561767578125,0.030397415161132812,0.004771731793880463,-0.018870003521442413
1761132791152562000,3.54856201171875,0.035185813903808594,-0.014445416629314423,-0.00214327871799469
1761132791162561000,3.55856103515625,0.02082061767578125,0.004710279405117035,-0.00449351966381073
1761132791172561000,3.568560791015625,0.01603221893310547,-0.009621277451515198,-0.0021188855171203613
1761132791182561000,3.57856103515625,0.023215293884277344,0.014378204941749573,-0.007006153464317322
1761132791192561000,3.588560791015625,0.03039836883544922,0.0023269355297088623,-0.014211535453796387
1761132791202561000,3.59856103515625,0.04476356506347656,0.004640787839889526,-0.0022634416818618774
1761132791212561000,3.608560791015625,0.028003692626953125,-0.014520317316055298,-0.007025033235549927
1761132791222561000,3.61856103515625,0.023214340209960938,0.014202766120433807,-0.00699828565120697
1761132791232561000,3.628560791015625,0.028003692626953125,0.0022098198533058167,-0.026230454444885254
1761132791242561000,3.63856103515625,0.023214340209960938,0.002139545977115631,-0.00468812882900238
1761132791252561000,3.648560791015625,0.018426895141601562,-0.007386460900306702,-0.009505659341812134
1761132791262561800,3.658561767578125,0.013639450073242188,0.007030196487903595,-0.0023515671491622925
1761132791272562000,3.66856201171875,0.032792091369628906,0.002290092408657074,-0.009448274970054626
1761132791282561800,3.678561767578125,0.011246681213378906,-0.014490202069282532,-0.0023436397314071655
1761132791302561800,3.698561767578125,0.013639450073242188,0.00470869243144989,0.00488048791885376
1761132791312562000,3.70856201171875,0.020822525024414062,-0.004886634647846222,0.016817674040794373
1761132791322561500,3.7185615234375,0.008852005004882812,0.009542003273963928,-0.002303376793861389
1761132791332561400,3.7285615234375,0.016035079956054688,0.002395428717136383,-0.007067173719406128
1761132791342561500,3.7385615234375,0.020822525024414062,0.0023154616355895996,-0.007089734077453613
1761132791352561400,3.7485615234375,0.013639450073242188,-0.00014115124940872192,0.0048493146896362305
1761132791362560500,3.758560546875,0.028003692626953125,0.004748992621898651,-0.004626289010047913
1761132791372560600,3.768560546875,0.020822525024414062,-0.014297664165496826,-0.006990179419517517
1761132791382560500,3.778560546875,0.023214340209960938,-0.007227294147014618,-0.002161383628845215
1761132791392560600,3.788560546875,0.023214340209960938,-0.004857562482357025,-0.002125069499015808
1761132791402560500,3.798560546875,0.023214340209960938,-0.0048774853348731995,-0.002159819006919861
1761132791412560600,3.808560546875,0.030397415161132812,-0.014464162290096283,-0.016542375087738037
1761132791422560500,3.818560546875,0.030396461486816406,-0.014541618525981903,-0.016520828008651733
1761132791432560600,3.828560546875,0.02560710906982422,-0.005033448338508606,0.0026707202196121216
1761132791442560500,3.838560546875,0.025604248046875,0.006935723125934601,-0.0067480504512786865
1761132791452560600,3.848560546875,0.01602935791015625,-0.01696726679801941,0.017103835940361023
1761132791462561500,3.8585615234375,0.020819664001464844,-0.0048833563923835754,-0.0188489630818367
1761132791472561400,3.8685615234375,0.028000831604003906,-0.0001098737120628357,-0.009218722581863403
1761132791482561500,3.8785615234375,0.018425941467285156,0.009523957967758179,0.005047455430030823
1761132791492561400,3.8885615234375,0.013637542724609375,-0.009649060666561127,-0.014140605926513672
1761132791502561500,3.8985615234375,0.018426895141601562,-0.002486974000930786,0.00014697015285491943
1761132791512561400,3.9085615234375,0.018424034118652344,-0.0026139095425605774,0.00024084746837615967
1761132791522561500,3.9185615234375,0.01603221893310547,0.007014870643615723,0.00021260976791381836
1761132791532561700,3.928561767578125,0.02560710906982422,0.01645238697528839,-0.02848537266254425
1761132791542561500,3.9385615234375,0.02082061767578125,0.026023447513580322,-0.019039921462535858
1761132791552561700,3.948561767578125,0.037578582763671875,0.004504881799221039,-0.011805519461631775
1761132791562560800,3.958560791015625,0.013635635375976562,-0.009892508387565613,-0.0069540441036224365
1761132791572560600,3.968560546875,0.020819664001464844,0.009310208261013031,-0.014209344983100891
1761132791582560500,3.978560546875,0.016030311584472656,0.014119923114776611,-0.016525402665138245
1761132791592560600,3.988560546875,0.011241912841796875,-0.00033239275217056274,-0.014126941561698914
1761132791602560500,3.998560546875,0.011240959167480469,0.021253883838653564,-0.011664167046546936
1761132791612560600,4.008560546875,0.035182952880859375,0.002056233584880829,0.009885579347610474
1761132791622561000,4.01856103515625,0.039969444274902344,0.011612847447395325,-0.016326501965522766
1761132791632561200,4.02856103515625,0.030389785766601562,-0.002800494432449341,-0.013816356658935547
1761132791642561000,4.03856103515625,0.03517627716064453,-0.005288206040859222,0.0006231069564819336
1761132791652561200,4.04856103515625,0.02559947967529297,0.01625145971775055,-0.006533265113830566
1761132791662561800,4.058561767578125,0.02320384979248047,0.009152092039585114,-0.01121184229850769
1761132791672562000,4.06856201171875,0.03277873992919922,0.006681680679321289,-0.015935614705085754
1761132791682561800,4.078561767578125,0.020807266235351562,-0.002998635172843933,0.005669206380844116
1761132791692562000,4.08856201171875,0.030386924743652344,-0.0005055814981460571,-0.011235028505325317
1761132791702561800,4.098561767578125,0.02799224853515625,-0.0005273520946502686,-0.018496282398700714
1761132791712562000,4.10856201171875,0.03517627716064453,-0.007729291915893555,-0.004165381193161011
1761132791722561800,4.118561767578125,0.013628005981445312,0.033007267862558365,0.007787138223648071
1761132791732561700,4.128561767578125,0.018418312072753906,0.006775945425033569,-0.0018032640218734741
1761132791742561800,4.138561767578125,0.04954338073730469,0.00202237069606781,0.002966448664665222
1761132791752561700,4.148561767578125,0.02081298828125,0.006859824061393738,-0.018494732677936554
1761132791762561000,4.15856103515625,0.030388832092285156,0.006906658411026001,-0.018452338874340057
1761132791772561000,4.168560791015625,0.023204803466796875,0.02363152801990509,-0.01364503800868988
1761132791782561000,4.17856103515625,0.025600433349609375,-0.000257931649684906,-0.011236205697059631
1761132791792561000,4.188560791015625,0.025600433349609375,-0.01945764571428299,0.0006927698850631714
1761132791802561000,4.19856103515625,0.03278160095214844,-0.00990583747625351,0.0031230002641677856
1761132791812561000,4.208560791015625,0.023204803466796875,0.006844624876976013,-0.001682087779045105
1761132791822561000,4.21856103515625,0.030388832092285156,0.02598918229341507,-0.006487339735031128
1761132791832561000,4.228560791015625,0.018416404724121094,-0.007565297186374664,-0.018482618033885956
1761132791842561000,4.23856103515625,0.025600433349609375,-0.00518064945936203,-0.013711333274841309
1761132791852561000,4.248560791015625,0.025600433349609375,0.014019869267940521,-0.006486192345619202
1761132791862561800,4.258561767578125,0.03517627716064453,-0.007554635405540466,-0.023253165185451508
1761132791872562000,4.26856201171875,0.02559947967529297,0.011581555008888245,-0.004090204834938049
1761132791882561800,4.278561767578125,0.0136260986328125,-0.00042758136987686157,-0.013533815741539001
1761132791892562000,4.28856201171875,0.01601696014404297,-0.0029741451144218445,-0.011009857058525085
1761132791902561800,4.298561767578125,0.023197174072265625,-0.0029951557517051697,-0.01567460596561432
1761132791912562000,4.30856201171875,0.035167694091796875,-0.005411908030509949,-0.017988838255405426
1761132791922561800,4.318561767578125,0.0064373016357421875,0.0017536357045173645,-0.01558491587638855
1761132791932561700,4.328561767578125,0.018407821655273438,0.0065779909491539,-0.00837785005569458
1761132791942561800,4.338561767578125,0.03516674041748047,0.006553366780281067,-0.01552407443523407
1761132791952561700,4.348561767578125,0.03516578674316406,0.006530366837978363,-0.01544421911239624
1761132791962560800,4.358560791015625,0.027982711791992188,-0.012657269835472107,-0.010636642575263977
1761132791972561000,4.368560791015625,0.027982711791992188,0.00894162803888321,-0.0058771222829818726
1761132791982560800,4.378560791015625,0.02798175811767578,-0.0030528903007507324,0.008567631244659424
1761132791992560600,4.388560546875,0.02798175811767578,-0.005526110529899597,-0.003425508737564087
1761132792002560800,4.398560791015625,0.011220932006835938,0.003965124487876892,-0.00577177107334137
1761132792012560600,4.408560546875,0.013614654541015625,0.008870400488376617,-0.0105123370885849
1761132792022561000,4.41856103515625,0.03037548065185547,-0.0054608359932899475,0.0038335323333740234
1761132792032561000,4.428560791015625,0.042346954345703125,-0.007820285856723785,-0.008156299591064453
1761132792042561000,4.43856103515625,0.018401145935058594,-0.0007091835141181946,-0.005609139800071716
1761132792052561000,4.448560791015625,0.018403053283691406,-0.017489992082118988,-0.02005261927843094
1761132792062561800,4.458561767578125,0.02318859100341797,-0.015226028859615326,-0.0032439231872558594
1761132792072561700,4.468561767578125,0.018401145935058594,-0.0033469125628471375,-0.015298798680305481
1761132792082561800,4.478561767578125,0.025583267211914062,0.003759026527404785,-0.008051708340644836
1761132792092561700,4.488561767578125,0.006428718566894531,0.008592933416366577,-0.0032216906547546387
1761132792102561800,4.498561767578125,0.03515911102294922,-0.005725577473640442,0.0016091763973236084
1761132792112561700,4.508561767578125,0.018400192260742188,-0.005746990442276001,-0.000863298773765564
1761132792122561500,4.5185615234375,0.018400192260742188,-0.005826964974403381,-0.0008858740329742432
1761132792132561700,4.528561767578125,0.027975082397460938,0.006075754761695862,-0.005635976791381836
1761132792142561500,4.5385615234375,0.027975082397460938,-0.013169445097446442,-0.0033253878355026245
1761132792152561700,4.548561767578125,0.023187637329101562,0.01308530569076538,-0.0009972751140594482
1761132792162560800,4.558560791015625,0.02079296112060547,-0.0013602450489997864,-0.008202821016311646
1761132792172561000,4.568560791015625,0.02079296112060547,0.00592321902513504,-0.0009196549654006958
1761132792182560800,4.578560791015625,0.011216163635253906,0.00836373120546341,-0.003271743655204773
1761132792192561000,4.588560791015625,0.0375518798828125,-0.010811194777488708,-0.005744084715843201
1761132792202560800,4.598560791015625,0.02079296112060547,0.0010364428162574768,-0.00815872848033905
1761132792212561000,4.608560791015625,0.035157203674316406,0.010532401502132416,0.0013948827981948853
1761132792222561000,4.61856103515625,0.020791053771972656,0.0033256858587265015,0.0014315545558929443
1761132792232561000,4.628560791015625,0.03036785125732422,-0.0063213929533958435,-0.010544955730438232
1761132792242561000,4.63856103515625,0.0112152099609375,0.0008401721715927124,-0.010622888803482056
1761132792252561000,4.648560791015625,0.02557849884033203,-0.013610519468784332,-0.008180975914001465
1761132792262561800,4.658561767578125,0.011214256286621094,-0.020814143121242523,-0.003470480442047119
1761132792272562000,4.66856201171875,0.01839733123779297,-0.001624077558517456,-0.00823412835597992
1761132792282561800,4.678561767578125,0.025577545166015625,-0.008809387683868408,0.0038518309593200684
1761132792292562000,4.68856201171875,0.025579452514648438,-0.006319917738437653,0.006215512752532959
1761132792302561800,4.698561767578125,0.020792007446289062,-0.0038909614086151123,-0.005774334073066711
1761132792312562000,4.70856201171875,0.02558135986328125,0.008073478937149048,-0.0011177808046340942
1761132792322561800,4.718561767578125,0.016004562377929688,-0.011116363108158112,0.0012517273426055908
1761132792332562000,4.72856201171875,0.006427764892578125,-0.018253102898597717,0.0036878883838653564
1761132792342561800,4.738561767578125,0.037552833557128906,-0.02545621246099472,0.0012160539627075195
1761132792352562000,4.74856201171875,0.016004562377929688,0.0032587721943855286,0.001269221305847168
1761132792362561000,4.75856103515625,0.02318859100341797,0.008141696453094482,0.008420586585998535
1761132792372561000,4.768560791015625,0.025583267211914062,-0.022993214428424835,-0.003567904233932495
1761132792382561000,4.77856103515625,0.025583267211914062,-0.006313331425189972,-0.0059845298528671265
1761132792392561000,4.788560791015625,0.03994560241699219,0.010316848754882812,-0.0035404860973358154
1761132792402561000,4.79856103515625,0.03515815734863281,-0.008802808821201324,-0.0059540122747421265
1761132792412561000,4.808560791015625,0.020792007446289062,-0.008771777153015137,0.003718346357345581
1761132792422561000,4.81856103515625,0.013607978820800781,-0.011182203888893127,-0.017776809632778168
1761132792432561200,4.82856103515625,-0.0031518936157226562,0.012679465115070343,-0.00822293758392334
1761132792452561200,4.84856103515625,0.037548065185546875,-0.006396584212779999,0.008674204349517822
1761132792462562000,4.85856201171875,0.030365943908691406,-0.011138975620269775,-0.00564911961555481
1761132792472562000,4.86856201171875,0.025575637817382812,0.019972503185272217,-0.005551934242248535
1761132792482562000,4.87856201171875,0.020789146423339844,0.003306075930595398,-0.008020684123039246
1761132792492562000,4.88856201171875,0.01839447021484375,-0.006285868585109711,-0.005573108792304993
1761132792502562000,4.89856201171875,0.03754901885986328,0.0033304765820503235,-0.008057132363319397
1761132792512562000,4.90856201171875,0.02318286895751953,-0.008665449917316437,-0.01280936598777771
1761132792522562000,4.91856201171875,0.02557659149169922,-0.0015520080924034119,-0.0031948983669281006
1761132792532562000,4.92856201171875,0.03275585174560547,-0.015991583466529846,0.008884623646736145
1761132792542562000,4.93856201171875,0.030363082885742188,-0.006451830267906189,-0.01029418408870697
1761132792552562000,4.94856201171875,0.025575637817382812,0.0032303184270858765,-0.007913097739219666
1761132792562561000,4.95856103515625,0.01839447021484375,-0.0039026811718940735,0.0063796937465667725
1761132792572561200,4.96856103515625,0.020789146423339844,-0.030318886041641235,-0.012796461582183838
1761132792582561000,4.97856103515625,0.006424903869628906,-0.004059940576553345,-0.012933969497680664
1761132792592561000,4.988560791015625,0.027971267700195312,-0.013590715825557709,-0.024863094091415405
1761132792602561000,4.99856103515625,0.02797222137451172,-0.013592995703220367,-0.024907127022743225
1761132792612561000,5.008560791015625,0.004032135009765625,0.012819349765777588,0.003758534789085388
1761132792622561000,5.01856103515625,0.02797222137451172,0.008015520870685577,0.0038116872310638428
1761132792632561000,5.028560791015625,0.02797412872314453,0.008108943700790405,-0.017810530960559845
1761132792642561000,5.03856103515625,0.016005516052246094,-0.008611075580120087,-0.005929291248321533
1761132792652561000,5.048560791015625,0.016005516052246094,0.01058768481016159,0.015659794211387634
1761132792662561800,5.058561767578125,0.020793914794921875,-0.010931380093097687,0.001346096396446228
1761132792672562000,5.06856201171875,0.0160064697265625,0.015401072800159454,-0.010712459683418274
1761132792682561800,5.078561767578125,0.01839923858642578,-0.00868193805217743,-0.015512019395828247
1761132792692562000,5.08856201171875,0.035160064697265625,0.01763339340686798,-0.006013214588165283
1761132792702561800,5.098561767578125,0.03036975860595703,-0.01589769870042801,-0.0011269748210906982
1761132792712562000,5.10856201171875,0.018398284912109375,-0.01831836998462677,-0.003528684377670288
1761132792722561800,5.118561767578125,0.008820533752441406,0.01267240196466446,-0.022720269858837128
1761132792732562000,5.12856201171875,0.01839733123779297,-0.0017902925610542297,-0.0035800039768218994
1761132792742561800,5.138561767578125,0.03036785125732422,-0.020898669958114624,-0.0035386234521865845
1761132792752562000,5.14856201171875,0.02318572998046875,-0.008948706090450287,-0.008404955267906189
1761132792762561000,5.15856103515625,0.03036975860595703,-0.02571795880794525,-0.001239672303199768
1761132792772561000,5.168560791015625,0.023183822631835938,0.00768231600522995,0.015629887580871582
1761132792782561000,5.17856103515625,0.011212348937988281,-0.004315301775932312,-0.005925357341766357
1761132792792561000,5.188560791015625,0.02797222137451172,0.0028570815920829773,0.010816365480422974
1761132792802561000,5.19856103515625,0.023183822631835938,-0.004344567656517029,-0.013159766793251038
1761132792812561200,5.20856103515625,0.018395423889160156,0.0003627985715866089,-0.022802524268627167
1761132792822561000,5.21856103515625,0.027971267700195312,-0.004449836909770966,-0.020371578633785248
1761132792832561000,5.228560791015625,0.016000747680664062,-0.006859473884105682,0.003623589873313904
1761132792842561000,5.23856103515625,0.035152435302734375,-0.004533551633358002,-0.0035207122564315796
1761132792852561000,5.248560791015625,0.030363082885742188,-0.0308939591050148,-0.0058784037828445435
1761132792862561800,5.258561767578125,0.02557659149169922,-0.016396798193454742,-0.005884081125259399
1761132792872562000,5.26856201171875,-0.000759124755859375,0.0003774389624595642,0.0012449473142623901
1761132792882562000,5.27856201171875,0.02078723907470703,0.012251734733581543,-0.003513634204864502
1761132792892562000,5.28856201171875,0.030364036560058594,-0.018827378749847412,-0.00826042890548706
1761132792902562000,5.29856201171875,0.03036212921142578,0.005085393786430359,-0.01533573865890503
1761132792912562000,5.30856201171875,0.0064220428466796875,0.0027417540550231934,0.0037887096405029297
1761132792922562000,5.31856201171875,0.015996932983398438,0.0003330111503601074,0.001448303461074829
1761132792932562000,5.32856201171875,0.03036212921142578,0.0027025118470191956,-0.024851679801940918
1761132792942562000,5.33856201171875,0.020784378051757812,-0.006889715790748596,-0.008039116859436035
1761132792952562000,5.34856201171875,0.02557373046875,-0.0020612701773643494,-0.0033402442932128906
1761132792962561000,5.35856103515625,0.03993797302246094,0.007555462419986725,-0.0032281428575515747
1761132792972561200,5.36856103515625,0.04233264923095703,-0.0019814372062683105,-0.0009234100580215454
1761132792982561000,5.37856103515625,0.03515052795410156,0.005176186561584473,-0.0008873939514160156
1761132792992561200,5.38856103515625,0.020784378051757812,-0.01399049162864685,-0.007972672581672668
1761132793002561000,5.39856103515625,0.01599597930908203,-0.0019759759306907654,-0.005580678582191467
1761132793012561200,5.40856103515625,0.023177146911621094,-0.026004277169704437,-0.007927656173706055
1761132793022561000,5.41856103515625,0.018388748168945312,0.00749601423740387,-0.0031730681657791138
1761132793032561200,5.42856103515625,0.027963638305664062,-0.009338289499282837,-0.01264163851737976
1761132793042561000,5.43856103515625,0.027963638305664062,-0.00935768336057663,-0.01267610490322113
1761132793052561200,5.44856103515625,0.027965545654296875,0.00031209737062454224,0.004008755087852478
1761132793062561800,5.458561767578125,0.0016298294067382812,-0.01633087545633316,-0.005520731210708618
1761132793072562000,5.46856201171875,0.03036022186279297,0.00519232451915741,-0.019849561154842377
1761132793082561800,5.478561767578125,0.023176193237304688,0.017136357724666595,-0.02703993022441864
1761132793092562000,5.48856201171875,0.037540435791015625,0.012331724166870117,-0.017410464584827423
1761132793102561800,5.498561767578125,0.02317523956298828,0.01949170231819153,-0.005359262228012085
1761132793112562000,5.50856201171875,0.0159912109375,-0.006811700761318207,-0.010008737444877625
1761132793122561800,5.518561767578125,0.030356407165527344,-0.002051912248134613,-0.002877369523048401
1761132793132562000,5.52856201171875,0.03514385223388672,-0.014037840068340302,-0.002823933959007263
1761132793142561800,5.538561767578125,0.020780563354492188,-0.004420682787895203,-0.012490063905715942
1761132793152562000,5.54856201171875,0.02796173095703125,-0.001996949315071106,0.0019271522760391235
1761132793162527700,5.55852783203125,0.02317333221435547,-0.030738450586795807,0.0019091814756393433
1761132793172494300,5.568494384765625,0.030358314514160156,-0.00430770218372345,-0.01488146185874939
1761132793182461000,5.5784609375,0.027963638305664062,-0.0042641982436180115,-0.019672073423862457
1761132793192427500,5.588427490234375,0.023177146911621094,0.005442135035991669,-0.010144904255867004
1761132793202394400,5.598394287109375,0.020783424377441406,-0.016134649515151978,0.001774519681930542
1761132793212361000,5.60836083984375,0.020782470703125,0.00288960337638855,-0.0029639601707458496
1761132793222327600,5.61832763671875,0.020781517028808594,0.002809271216392517,-0.0029868632555007935
1761132793232294400,5.62829443359375,0.02796459197998047,-0.011576853692531586,-0.010247468948364258
1761132793242261000,5.638260986328125,0.023176193237304688,-0.004349246621131897,-0.005417749285697937
1761132793252227600,5.6482275390625,0.025572776794433594,-0.011547677218914032,0.0016160905361175537
1761132793262195200,5.6581953125,0.023176193237304688,-0.004521772265434265,-0.012707322835922241
1761132793272161800,5.668161865234375,0.025572776794433594,-0.016383633017539978,-0.005609601736068726
1761132793282128600,5.678128662109375,0.03036212921142578,0.010057114064693451,-0.005623221397399902
1761132793292095200,5.68809521484375,0.03275585174560547,0.012496821582317352,-0.00797581672668457
1761132793302061800,5.698061767578125,0.013602256774902344,0.0004461333155632019,-0.007998168468475342
1761132793312028400,5.7080283203125,0.013602256774902344,0.00047861039638519287,-0.008061021566390991
1761132793321995300,5.717995361328125,0.011209487915039062,-0.01151181012392044,-0.010489687323570251
1761132793331961900,5.7279619140625,0.01839160919189453,-0.004339560866355896,-0.01290149986743927
1761132793341928400,5.737928466796875,0.03275585174560547,0.002818554639816284,-0.010471001267433167
1761132793351895000,5.74789501953125,0.02078533172607422,0.01236838847398758,-0.01766137033700943
1761132793361861000,5.757861083984375,0.0279693603515625,0.002896040678024292,-0.010492533445358276
1761132793371827700,5.76782763671875,0.025575637817382812,-0.0019116997718811035,-0.008132651448249817
1761132793381794300,5.777794189453125,0.030364036560058594,-0.021075308322906494,0.006215304136276245
1761132793391761000,5.787760986328125,0.02557659149169922,0.005239136517047882,-0.008228540420532227
1761132793401727700,5.797727783203125,0.03515434265136719,0.017189107835292816,-0.013094857335090637
1761132793411694300,5.8076943359375,0.030366897583007812,0.002803005278110504,-0.008384451270103455
1761132793421661000,5.817660888671875,0.020789146423339844,-0.01637648046016693,-0.027502670884132385
1761132793431627800,5.827627685546875,0.02318286895751953,0.0028134584426879883,0.013223603367805481
1761132793441594400,5.837594482421875,0.011212348937988281,0.012381285429000854,-0.010735109448432922
1761132793451561000,5.84756103515625,0.030365943908691406,-0.001937970519065857,-0.013087570667266846
1761132793461561900,5.857561767578125,0.0040302276611328125,0.007618673145771027,0.015565559267997742
1761132793471561700,5.867561767578125,0.02797222137451172,-0.002040475606918335,0.013104647397994995
1761132793481561900,5.877561767578125,0.016002655029296875,0.007587417960166931,0.010681554675102234
1761132793491561700,5.887561767578125,0.037550926208496094,-0.0018944889307022095,0.003468051552772522
1761132793501561900,5.897561767578125,0.020792007446289062,-0.011487223207950592,-0.013238474726676941
1761132793511562000,5.90756201171875,0.02318286895751953,0.0004656389355659485,-0.017858795821666718
1761132793521561900,5.917561767578125,0.027971267700195312,-0.009136155247688293,-0.001063331961631775
1761132793531562000,5.92756201171875,0.023183822631835938,-0.0019136518239974976,-0.005941212177276611
1761132793541561900,5.937561767578125,0.02797222137451172,0.014890909194946289,0.006071045994758606
1761132793551562000,5.94756201171875,0.013607025146484375,-0.006683513522148132,-0.015484198927879333
1761132793561561000,5.95756103515625,0.027971267700195312,0.014783963561058044,0.0036465078592300415
1761132793571561000,5.96756103515625,0.03276252746582031,-0.011441729962825775,0.010745152831077576
1761132793581561000,5.97756103515625,0.023184776306152344,-0.020990662276744843,0.001219227910041809
1761132793591561000,5.98756103515625,0.011213302612304688,-0.006693363189697266,-0.015501528978347778
1761132793601561000,5.99756103515625,0.008817672729492188,-0.011435814201831818,-0.015459790825843811
1761132793611561000,6.00756103515625,0.023183822631835938,-0.004289381206035614,-0.010695934295654297
1761132793621561000,6.01756103515625,0.025577545166015625,-0.0018923208117485046,0.010896340012550354
1761132793631561000,6.02756103515625,0.030366897583007812,-0.004306606948375702,-0.00833478569984436
1761132793641561000,6.03756103515625,0.015996932983398438,-0.00690373033285141,-0.0009932219982147217
1761132793651561000,6.04756103515625,0.01360321044921875,-0.006870277225971222,-0.0058012455701828
1761132793661561900,6.057561767578125,0.01120758056640625,-0.009338341653347015,0.0014901608228683472
1761132793671561700,6.067561767578125,0.030359268188476562,0.014519751071929932,-0.005601063370704651
1761132793681561900,6.077561767578125,0.02796459197998047,-0.016614720225334167,-0.019983597099781036
1761132793691562000,6.08756201171875,0.030358314514160156,0.002579204738140106,-0.012688547372817993
1761132793701561900,6.097561767578125,0.020780563354492188,-0.009361006319522858,0.013742804527282715
1761132793711562000,6.10756201171875,0.008810043334960938,0.005055226385593414,0.006531506776809692
1761132793721561900,6.117561767578125,0.020781517028808594,0.017000064253807068,-0.012629374861717224
1761132793731562000,6.12756201171875,0.023176193237304688,-0.014075465500354767,-0.0031252652406692505
1761132793741561900,6.137561767578125,0.018388748168945312,0.0027178972959518433,-0.012721419334411621
1761132793751562000,6.14756201171875,0.013601303100585938,-0.009329885244369507,0.011083394289016724
1761132793761561000,6.15756103515625,0.020784378051757812,-0.007015503942966461,-0.020063869655132294
1761132793771561000,6.16756103515625,0.02796459197998047,0.007280901074409485,-0.0008722245693206787
1761132793781561000,6.17756103515625,0.020782470703125,0.01917193830013275,0.003893628716468811
1761132793791561000,6.18756103515625,0.020780563354492188,-0.0024617984890937805,-0.0032413899898529053
1761132793801561000,6.19756103515625,0.025568008422851562,-0.00482526421546936,0.01121915876865387
1761132793811561000,6.20756103515625,0.03275108337402344,0.014444373548030853,0.001689523458480835
1761132793821561000,6.21756103515625,0.018384933471679688,0.0023935288190841675,-0.005515724420547485
1761132793831561000,6.22756103515625,0.018385887145996094,0.004822053015232086,-0.015111491084098816
1761132793841561000,6.23756103515625,0.03275012969970703,0.0047369301319122314,0.0016959905624389648
1761132793851561000,6.24756103515625,0.008808135986328125,-0.000060811638832092285,0.008861526846885681
1761132793861561900,6.257561767578125,0.025568008422851562,0.009494960308074951,-0.012764200568199158
1761132793871561700,6.267561767578125,0.042326927185058594,-0.004889659583568573,0.01114337146282196
1761132793881561900,6.277561767578125,0.013594627380371094,-0.0049199312925338745,-0.0031151175498962402
1761132793891562000,6.28756201171875,0.025567054748535156,-0.00008594989776611328,-0.00546756386756897
1761132793901561900,6.297561767578125,0.006412506103515625,0.00953681766986847,-0.02457943558692932
1761132793911562000,6.30756201171875,0.02795886993408203,0.002341151237487793,0.0018541067838668823
1761132793921561900,6.317561767578125,0.01838207244873047,-0.0024737194180488586,-0.022095419466495514
1761132793931562000,6.32756201171875,0.02556610107421875,-0.000028446316719055176,-0.02212429791688919
1761132793941561900,6.337561767578125,0.02556324005126953,-0.004890047013759613,0.01150389015674591
1761132793951562000,6.34756201171875,0.039928436279296875,0.004662573337554932,-0.017190001904964447
1761132793961561000,6.35756103515625,0.02316761016845703,0.004636481404304504,-0.017197154462337494
1761132793971561000,6.36756103515625,0.02556324005126953,-0.00010084360837936401,-0.019620247185230255
1761132793981561000,6.37756103515625,0.013591766357421875,0.0071730837225914,0.01158781349658966
1761132793991561000,6.38756103515625,0.025564193725585938,-0.004763968288898468,-0.017161943018436432
1761132794001561000,6.39756103515625,0.020776748657226562,0.002452954649925232,0.009155288338661194
1761132794011561000,6.40756103515625,0.02317047119140625,0.01200917363166809,-0.02204710990190506
1761132794021561000,6.41756103515625,0.03274726867675781,0.0072228312492370605,-0.01242634654045105
1761132794031561000,6.42756103515625,0.032745361328125,0.007121101021766663,-0.012368425726890564
1761132794041561000,6.43756103515625,0.01837921142578125,0.01662798970937729,0.004385828971862793
1761132794051561000,6.44756103515625,0.0303497314453125,-0.00008391588926315308,-0.007499769330024719
1761132794061561900,6.457561767578125,-0.0031681060791015625,-0.0025609657168388367,-0.007566764950752258
1761132794071561700,6.467561767578125,0.02316761016845703,-0.002526499330997467,-0.0075858235359191895
1761132794081561900,6.477561767578125,0.025562286376953125,-0.00015091150999069214,-0.0004371851682662964
1761132794091561700,6.487561767578125,0.01598644256591797,0.021385803818702698,-0.012468621134757996
1761132794101561900,6.497561767578125,0.03035259246826172,0.006999991834163666,-0.0005754083395004272
1761132794111561700,6.507561767578125,0.011201858520507812,-0.002531200647354126,-0.007918044924736023
1761132794121561900,6.517561767578125,0.03275108337402344,-0.014343515038490295,-0.005521833896636963
1761132794131561700,6.527561767578125,0.032752037048339844,-0.0023390576243400574,-0.003147229552268982
1761132794141561900,6.537561767578125,0.02077960968017578,0.00004728883504867554,0.006456047296524048
1761132794151561700,6.547561767578125,0.02077960968017578,-0.0024263858795166016,0.016010567545890808
1761132794161561000,6.55756103515625,0.03514289855957031,-0.03118656575679779,0.006540775299072266
1761132794171561000,6.56756103515625,0.02077770233154297,-0.011931709945201874,-0.0029351115226745605
1761132794181561000,6.57756103515625,0.023171424865722656,0.000030249357223510742,-0.007740378379821777
1761132794191561000,6.58756103515625,0.02556610107421875,-0.002390049397945404,-0.00535331666469574
1761132794201561000,6.59756103515625,0.018383026123046875,-0.00725836306810379,-0.01974128931760788
1761132794211561000,6.60756103515625,0.02795886993408203,-0.009720124304294586,0.00184553861618042
1761132794221561000,6.61756103515625,0.01598834991455078,-0.004941932857036591,-0.0029605627059936523
1761132794231561000,6.62756103515625,0.025564193725585938,0.002216346561908722,-0.010106578469276428
1761132794241561000,6.63756103515625,0.030351638793945312,-0.00019241869449615479,-0.007658571004867554
1761132794251561000,6.64756103515625,0.030350685119628906,-0.00016123801469802856,-0.0075631290674209595
1761132794261561900,6.657561767578125,0.030348777770996094,-0.0001746639609336853,-0.002677738666534424
1761132794271561700,6.667561767578125,0.03753089904785156,-0.00020113587379455566,-0.024233058094978333
1761132794281561900,6.677561767578125,0.02077198028564453,0.004577793180942535,-0.0003080219030380249
1761132794291561700,6.687561767578125,0.006407737731933594,-0.0050207749009132385,-0.012357652187347412
1761132794301561900,6.697561767578125,0.020771026611328125,-0.02665296196937561,-0.009872213006019592
1761132794311561700,6.707561767578125,0.01598072052001953,0.0020182281732559204,-0.00024023652076721191
1761132794321561900,6.717561767578125,0.01837444305419922,-0.01476617157459259,-0.004992634057998657
1761132794331561700,6.727561767578125,0.02077007293701172,-0.005209967494010925,0.011689022183418274
1761132794341561900,6.737561767578125,0.01597881317138672,-0.0028901323676109314,-0.004961878061294556
1761132794351561700,6.747561767578125,0.03513526916503906,-0.002797156572341919,0.0069345831871032715
1761132794361561000,6.75756103515625,0.018375396728515625,0.002097688615322113,-0.005006372928619385
1761132794371561000,6.76756103515625,0.020769119262695312,0.011775374412536621,0.002276793122291565
1761132794381561000,6.77756103515625,0.023161888122558594,0.004577629268169403,-0.012035056948661804
1761132794391561000,6.78756103515625,0.03273963928222656,-0.007414765655994415,-0.00493071973323822
1761132794401561000,6.79756103515625,0.03513336181640625,-0.009894825518131256,-0.0024887770414352417
1761132794411561000,6.80756103515625,0.02794933319091797,-0.014690272510051727,-0.009644433856010437
1761132794421561000,6.81756103515625,0.027948379516601562,-0.007593594491481781,0.009556770324707031
1761132794431561000,6.82756103515625,0.03513145446777344,-0.002829313278198242,0.007199227809906006
1761132794441561000,6.83756103515625,0.03513050079345703,0.004454165697097778,-0.004671245813369751
1761132794451561000,6.84756103515625,0.030344009399414062,-0.007406003773212433,0.000033408403396606445
1761132794461561900,6.857561767578125,0.02555561065673828,-0.00012267380952835083,-0.007048577070236206
1761132794471561700,6.867561767578125,0.01597881317138672,-0.007270514965057373,0.004903614521026611
1761132794481561900,6.877561767578125,0.027948379516601562,0.002236008644104004,-0.0046787261962890625
1761132794491561700,6.887561767578125,0.027947425842285156,-0.009765572845935822,-0.006966397166252136
1761132794501561900,6.897561767578125,0.015977859497070312,-0.009784102439880371,-0.00460602343082428
1761132794511562000,6.90756201171875,0.018370628356933594,0.01659763604402542,-0.002170190215110779
1761132794521561900,6.917561767578125,0.030343055725097656,-0.00018368661403656006,0.007328048348426819
1761132794531562000,6.92756201171875,0.01837158203125,0.00931248813867569,-0.00706028938293457
1761132794541561900,6.937561767578125,0.02794647216796875,-0.00985456258058548,-0.004569113254547119
1761132794551562000,6.94756201171875,0.032733917236328125,0.018845312297344208,-0.004462599754333496
1761132794561561000,6.95756103515625,0.025552749633789062,-0.03371761739253998,-0.011729717254638672
1761132794571561000,6.96756103515625,0.039917945861816406,-0.009802497923374176,-0.009343147277832031
1761132794581561000,6.97756103515625,0.030341148376464844,-0.0025620236992836,-0.002057507634162903
1761132794591561000,6.98756103515625,0.030340194702148438,0.009510651230812073,-0.0019564777612686157
1761132794601561000,6.99756103515625,0.02315521240234375,0.011818505823612213,0.019638791680336
1761132794611561000,7.00756103515625,0.032733917236328125,0.00700753927230835,0.00519445538520813
1761132794621561000,7.01756103515625,0.027945518493652344,0.004593938589096069,-0.011599421501159668
1761132794631561000,7.02756103515625,0.015974998474121094,-0.00985245406627655,0.007488325238227844
1761132794641561000,7.03756103515625,0.03273487091064453,-0.01221233606338501,0.002680942416191101
1761132794651561000,7.04756103515625,0.0016088485717773438,-0.005043156445026398,0.000383719801902771
1761132794661561900,7.057561767578125,0.032733917236328125,-0.0074033960700035095,0.0027585774660110474
1761132794671562000,7.06756201171875,0.020761489868164062,0.011681929230690002,-0.009174123406410217
1761132794681561900,7.077561767578125,0.027944564819335938,0.0045332834124565125,-0.006799250841140747
1761132794691562000,7.08756201171875,0.02555084228515625,0.002129599452018738,-0.0020278245210647583
1761132794701561900,7.097561767578125,0.02315521240234375,0.0069587379693984985,-0.00430944561958313
1761132794711562000,7.10756201171875,0.023153305053710938,-0.00023730099201202393,-0.01618347316980362
1761132794721561900,7.117561767578125,0.02554798126220703,0.0021917372941970825,0.007739827036857605
1761132794731562000,7.12756201171875,0.015972137451171875,-0.014659278094768524,0.01962721347808838
1761132794741561900,7.137561767578125,0.023153305053710938,-0.01712227612733841,-0.016247786581516266
1761132794751562000,7.14756201171875,0.0327301025390625,-0.0027839690446853638,0.012474998831748962
1761132794761561000,7.15756103515625,0.020758628845214844,-0.00034424662590026855,0.005334004759788513
1761132794771561000,7.16756103515625,0.030336380004882812,-0.0026873648166656494,-0.0018774718046188354
1761132794781561000,7.17756103515625,0.02554798126220703,-0.009894154965877533,-0.011417761445045471
1761132794791561000,7.18756103515625,0.02554607391357422,-0.0027965977787971497,0.007784053683280945
1761132794801561000,7.19756103515625,0.011180877685546875,0.013882756233215332,-0.0018154531717300415
1761132794811561000,7.20756103515625,0.020757675170898438,0.004239954054355621,0.0028961747884750366
1761132794821561000,7.21756103515625,0.030336380004882812,-0.012497037649154663,0.009998515248298645
1761132794831561000,7.22756103515625,0.032729148864746094,0.013885542750358582,-0.00193023681640625
1761132794841561000,7.23756103515625,0.018362998962402344,0.006633788347244263,-0.0018925666809082031
1761132794851561000,7.24756103515625,0.032729148864746094,-0.002909064292907715,0.007664903998374939
1761132794861561900,7.257561767578125,0.030335426330566406,-0.012451030313968658,-0.009113207459449768
1761132794871561700,7.267561767578125,0.01836681365966797,-0.026821717619895935,0.009909257292747498
1761132794881561900,7.277561767578125,0.025548934936523438,0.016318999230861664,-0.0020202696323394775
1761132794891561700,7.287561767578125,0.027945518493652344,0.004430115222930908,0.01460401713848114
1761132794901561900,7.297561767578125,0.0375213623046875,-0.00042706727981567383,-0.01408839225769043
1761132794911561700,7.307561767578125,0.004002571105957031,-0.005224950611591339,0.0074424296617507935
1761132794921561900,7.317561767578125,0.01597309112548828,-0.0004615411162376404,-0.009280934929847717
1761132794931561700,7.327561767578125,0.01597309112548828,0.01866762340068817,0.009908974170684814
1761132794941561900,7.337561767578125,0.02075958251953125,-0.002895265817642212,-0.011585325002670288
1761132794951561700,7.347561767578125,0.025547027587890625,-0.022017695009708405,0.0028753578662872314
1761132794961561000,7.35756103515625,0.044699668884277344,0.009038485586643219,-0.001874670386314392
1761132794971561000,7.36756103515625,0.030336380004882812,0.02115819603204727,-0.01625550538301468
1761132794981561000,7.37756103515625,0.027940750122070312,0.009233072400093079,0.000545889139175415
1761132794991561000,7.38756103515625,0.01836395263671875,-0.00993596762418747,-0.001795157790184021
1761132795001561000,7.39756103515625,0.027940750122070312,-0.009954884648323059,-0.0018293410539627075
1761132795011561000,7.40756103515625,0.01836395263671875,-0.002842254936695099,0.002953767776489258
1761132795021561000,7.41756103515625,0.032729148864746094,-0.002861306071281433,-0.004262953996658325
1761132795031561000,7.42756103515625,0.018362045288085938,0.004247814416885376,-0.011336401104927063
1761132795041561000,7.43756103515625,0.023149490356445312,-0.002906419336795807,-0.004102632403373718
1761132795051561000,7.44756103515625,0.023149490356445312,-0.005264662206172943,-0.018443353474140167
1761132795061561900,7.457561767578125,0.0016021728515625,0.0019081011414527893,0.007875517010688782
1761132795071561700,7.467561767578125,0.023149490356445312,0.0019539818167686462,-0.0256013423204422
1761132795081561900,7.477561767578125,0.02075672149658203,0.001988738775253296,0.005504444241523743
1761132795091561700,7.487561767578125,0.030332565307617188,0.011610761284828186,0.012728452682495117
1761132795101561900,7.497561767578125,0.023149490356445312,-0.012355588376522064,-0.0016001611948013306
1761132795111561700,7.507561767578125,0.032726287841796875,-0.019495025277137756,-0.023150548338890076
1761132795121561900,7.517561767578125,0.037514686584472656,0.002033442258834839,0.0007571578025817871
1761132795131561700,7.527561767578125,0.01836395263671875,-0.01701263338327408,-0.016130603849887848
1761132795141561900,7.537561767578125,0.025548934936523438,-0.012200959026813507,-0.013816028833389282
1761132795151561700,7.547561767578125,0.025549888610839844,-0.007361173629760742,-0.0042679160833358765
1761132795161561000,7.55756103515625,0.023153305053710938,0.023623041808605194,0.01248079538345337
1761132795171561000,7.56756103515625,0.02315521240234375,0.023672647774219513,0.01240837574005127
1761132795181561000,7.57756103515625,0.025547027587890625,0.011556260287761688,0.01251104474067688
1761132795191561000,7.58756103515625,0.030335426330566406,-0.005283482372760773,0.014882341027259827
1761132795201561000,7.59756103515625,0.020758628845214844,-0.0028437674045562744,-0.004229679703712463
1761132795211561000,7.60756103515625,0.020757675170898438,-0.005202308297157288,-0.008993804454803467
1761132795221561000,7.61756103515625,0.013575553894042969,0.016319334506988525,0.0005757063627243042
1761132795231561000,7.62756103515625,0.01596832275390625,0.004334889352321625,-0.01608673483133316
1761132795241561000,7.63756103515625,0.025544166564941406,-0.026870496571063995,0.003043830394744873
1761132795251561000,7.64756103515625,0.006390571594238281,-0.0028821900486946106,0.007874324917793274
1761132795261561900,7.657561767578125,0.032726287841796875,0.004329167306423187,-0.004045158624649048
1761132795271561700,7.667561767578125,0.01836109161376953,-0.024410583078861237,-0.008850619196891785
1761132795281561900,7.677561767578125,0.032726287841796875,0.009098678827285767,-0.006473541259765625
1761132795291561700,7.687561767578125,0.0279388427734375,0.004206828773021698,0.012535303831100464
1761132795301561900,7.697561767578125,0.02315044403076172,-0.0005909278988838196,0.002941429615020752
1761132795311561700,7.707561767578125,0.02075672149658203,-0.0029938146471977234,-0.011440277099609375
1761132795321561900,7.717561767578125,0.025545120239257812,0.004234306514263153,-0.0042160749435424805
1761132795331561700,7.727561767578125,0.011178016662597656,-0.003031723201274872,-0.004124388098716736
1761132795341561900,7.737561767578125,0.013570785522460938,0.020939044654369354,-0.006467074155807495
1761132795351561700,7.747561767578125,0.025544166564941406,0.00415860116481781,0.010214418172836304
1761132795361561000,7.75756103515625,0.027937889099121094,0.011331789195537567,-0.013744786381721497
1761132795371561000,7.76756103515625,0.01357269287109375,0.00657740980386734,-0.008975580334663391
1761132795381561000,7.77756103515625,0.025542259216308594,-0.003018386662006378,-0.00401972234249115
1761132795391561000,7.78756103515625,0.027935028076171875,-0.0007045343518257141,-0.01122523844242096
1761132795401561000,7.79756103515625,0.025541305541992188,0.018441230058670044,0.00556066632270813
1761132795411561000,7.80756103515625,0.027935028076171875,-0.00791090726852417,0.010401949286460876
1761132795421561000,7.81756103515625,0.025541305541992188,-0.0006946548819541931,0.0031998008489608765
1761132795431561000,7.82756103515625,0.01835918426513672,0.008861131966114044,-0.004060730338096619
1761132795441561000,7.83756103515625,0.0183563232421875,0.008777491748332977,-0.0015749037265777588
1761132795451561000,7.84756103515625,0.030328750610351562,0.008821889758110046,0.0032119154930114746
1761132795461561900,7.857561767578125,0.011174201965332031,-0.000887848436832428,0.027116388082504272
1761132795471561700,7.867561767578125,0.049483299255371094,0.008720651268959045,0.003111019730567932
1761132795481561900,7.877561767578125,0.0183563232421875,-0.010500602424144745,0.0055440813302993774
1761132795491561700,7.887561767578125,0.02314472198486328,0.013404518365859985,0.0007304400205612183
1761132795501561900,7.897561767578125,0.023145675659179688,0.008676774799823761,0.0007186681032180786
1761132795511562000,7.90756201171875,0.015962600708007812,-0.0032638683915138245,-0.0039747655391693115
1761132795521561900,7.917561767578125,0.030328750610351562,0.0039522722363471985,0.003188386559486389
1761132795531562000,7.92756201171875,0.02793407440185547,0.006336979568004608,0.003171399235725403
1761132795541561900,7.937561767578125,0.013567924499511719,-0.008052773773670197,-0.006369248032569885
1761132795551561700,7.947561767578125,0.018354415893554688,-0.008127115666866302,-0.0014723092317581177
1761132795561561000,7.95756103515625,0.02553558349609375,-0.005745202302932739,-0.006162911653518677
1761132795571561000,7.96756103515625,0.006381988525390625,-0.010560870170593262,-0.0037766993045806885
1761132795581561000,7.97756103515625,0.006382942199707031,-0.01057947427034378,-0.003810673952102661
1761132795591561000,7.98756103515625,0.025536537170410156,0.006284750998020172,-0.00382407009601593
1761132795601561000,7.99756103515625,0.018355369567871094,-0.0007934123277664185,0.003344789147377014
1761132795611561000,8.00756103515625,0.020748138427734375,0.006419584155082703,0.0034397542476654053
1761132795621560800,8.017560791015624,0.039902687072753906,0.01603037118911743,-0.0013679713010787964
1761132795631561000,8.02756103515625,0.02553844451904297,-0.00552087277173996,0.0009390264749526978
1761132795641560800,8.037560791015625,0.027932167053222656,-0.007814690470695496,-0.006143316626548767
1761132795651561000,8.04756103515625,0.030327796936035156,-0.0006534978747367859,0.0033552348613739014
1761132795661561900,8.057561767578125,0.035114288330078125,-0.0006831809878349304,-0.008508637547492981
1761132795671561700,8.067561767578125,0.02793121337890625,0.0017568394541740417,0.001109987497329712
1761132795681561900,8.077561767578125,0.013566017150878906,-0.0030413493514060974,-0.001301392912864685
1761132795691561700,8.087561767578125,0.011172294616699219,-0.007856301963329315,0.008267760276794434
1761132795701561900,8.097561767578124,0.02074909210205078,0.018458887934684753,-0.008569568395614624
1761132795711561700,8.107561767578124,0.025539398193359375,-0.019851751625537872,0.008102640509605408
1761132795721562000,8.11756201171875,0.03990745544433594,-0.012587510049343109,0.010361433029174805
1761132795731562000,8.12756201171875,0.032723426818847656,0.013668075203895569,-0.006421089172363281
1761132795741562000,8.13756201171875,0.03511810302734375,0.006487168371677399,0.007987722754478455
1761132795751562000,8.14756201171875,0.0231475830078125,0.018492504954338074,-0.015973292291164398
1761132795761561300,8.157561279296875,0.023146629333496094,0.01846832036972046,-0.015936754643917084
1761132795771561200,8.167561279296875,0.035117149353027344,0.025653131306171417,0.015231743454933167
1761132795781561300,8.177561279296874,0.023145675659179688,-0.010223940014839172,-0.011079996824264526
1761132795791561200,8.187561279296874,0.025539398193359375,0.0017216578125953674,0.012897923588752747
1761132795801561300,8.197561279296876,0.020750999450683594,0.0017297416925430298,0.003294706344604492
1761132795811561200,8.207561279296876,0.018357276916503906,-0.0030126571655273438,0.00812499225139618
1761132795821561300,8.217561279296875,0.01596355438232422,0.008939318358898163,0.00090828537940979
1761132795831561200,8.227561279296875,0.023146629333496094,0.013779297471046448,0.003273874521255493
1761132795841561000,8.23756103515625,0.020755767822265625,0.00909973680973053,-0.013613104820251465
1761132795851561200,8.247561279296875,0.020755767822265625,-0.014861613512039185,-0.018435843288898468
1761132795861562000,8.25756201171875,0.032726287841796875,-0.01959894597530365,-0.013676315546035767
1761132795871562000,8.26756201171875,0.027937889099121094,0.01151062548160553,-0.018411211669445038
1761132795881562000,8.27756201171875,0.025544166564941406,-0.007589906454086304,0.017516732215881348
1761132795891562000,8.28756201171875,0.025543212890625,-0.007604166865348816,0.01757073402404785
1761132795901562000,8.29756201171875,0.023149490356445312,0.016388937830924988,-0.011188581585884094
1761132795911562000,8.30756201171875,0.0279388427734375,-0.007501497864723206,0.003148019313812256
1761132795921562000,8.31756201171875,0.02793598175048828,-0.0075734928250312805,0.003300711512565613
1761132795931562000,8.32756201171875,0.025542259216308594,-0.005133777856826782,0.0033423155546188354
1761132795941562000,8.33756201171875,0.027936935424804688,-0.014658994972705841,-0.01823411136865616
1761132795951562000,8.34756201171875,0.006388664245605469,0.009318187832832336,-0.025392726063728333
1761132795971561200,8.367561279296876,0.011178970336914062,-0.007398836314678192,-0.003890290856361389
1761132795981561300,8.377561279296875,0.027936935424804688,-0.01465015858411789,-0.0038521289825439453
1761132795991561200,8.387561279296875,0.030330657958984375,0.01166108250617981,0.0009723156690597534
1761132796001561300,8.397561279296875,0.02793598175048828,-0.009835146367549896,0.017703130841255188
1761132796011561200,8.407561279296875,0.027937889099121094,-0.009784556925296783,0.017673954367637634
1761132796021561000,8.41756103515625,0.02554607391357422,-0.0024365708231925964,-0.015870191156864166
1761132796031561000,8.42756103515625,0.039910316467285156,-0.00011066347360610962,0.0009275376796722412
1761132796041561000,8.43756103515625,0.0279388427734375,0.009446755051612854,-0.0038953274488449097
1761132796051561000,8.44756103515625,0.011178016662597656,-0.007325716316699982,-0.008586406707763672
1761132796061561900,8.457561767578126,0.023148536682128906,-0.0024918019771575928,-0.013333216309547424
1761132796071561700,8.467561767578125,0.023148536682128906,-0.002554945647716522,0.020153269171714783
1761132796081561900,8.477561767578125,0.01836109161376953,-0.0025763511657714844,0.000921398401260376
1761132796091561700,8.487561767578125,0.030332565307617188,-0.00965120643377304,-0.0038361847400665283
1761132796101561900,8.497561767578125,0.044699668884277344,0.0072297751903533936,-0.011042118072509766
1761132796111561700,8.507561767578125,0.03272724151611328,-0.004765845835208893,0.010542094707489014
1761132796121561900,8.517561767578124,0.020755767822265625,0.00242045521736145,-0.001341491937637329
1761132796131561700,8.527561767578124,0.01596832275390625,0.019219115376472473,0.0033568590879440308
1761132796141561900,8.537561767578126,0.020757675170898438,0.004888229072093964,0.0177031010389328
1761132796151561700,8.547561767578125,0.02315235137939453,-0.004680797457695007,-0.0014771223068237305
1761132796161561000,8.55756103515625,0.027940750122070312,0.0025360658764839172,0.0032921582460403442
1761132796171561000,8.56756103515625,0.01836395263671875,-0.01428571343421936,-0.008710697293281555
1761132796181560800,8.577560791015625,0.020757675170898438,-0.01435399055480957,0.008087024092674255
1761132796191561000,8.58756103515625,0.02315235137939453,-0.011980824172496796,-0.011144503951072693
1761132796201561000,8.59756103515625,0.0279388427734375,0.002318084239959717,-0.011062383651733398
1761132796211561000,8.60756103515625,0.0279388427734375,-0.00008596479892730713,0.005679681897163391
1761132796221560800,8.617560791015626,0.03033161163330078,-0.021718181669712067,-0.003806009888648987
1761132796231561000,8.62756103515625,0.032723426818847656,-0.019325852394104004,0.010717108845710754
1761132796241561000,8.63756103515625,0.020751953125,0.009324714541435242,-0.003670737147331238
1761132796251561000,8.64756103515625,0.03272438049316406,0.0045930445194244385,0.001018434762954712
1761132796261561900,8.657561767578125,0.01117706298828125,-0.009851723909378052,0.008178621530532837
1761132796271561700,8.667561767578125,0.04469585418701172,-0.012254901230335236,0.0009793192148208618
1761132796281561900,8.677561767578124,0.013570785522460938,-0.002687588334083557,-0.02058548480272293
1761132796291561700,8.687561767578124,0.020752906799316406,-0.0123419389128685,-0.0038046836853027344
1761132796301561900,8.697561767578126,0.01836109161376953,-0.0003162771463394165,0.0032347291707992554
1761132796311561700,8.707561767578126,0.030332565307617188,-0.012367919087409973,0.005605816841125488
1761132796321561900,8.717561767578125,0.013570785522460938,0.009110614657402039,-0.008721649646759033
1761132796331561700,8.727561767578125,0.027937889099121094,-0.0074837058782577515,-0.006352975964546204
1761132796341561900,8.737561767578125,0.030332565307617188,-0.0003758668899536133,-0.008840560913085938
1761132796351561700,8.747561767578125,0.027936935424804688,-0.00038929283618927,0.012804210186004639
1761132796361560800,8.757560791015624,0.0231475830078125,-0.009973585605621338,0.003254234790802002
1761132796371561000,8.76756103515625,0.015967369079589844,0.0020490065217018127,-0.0015627741813659668
1761132796381560800,8.777560791015626,0.025543212890625,-0.0051490142941474915,-0.0015096068382263184
1761132796391561000,8.78756103515625,0.025543212890625,-0.01474522054195404,0.010426923632621765
1761132796401561000,8.79756103515625,0.01596546173095703,-0.019541427493095398,-0.018276862800121307
1761132796411561000,8.80756103515625,0.03990745544433594,-0.014822997152805328,-0.008705362677574158
1761132796421561000,8.81756103515625,0.013569831848144531,-0.0076475366950035095,-0.006283983588218689
1761132796431561000,8.82756103515625,0.03032970428466797,-0.0052073001861572266,-0.015818901360034943
1761132796441561000,8.83756103515625,0.023146629333496094,0.006754972040653229,-0.0014278292655944824
1761132796451561000,8.84756103515625,0.04469490051269531,-0.005181983113288879,0.0009471774101257324
1761132796461561900,8.857561767578124,0.030330657958984375,-0.0003975182771682739,0.0032538920640945435
1761132796481561900,8.877561767578126,0.020753860473632812,0.006823539733886719,0.005716666579246521
1761132796491561700,8.887561767578125,0.01596546173095703,-0.0027605965733528137,-0.01101599633693695
1761132796501561900,8.897561767578125,0.01835918426513672,-0.012357942759990692,0.008059963583946228
1761132796511562000,8.90756201171875,0.023146629333496094,-0.005241759121417999,-0.015799857676029205
1761132796521561900,8.917561767578125,0.023146629333496094,-0.005262382328510284,-0.01587764173746109
1761132796531562000,8.92756201171875,0.027936935424804688,0.014012813568115234,-0.006324142217636108
1761132796541561900,8.937561767578124,0.006388664245605469,0.006805725395679474,0.0008947849273681641
1761132796551561700,8.947561767578126,0.020753860473632812,-0.024328745901584625,0.003271639347076416
1761132796561561000,8.95756103515625,0.037514686584472656,-0.005123160779476166,-0.013516023755073547
1761132796571561000,8.96756103515625,0.011178016662597656,0.009278357028961182,-0.003914400935173035
1761132796581561000,8.97756103515625,0.01836109161376953,0.009274870157241821,0.0007866770029067993
1761132796591561000,8.98756103515625,0.02315044403076172,0.009265534579753876,0.010346412658691406
1761132796601561000,8.99756103515625,0.020757675170898438,-0.01702003926038742,-0.006442025303840637
1761132796611561000,9.00756103515625,0.032729148864746094,-0.005015075206756592,0.024663269519805908
1761132796621561000,9.01756103515625,0.02554607391357422,0.002104826271533966,0.007871687412261963
1761132796631561000,9.02756103515625,0.02315235137939453,-0.0074814558029174805,-0.013693124055862427
1761132796641561000,9.03756103515625,0.027937889099121094,0.0020110607147216797,-0.015996284782886505
1761132796651561000,9.04756103515625,0.020755767822265625,-0.0075735896825790405,0.00797221064567566
1761132796661561900,9.057561767578125,0.03033161163330078,-0.007571026682853699,0.0008338391780853271
1761132796671561700,9.067561767578125,0.02793598175048828,-0.01483248919248581,-0.008722350001335144
1761132796681561900,9.077561767578125,0.01596546173095703,0.0019179433584213257,0.0032319724559783936
1761132796691561700,9.087561767578125,0.023146629333496094,-0.010021895170211792,-0.006249383091926575
1761132796701561900,9.097561767578124,0.013569831848144531,0.011644437909126282,-0.008552327752113342
1761132796711561700,9.107561767578124,0.023148536682128906,-0.0001604706048965454,-0.006182730197906494
1761132796721561900,9.117561767578126,0.03272438049316406,0.00702463835477829,0.01062077283859253
1761132796731561700,9.127561767578126,0.025541305541992188,0.004552960395812988,-0.006117105484008789
1761132796741561900,9.137561767578125,0.023145675659179688,0.021296940743923187,-0.02042914181947708
1761132796751561700,9.147561767578125,0.03990650177001953,0.014166288077831268,-0.0013037919998168945
1761132796761561000,9.15756103515625,0.03032970428466797,-0.0001625344157218933,0.003509238362312317
1761132796771561000,9.16756103515625,0.03511810302734375,0.002234242856502533,-0.0012349486351013184
1761132796781561000,9.17756103515625,0.030328750610351562,-0.0241808220744133,0.0011798888444900513
1761132796791561000,9.18756103515625,0.020751953125,0.0021460503339767456,0.0011628121137619019
1761132796801560800,9.197560791015626,0.020752906799316406,-0.007379591464996338,-0.001260116696357727
1761132796811561000,9.20756103515625,0.015962600708007812,0.004577994346618652,-0.0011631548404693604
1761132796821560800,9.217560791015625,-0.0007953643798828125,-0.004959285259246826,0.013112246990203857
1761132796831561000,9.22756103515625,0.035117149353027344,0.00460246205329895,0.005983129143714905
1761132796841560800,9.237560791015625,0.013569831848144531,0.002259857952594757,0.0035603195428848267
1761132796851561000,9.24756103515625,0.018358230590820312,0.007028847932815552,-0.0060509443283081055
1761132796861561900,9.257561767578125,0.030330657958984375,-0.004835344851016998,0.010738864541053772
1761132796871561700,9.267561767578124,0.02793598175048828,-0.007240183651447296,-0.01082676649093628
1761132796881561900,9.277561767578124,0.03272533416748047,0.007176101207733154,-0.006067261099815369
1761132796891561700,9.287561767578126,0.0231475830078125,0.007168754935264587,0.008324697613716125
1761132796901561900,9.297561767578125,0.03033161163330078,-0.004767924547195435,-0.001271069049835205
1761132796911561700,9.307561767578125,0.03272438049316406,-0.007230497896671295,0.0011612921953201294
1761132796921561900,9.317561767578125,0.020752906799316406,-0.012081757187843323,-0.013236016035079956
1761132796931561700,9.327561767578125,0.01835918426513672,0.0071178823709487915,-0.001223146915435791
1761132796941561900,9.337561767578125,0.025542259216308594,-0.002408266067504883,0.008324623107910156
1761132796951561700,9.347561767578124,0.03511810302734375,0.011944025754928589,0.0084218829870224
1761132796961560800,9.357560791015626,0.00878143310546875,-0.016805507242679596,0.0059934258460998535
1761132796971561000,9.36756103515625,0.025542259216308594,-0.002324230968952179,0.0012523382902145386
1761132796981561000,9.37756103515625,0.03272438049316406,0.0024439767003059387,-0.00835941731929779
1761132796991561000,9.38756103515625,0.039908409118652344,-0.004742898046970367,-0.006053045392036438
1761132797001561000,9.39756103515625,0.01357269287109375,0.002429857850074768,-0.006070375442504883
1761132797011561000,9.40756103515625,0.027937889099121094,-0.007040858268737793,-0.01322329044342041
1761132797021561000,9.41756103515625,0.011178970336914062,0.009699501097202301,-0.006074801087379456
1761132797031561000,9.42756103515625,0.023151397705078125,-0.0021606162190437317,0.005812600255012512
1761132797041561000,9.43756103515625,0.03272724151611328,-0.00941120833158493,-0.00851409137248993
1761132797051561000,9.44756103515625,0.030332565307617188,-0.00943533331155777,0.003493577241897583
1761132797061561900,9.457561767578126,0.027937889099121094,0.009720847010612488,-0.01800999790430069
1761132797071561700,9.467561767578125,0.01836109161376953,-0.016634345054626465,-0.008467510342597961
1761132797081561900,9.477561767578125,0.030330657958984375,-0.009525738656520844,-0.003570243716239929
1761132797091561700,9.487561767578125,0.032726287841796875,0.012132473289966583,0.005922660231590271
1761132797101561900,9.497561767578125,0.025542259216308594,0.007386498153209686,-0.010680541396141052
1761132797111561700,9.507561767578125,0.027936935424804688,0.004990808665752411,-0.010724082589149475
1761132797121561900,9.517561767578124,0.015967369079589844,-0.02131108194589615,-0.0011662393808364868
1761132797131561700,9.527561767578124,0.011178016662597656,0.005026914179325104,0.006060093641281128
1761132797141561900,9.537561767578126,0.0231475830078125,-0.009345367550849915,-0.00827816128730774
1761132797151561700,9.547561767578125,0.6408510208129883,-0.07886061817407608,0.16898445785045624
1761132797161561000,9.55756103515625,0.0997467041015625,0.004541933536529541,-0.16542202234268188
1761132797171561200,9.567561279296875,-0.7098293304443359,0.10592547059059143,-0.15554998815059662
1761132797181561000,9.57756103515625,-0.9541473388671875,0.15158295631408691,-0.21840134263038635
1761132797191561000,9.58756103515625,0.6622524261474609,-0.2159092128276825,0.6282284259796143
1761132797201561000,9.59756103515625,0.38991832733154297,-0.029904916882514954,-0.023630991578102112
