time,seconds_elapsed,z,y,x
1761131738616268500,0.1192685546875,0.022831087931990623,-0.008170322515070438,-0.01366810966283083
1761131738626250500,0.12925048828125,0.022831087931990623,-0.008170322515070438,-0.01366810966283083
1761131738656287000,0.159286865234375,0.022831087931990623,-0.008170322515070438,-0.01366810966283083
1761131738666293800,0.169293701171875,0.021609358489513397,0.012599095702171326,0.0541379339993
1761131738676299300,0.17929931640625,0.01794416643679142,0.012599095702171326,0.04680754989385605
1761131738686303700,0.1893037109375,0.016722436994314194,0.015042556449770927,0.03764457255601883
1761131738696307500,0.199307373046875,0.01488984003663063,0.015042556449770927,0.03153591975569725
1761131738706311000,0.209310791015625,0.00939205288887024,0.016264287754893303,0.03703370690345764
1761131738716313900,0.21931396484375,-0.00038179077091626823,0.016264287754893303,0.04375322163105011
1761131738726316800,0.22931689453125,-0.006490443367511034,0.016264287754893303,0.0443640872836113
1761131738736319200,0.2393193359375,-0.006490443367511034,0.014431691728532314,0.038866300135850906
1761131738746321400,0.2493212890625,-0.0009926559869199991,0.005268712528049946,0.0339793786406517
1761131738756323600,0.259323486328125,0.004505131393671036,-0.0032834007870405912,0.025427265092730522
1761131738766325500,0.269325439453125,0.007559457328170538,-0.005115996580570936,0.02054034359753132
1761131738776327200,0.2793271484375,0.014278975315392017,0.00038179077091626823,0.014431691728532314
1761131738786328800,0.289328857421875,0.019776761531829834,0.00038179077091626823,0.014431691728532314
1761131738796330500,0.29933056640625,0.024052819237113,-0.00022907447419129312,0.016264287754893303
1761131738806332200,0.309332275390625,0.02099849283695221,0.004046982154250145,0.016264287754893303
1761131738816333600,0.31933349609375,0.008170322515070438,0.006490443367511034,0.011377365328371525
1761131738826335000,0.3293349609375,-0.006490443367511034,0.002825251780450344,0.010155634954571724
1761131738836336000,0.339336181640625,-0.012599095702171326,-0.0014508049935102463,0.013209961354732513
1761131738846336300,0.349336181640625,-0.012599095702171326,-0.00022907447419129312,0.021151209250092506
1761131738856337400,0.35933740234375,-0.011377365328371525,0.0022143865935504436,0.03153591975569725
1761131738866338600,0.369338623046875,-0.015653422102332115,0.004046982154250145,0.03153591975569725
1761131738876339500,0.37933935546875,-0.01687515154480934,0.002825251780450344,0.02603813074529171
1761131738886340600,0.389340576171875,-0.015653422102332115,0.00038179077091626823,0.02054034359753132
1761131738896341500,0.399341552734375,-0.012599095702171326,-0.002672535367310047,0.011377365328371525
1761131738906342700,0.4093427734375,-0.007712173741310835,-0.002672535367310047,0.008323038928210735
1761131738916343600,0.419343505859375,-0.0022143865935504436,-0.005115996580570936,0.010766499675810337
1761131738926344400,0.429344482421875,-0.0034361169673502445,-0.0038942659739404917,0.013820826075971127
1761131738936344300,0.43934423828125,-0.006490443367511034,0.0009926559869199991,0.018707748502492905
1761131738946345200,0.44934521484375,-0.010766499675810337,0.0034361169673502445,0.024205535650253296
1761131738956345300,0.459345458984375,-0.01687515154480934,0.004046982154250145,0.029703322798013687
1761131738966345200,0.46934521484375,-0.02054034359753132,0.0034361169673502445,0.027870727702975273
1761131738976345300,0.479345458984375,-0.022372938692569733,0.007712173741310835,0.021151209250092506
1761131738986345200,0.48934521484375,-0.02054034359753132,0.008323038928210735,0.013209961354732513
1761131738996345300,0.499345458984375,-0.01687515154480934,0.005879578180611134,0.0071013085544109344
1761131739006345200,0.50934521484375,-0.011988230049610138,-0.005115996580570936,0.004657847341150045
1761131739016345300,0.519345458984375,-0.011377365328371525,-0.02038762718439102,0.006490443367511034
1761131739026345200,0.52934521484375,-0.0071013085544109344,-0.027718011289834976,0.007712173741310835
1761131739036345300,0.539345458984375,-0.005879578180611134,-0.025885414332151413,0.009544769302010536
1761131739046311200,0.549311279296875,-0.006490443367511034,-0.024052819237113,0.015042556449770927
1761131739056277800,0.55927783203125,-0.009544769302010536,-0.01366810966283083,0.027259862050414085
1761131739066244400,0.569244384765625,-0.010155634954571724,-0.0038942659739404917,0.04253149405121803
1761131739076211200,0.579211181640625,-0.009544769302010536,0.004046982154250145,0.04986187443137169
1761131739086177800,0.589177734375,-0.008933904580771923,0.002825251780450344,0.05047274008393288
1761131739096144400,0.599144287109375,-0.008933904580771923,0.002825251780450344,0.03703370690345764
1761131739106111000,0.609111083984375,-0.005879578180611134,-0.000839939690195024,0.015042556449770927
1761131739116077800,0.619077880859375,0.0014508049935102463,-0.008170322515070438,-0.0020616701804101467
1761131739126044400,0.62904443359375,0.005726861767470837,-0.015500705689191818,-0.010002918541431427
1761131739136011000,0.639010986328125,0.011224648915231228,-0.011835514567792416,-0.011835514567792416
1761131739145978600,0.648978515625,0.010002918541431427,-0.01061378326267004,-0.00939205288887024
1761131739155945200,0.6589453125,0.002672535367310047,-0.008781188167631626,-0.0032834007870405912
1761131739165912000,0.668912109375,-0.005268712528049946,-0.006337726954370737,-0.0014508049935102463
1761131739175878700,0.678878662109375,-0.007712173741310835,0.0016035212902352214,-0.005726861767470837
1761131739185845200,0.68884521484375,-0.005268712528049946,0.011377365328371525,-0.012446379289031029
1761131739195811800,0.698811767578125,-0.0009926559869199991,0.015042556449770927,-0.008170322515070438
1761131739205778700,0.70877880859375,0.00939205288887024,0.014431691728532314,-0.004505131393671036
1761131739215745300,0.718745361328125,0.01794416643679142,0.011988230049610138,-0.013057244941592216
1761131739225711900,0.7287119140625,0.02099849283695221,0.004046982154250145,-0.02955060638487339
1761131739235678700,0.7386787109375,0.022831087931990623,-0.005726861767470837,-0.03810271993279457
1761131739245644500,0.74864453125,0.02038762718439102,-0.013057244941592216,-0.04482223838567734
1761131739255611100,0.758611083984375,0.017333300784230232,-0.011224648915231228,-0.05337435007095337
1761131739265577700,0.76857763671875,0.015500705689191818,0.00038179077091626823,-0.05887213721871376
1761131739275544300,0.77854443359375,0.019165897741913795,0.008323038928210735,-0.060093868523836136
1761131739285511000,0.788510986328125,0.0264962799847126,0.007712173741310835,-0.05032002553343773
1761131739295477800,0.798477783203125,0.028939740732312202,0.005268712528049946,-0.03871358558535576
1761131739305444400,0.8084443359375,0.025274548679590225,0.011377365328371525,-0.03321579843759537
1761131739315411000,0.818410888671875,0.018555032089352608,0.011377365328371525,-0.033826664090156555
1761131739325377800,0.828377685546875,0.008781188167631626,0.01687515154480934,-0.027718011289834976
1761131739335344400,0.838344482421875,0.005726861767470837,0.027870727702975273,-0.016722436994314194
1761131739345345300,0.84834521484375,0.0032834007870405912,0.036422841250896454,-0.002672535367310047
1761131739355345200,0.85834521484375,0.0032834007870405912,0.036422841250896454,0.010766499675810337
1761131739365345300,0.86834521484375,-0.00038179077091626823,0.021151209250092506,0.016264287754893303
1761131739375345200,0.87834521484375,-0.00038179077091626823,0.010766499675810337,0.005879578180611134
1761131739385345300,0.88834521484375,-0.0016035212902352214,0.008323038928210735,-0.011835514567792416
1761131739395345200,0.89834521484375,-0.0071013085544109344,0.005268712528049946,-0.022220224142074585
1761131739405345300,0.90834521484375,-0.009544769302010536,0.002825251780450344,-0.016111571341753006
1761131739415345200,0.91834521484375,-0.011988230049610138,0.0009926559869199991,0.0009926559869199991
1761131739425345300,0.92834521484375,-0.008933904580771923,0.008323038928210735,0.01992947794497013
1761131739435345200,0.93834521484375,-0.008323038928210735,0.015042556449770927,0.0290924571454525
1761131739445344500,0.948344482421875,-0.014431691728532314,0.022372938692569733,0.030314188450574875
1761131739455344400,0.958344482421875,-0.02054034359753132,0.027259862050414085,0.021762074902653694
1761131739465344500,0.968344482421875,-0.021762074902653694,0.02054034359753132,0.010155634954571724
1761131739475344400,0.978344482421875,-0.021762074902653694,0.010155634954571724,0.00038179077091626823
1761131739485344500,0.988344482421875,-0.019318614155054092,0.0022143865935504436,-0.0038942659739404917
1761131739495344400,0.998344482421875,-0.019318614155054092,-0.0032834007870405912,-0.011835514567792416
1761131739505344500,1.008344482421875,-0.02603813074529171,-0.004505131393671036,-0.02344195358455181
1761131739515344400,1.018344482421875,-0.03275764733552933,-0.00022907447419129312,-0.03260493278503418
1761131739525344500,1.028344482421875,-0.03153591975569725,0.005879578180611134,-0.03199406713247299
1761131739535344400,1.038344482421875,-0.0290924571454525,0.007712173741310835,-0.025274548679590225
1761131739545345300,1.04834521484375,-0.023594669997692108,0.009544769302010536,-0.012446379289031029
1761131739555345200,1.05834521484375,-0.021151209250092506,0.008323038928210735,-0.0020616701804101467
1761131739565345300,1.06834521484375,-0.023594669997692108,0.005879578180611134,0.0009926559869199991
1761131739575345200,1.07834521484375,-0.02603813074529171,0.005268712528049946,0.00038179077091626823
1761131739585345300,1.08834521484375,-0.02603813074529171,0.004046982154250145,-0.002672535367310047
1761131739595345400,1.098345458984375,-0.030314188450574875,0.0022143865935504436,-0.00939205288887024
1761131739605345300,1.10834521484375,-0.027870727702975273,-0.000839939690195024,-0.011224648915231228
1761131739615345400,1.118345458984375,-0.023594669997692108,-0.005115996580570936,-0.00939205288887024
1761131739625345300,1.12834521484375,-0.018096882849931717,-0.008781188167631626,-0.00939205288887024
1761131739635345400,1.138345458984375,-0.018096882849931717,-0.01366810966283083,-0.011224648915231228
1761131739645344300,1.14834423828125,-0.025427265092730522,-0.016722436994314194,-0.013057244941592216
1761131739655344400,1.158344482421875,-0.03459024429321289,-0.018555032089352608,-0.010002918541431427
1761131739665344500,1.168344482421875,-0.03459024429321289,-0.02038762718439102,-0.0032834007870405912
1761131739675344400,1.178344482421875,-0.030925052240490913,-0.019776761531829834,0.006490443367511034
1761131739685344300,1.18834423828125,-0.027870727702975273,-0.011835514567792416,0.012599095702171326
1761131739695344400,1.198344482421875,-0.02603813074529171,-0.0014508049935102463,0.014431691728532314
1761131739705344300,1.20834423828125,-0.024205535650253296,0.005879578180611134,0.018707748502492905
1761131739715344400,1.218344482421875,-0.021762074902653694,0.008933904580771923,0.027870727702975273
1761131739725344300,1.22834423828125,-0.013820826075971127,0.005268712528049946,0.036422841250896454
1761131739735344400,1.238344482421875,-0.009544769302010536,0.0016035212902352214,0.036422841250896454
1761131739745345000,1.248344970703125,-0.010155634954571724,-0.0032834007870405912,0.02603813074529171
1761131739755345200,1.25834521484375,-0.009544769302010536,-0.01061378326267004,0.016264287754893303
1761131739765345300,1.26834521484375,-0.007712173741310835,-0.013057244941592216,0.013209961354732513
1761131739775345200,1.27834521484375,-0.004657847341150045,-0.01061378326267004,0.015653422102332115
1761131739785345300,1.28834521484375,-0.004046982154250145,-0.014278975315392017,0.02054034359753132
1761131739795345200,1.29834521484375,-0.005268712528049946,-0.015500705689191818,0.027870727702975273
1761131739805345300,1.30834521484375,-0.011988230049610138,-0.013057244941592216,0.03275764733552933
1761131739815345200,1.31834521484375,-0.013820826075971127,-0.004505131393671036,0.033368512988090515
1761131739825345300,1.32834521484375,0.00022907447419129312,0.010155634954571724,0.033368512988090515
1761131739835345200,1.33834521484375,0.005726861767470837,0.01992947794497013,0.030925052240490913
1761131739845344500,1.348344482421875,0.012446379289031029,0.021762074902653694,0.0290924571454525
1761131739855344400,1.358344482421875,0.019165897741913795,0.01687515154480934,0.0290924571454525
1761131739865344000,1.368343994140625,0.022831087931990623,0.0034361169673502445,0.021151209250092506
1761131739875344100,1.37834423828125,0.019165897741913795,-0.0014508049935102463,0.005879578180611134
1761131739885344000,1.388343994140625,0.01488984003663063,-0.0014508049935102463,-0.00939205288887024
1761131739895344000,1.39834423828125,0.011835514567792416,-0.005726861767470837,-0.02099849283695221
1761131739905344000,1.408343994140625,0.00939205288887024,-0.002672535367310047,-0.022220224142074585
1761131739915344100,1.41834423828125,0.007559457328170538,-0.00022907447419129312,-0.014278975315392017
1761131739925344000,1.428343994140625,0.006337726954370737,0.0071013085544109344,-0.002672535367310047
1761131739935344000,1.43834423828125,0.005726861767470837,0.02054034359753132,0.005879578180611134
1761131739945345000,1.448344970703125,0.0032834007870405912,0.029703322798013687,0.008323038928210735
1761131739955345000,1.458344970703125,0.0014508049935102463,0.03153591975569725,0.0071013085544109344
1761131739965345000,1.468344970703125,0.005115996580570936,0.027870727702975273,0.0022143865935504436
1761131739975345000,1.478344970703125,0.005726861767470837,0.014431691728532314,-0.01061378326267004
1761131739985344800,1.4883447265625,0.004505131393671036,0.0071013085544109344,-0.021609358489513397
1761131739995345000,1.498344970703125,0.002672535367310047,0.0071013085544109344,-0.030161472037434578
1761131740005344800,1.5083447265625,0.0038942659739404917,0.012599095702171326,-0.03443752974271774
1761131740015345000,1.518344970703125,0.000839939690195024,0.022372938692569733,-0.03321579843759537
1761131740025345000,1.528344970703125,-0.004046982154250145,0.026648996397852898,-0.02099849283695221
1761131740035345000,1.538344970703125,-0.005879578180611134,0.021762074902653694,-0.010002918541431427
1761131740045344000,1.548343994140625,-0.004046982154250145,0.01748601719737053,-0.01061378326267004
1761131740055344000,1.55834423828125,-0.004046982154250145,0.015042556449770927,-0.019776761531829834
1761131740065344000,1.568343994140625,-0.0016035212902352214,0.0071013085544109344,-0.030161472037434578
1761131740075344100,1.57834423828125,0.0020616701804101467,0.004657847341150045,-0.019776761531829834
1761131740088218000,1.591218017578125,0.0020616701804101467,0.006490443367511034,-0.01061378326267004
1761131740098218000,1.601218017578125,-0.0009926559869199991,0.018096882849931717,-0.01061378326267004
1761131740108218000,1.611218017578125,-0.006490443367511034,0.022372938692569733,-0.013057244941592216
1761131740118218000,1.621218017578125,-0.009544769302010536,0.013820826075971127,-0.014278975315392017
1761131740128218000,1.631218017578125,-0.010155634954571724,0.005268712528049946,-0.02099849283695221
1761131740138218000,1.641218017578125,-0.0071013085544109344,0.004046982154250145,-0.030772335827350616
1761131740148219000,1.651218994140625,-0.0071013085544109344,0.0016035212902352214,-0.04237877577543259
1761131740158218800,1.66121875,-0.007712173741310835,-0.0032834007870405912,-0.04970915988087654
1761131740168219100,1.67121923828125,-0.006490443367511034,-0.0020616701804101467,-0.04482223838567734
1761131740178219000,1.681218994140625,-0.0022143865935504436,0.0034361169673502445,-0.03749185428023338
1761131740188219100,1.69121923828125,-0.00038179077091626823,0.016264287754893303,-0.030772335827350616
1761131740198219000,1.701218994140625,-0.008323038928210735,0.02054034359753132,-0.025885414332151413
1761131740208219100,1.71121923828125,-0.011988230049610138,0.018096882849931717,-0.022220224142074585
1761131740218219000,1.721218994140625,-0.009544769302010536,0.015653422102332115,-0.021609358489513397
1761131740228219100,1.73121923828125,-0.008933904580771923,0.013820826075971127,-0.021609358489513397
1761131740238219000,1.741218994140625,-0.010766499675810337,0.008933904580771923,-0.018555032089352608
1761131740248218400,1.75121826171875,-0.011988230049610138,0.004657847341150045,-0.01488984003663063
1761131740258218200,1.76121826171875,-0.008323038928210735,-0.0020616701804101467,-0.012446379289031029
1761131740268218400,1.77121826171875,-0.006490443367511034,-0.011224648915231228,-0.015500705689191818
1761131740278218200,1.78121826171875,-0.0071013085544109344,-0.01366810966283083,-0.025885414332151413
1761131740288218400,1.79121826171875,-0.010155634954571724,-0.015500705689191818,-0.03627012297511101
1761131740298218200,1.80121826171875,-0.010766499675810337,-0.019776761531829834,-0.039935316890478134
1761131740308218400,1.81121826171875,-0.010155634954571724,-0.019165897741913795,-0.03565925732254982
1761131740318218200,1.82121826171875,-0.011988230049610138,-0.01366810966283083,-0.025274548679590225
1761131740328218400,1.83121826171875,-0.01687515154480934,-0.008781188167631626,-0.013057244941592216
1761131740338218200,1.84121826171875,-0.016264287754893303,-0.0014508049935102463,-0.006337726954370737
1761131740348219100,1.85121923828125,-0.012599095702171326,0.0034361169673502445,-0.0020616701804101467
1761131740358219000,1.861218994140625,-0.0071013085544109344,0.006490443367511034,0.002825251780450344
1761131740368219100,1.87121923828125,-0.004046982154250145,0.005268712528049946,0.005879578180611134
1761131740378219000,1.881218994140625,-0.0009926559869199991,0.0009926559869199991,0.005879578180611134
1761131740388219100,1.89121923828125,-0.0016035212902352214,-0.00939205288887024,0.0009926559869199991
1761131740398219000,1.901218994140625,-0.005879578180611134,-0.015500705689191818,-0.00939205288887024
1761131740408219100,1.91121923828125,-0.010155634954571724,-0.016722436994314194,-0.015500705689191818
1761131740418219300,1.92121923828125,-0.010155634954571724,-0.01794416643679142,-0.011224648915231228
1761131740428219100,1.93121923828125,-0.0071013085544109344,-0.025885414332151413,-0.0038942659739404917
1761131740438219300,1.94121923828125,-0.010155634954571724,-0.0264962799847126,0.004657847341150045
1761131740448218400,1.95121826171875,-0.010766499675810337,-0.02038762718439102,0.015653422102332115
1761131740458218200,1.96121826171875,-0.005268712528049946,-0.011224648915231228,0.024205535650253296
1761131740468218400,1.97121826171875,-0.00038179077091626823,0.0016035212902352214,0.030314188450574875
1761131740478218200,1.98121826171875,0.004505131393671036,0.010155634954571724,0.03214678168296814
1761131740488218400,1.99121826171875,0.010002918541431427,0.010155634954571724,0.024816401302814484
1761131740498218200,2.00121826171875,0.015500705689191818,0.004657847341150045,0.019318614155054092
1761131740508218400,2.01121826171875,0.017333300784230232,-0.005726861767470837,0.010155634954571724
1761131740518218200,2.02121826171875,0.016111571341753006,-0.016722436994314194,-0.002672535367310047
1761131740528218400,2.03121826171875,0.008170322515070438,-0.028328875079751015,-0.025885414332151413
1761131740538218200,2.04121826171875,0.0020616701804101467,-0.028939740732312202,-0.036880988627672195
1761131740548219100,2.05121923828125,0.0032834007870405912,-0.028328875079751015,-0.030772335827350616
1761131740558219300,2.06121923828125,0.004505131393671036,-0.024663684889674187,-0.016111571341753006
1761131740568219100,2.07121923828125,0.005726861767470837,-0.01061378326267004,0.002825251780450344
1761131740578219300,2.08121923828125,0.0038942659739404917,0.004046982154250145,0.019318614155054092
1761131740588219100,2.09121923828125,0.0038942659739404917,0.009544769302010536,0.030925052240490913
1761131740598219300,2.10121923828125,0.008170322515070438,0.009544769302010536,0.03214678168296814
1761131740608219100,2.11121923828125,0.01366810966283083,0.005879578180611134,0.024205535650253296
1761131740618219300,2.12121923828125,0.019165897741913795,0.002825251780450344,0.0071013085544109344
1761131740628219100,2.13121923828125,0.019776761531829834,-0.002672535367310047,-0.010002918541431427
1761131740638219300,2.14121923828125,0.014278975315392017,-0.004505131393671036,-0.014278975315392017
1761131740648218400,2.15121826171875,0.00939205288887024,-0.005726861767470837,-0.011835514567792416
1761131740658218500,2.161218505859375,0.008170322515070438,-0.004505131393671036,-0.0069485921412706375
1761131740668218400,2.17121826171875,0.00939205288887024,0.0009926559869199991,-0.0038942659739404917
1761131740678218500,2.181218505859375,0.008170322515070438,0.004046982154250145,-0.005726861767470837
1761131740688218400,2.19121826171875,0.006337726954370737,0.004657847341150045,-0.008781188167631626
1761131740698218500,2.201218505859375,0.008170322515070438,0.0022143865935504436,-0.01061378326267004
1761131740708218400,2.21121826171875,0.011835514567792416,-0.0014508049935102463,-0.007559457328170538
1761131740718218200,2.22121826171875,0.01366810966283083,-0.0020616701804101467,-0.002672535367310047
1761131740728218400,2.23121826171875,0.016111571341753006,-0.000839939690195024,-0.000839939690195024
1761131740738218200,2.24121826171875,0.017333300784230232,0.0009926559869199991,-0.000839939690195024
1761131740748219100,2.25121923828125,0.015500705689191818,0.0034361169673502445,-0.0020616701804101467
1761131740758219300,2.26121923828125,0.014278975315392017,-0.0014508049935102463,-0.005726861767470837
1761131740768219100,2.27121923828125,0.010002918541431427,-0.007559457328170538,-0.01061378326267004
1761131740778219300,2.28121923828125,0.0069485921412706375,-0.008170322515070438,-0.01488984003663063
1761131740788219100,2.29121923828125,0.005726861767470837,-0.0038942659739404917,-0.016111571341753006
1761131740798219300,2.30121923828125,0.0069485921412706375,-0.005115996580570936,-0.018555032089352608
1761131740808219100,2.31121923828125,0.0020616701804101467,-0.0069485921412706375,-0.019776761531829834
1761131740818219300,2.32121923828125,0.0020616701804101467,-0.0038942659739404917,-0.01488984003663063
1761131740828219100,2.33121923828125,0.006337726954370737,0.0016035212902352214,-0.008170322515070438
1761131740838219300,2.34121923828125,0.005726861767470837,0.005879578180611134,-0.0014508049935102463
1761131740848218400,2.35121826171875,0.000839939690195024,0.013209961354732513,0.004046982154250145
1761131740858218500,2.361218505859375,-0.0016035212902352214,0.01687515154480934,0.007712173741310835
1761131740868218400,2.37121826171875,0.0020616701804101467,0.015653422102332115,0.0034361169673502445
1761131740878218500,2.381218505859375,0.005115996580570936,0.013209961354732513,-0.002672535367310047
1761131740888218400,2.39121826171875,0.0038942659739404917,0.008323038928210735,0.00038179077091626823
1761131740898218500,2.401218505859375,0.0020616701804101467,0.004046982154250145,0.0071013085544109344
1761131740908218400,2.41121826171875,0.00022907447419129312,0.004046982154250145,0.005268712528049946
1761131740918218200,2.42121826171875,0.00022907447419129312,0.00038179077091626823,-0.005115996580570936
1761131740928218400,2.43121826171875,-0.0034361169673502445,-0.01061378326267004,-0.017333300784230232
1761131740938218200,2.44121826171875,-0.005268712528049946,-0.022220224142074585,-0.02955060638487339
1761131740948219100,2.45121923828125,-0.004046982154250145,-0.024663684889674187,-0.03504839166998863
1761131740958219300,2.46121923828125,-0.004046982154250145,-0.01794416643679142,-0.03443752974271774
1761131740998219300,2.50121923828125,-0.015042556449770927,0.015042556449770927,0.008933904580771923
1761131741008219100,2.51121923828125,-0.008323038928210735,0.009544769302010536,0.011988230049610138
1761131741018219300,2.52121923828125,-0.0016035212902352214,0.008323038928210735,0.012599095702171326
1761131741028219100,2.53121923828125,0.0014508049935102463,0.009544769302010536,0.010155634954571724
1761131741038219300,2.54121923828125,-0.00038179077091626823,0.010155634954571724,0.010766499675810337
1761131741048218400,2.55121826171875,-0.007712173741310835,0.011988230049610138,0.018096882849931717
1761131741058218500,2.561218505859375,-0.01748601719737053,0.0071013085544109344,0.024205535650253296
1761131741068218400,2.57121826171875,-0.023594669997692108,0.0016035212902352214,0.02054034359753132
1761131741078218500,2.581218505859375,-0.024205535650253296,-0.008781188167631626,0.010766499675810337
1761131741088218400,2.59121826171875,-0.025427265092730522,-0.016722436994314194,0.005879578180611134
1761131741098218500,2.601218505859375,-0.02298380434513092,-0.019776761531829834,0.011377365328371525
1761131741108218400,2.61121826171875,-0.01687515154480934,-0.01366810966283083,0.024205535650253296
1761131741118218500,2.621218505859375,-0.013209961354732513,0.0009926559869199991,0.04008803144097328
1761131741128218400,2.63121826171875,-0.010766499675810337,0.01748601719737053,0.04986187443137169
1761131741138218500,2.641218505859375,-0.011377365328371525,0.023594669997692108,0.04864014685153961
1761131741148219100,2.65121923828125,-0.009544769302010536,0.015653422102332115,0.04253149405121803
1761131741158219300,2.66121923828125,-0.0071013085544109344,-0.0032834007870405912,0.0290924571454525
1761131741168219100,2.67121923828125,-0.010155634954571724,-0.01794416643679142,0.015653422102332115
1761131741178219300,2.68121923828125,-0.013820826075971127,-0.022831087931990623,0.007712173741310835
1761131741188219100,2.69121923828125,-0.021151209250092506,-0.025274548679590225,0.0034361169673502445
1761131741198219300,2.70121923828125,-0.02848159149289131,-0.02099849283695221,0.008933904580771923
1761131741208219100,2.71121923828125,-0.03214678168296814,-0.00939205288887024,0.016264287754893303
1761131741218219300,2.72121923828125,-0.023594669997692108,-0.00022907447419129312,0.02848159149289131
1761131741228219100,2.73121923828125,-0.014431691728532314,-0.0014508049935102463,0.03764457255601883
1761131741238219300,2.74121923828125,-0.007712173741310835,-0.0069485921412706375,0.047418415546417236
1761131741248218400,2.75121826171875,-0.006490443367511034,-0.007559457328170538,0.04986187443137169
1761131741258218500,2.761218505859375,-0.005268712528049946,-0.00939205288887024,0.047418415546417236
1761131741268218400,2.77121826171875,-0.004657847341150045,-0.011224648915231228,0.04314235970377922
1761131741278218200,2.78121826171875,-0.004657847341150045,-0.010002918541431427,0.03825543448328972
1761131741288218400,2.79121826171875,-0.0022143865935504436,-0.0069485921412706375,0.04130976274609566
1761131741298218200,2.80121826171875,-0.0016035212902352214,-0.008170322515070438,0.04619668424129486
1761131741308218400,2.81121826171875,-0.005268712528049946,-0.010002918541431427,0.05230533704161644
1761131741318218200,2.82121826171875,-0.008933904580771923,-0.010002918541431427,0.0541379339993
1761131741328218400,2.83121826171875,-0.010155634954571724,-0.008781188167631626,0.04619668424129486
1761131741338218500,2.841218505859375,-0.011377365328371525,-0.01061378326267004,0.03153591975569725
1761131741348219100,2.85121923828125,-0.007712173741310835,-0.013057244941592216,0.018096882849931717
1761131741358219300,2.86121923828125,-0.0009926559869199991,-0.01794416643679142,0.015653422102332115
1761131741368219100,2.87121923828125,0.006337726954370737,-0.015500705689191818,0.018707748502492905
1761131741378219300,2.88121923828125,0.013057244941592216,-0.010002918541431427,0.024816401302814484
1761131741388219100,2.89121923828125,0.012446379289031029,-0.002672535367310047,0.03153591975569725
1761131741398219300,2.90121923828125,0.0069485921412706375,0.0034361169673502445,0.033368512988090515
1761131741408219600,2.9112197265625,0.005726861767470837,0.008933904580771923,0.02603813074529171
1761131741418219500,2.921219482421875,0.006337726954370737,0.0071013085544109344,0.015042556449770927
1761131741428219600,2.9312197265625,0.007559457328170538,0.0022143865935504436,0.005879578180611134
1761131741438219500,2.941219482421875,0.0069485921412706375,-0.0069485921412706375,0.0009926559869199991
1761131741448218600,2.951218505859375,0.008781188167631626,-0.012446379289031029,0.00038179077091626823
1761131741458218800,2.96121875,0.005726861767470837,-0.011835514567792416,0.0034361169673502445
1761131741468218600,2.971218505859375,0.002672535367310047,-0.0069485921412706375,0.005879578180611134
1761131741478218800,2.98121875,0.00022907447419129312,-0.00022907447419129312,0.009544769302010536
1761131741488218600,2.991218505859375,0.0014508049935102463,0.004046982154250145,0.013209961354732513
1761131741498218800,3.00121875,0.006337726954370737,0.010155634954571724,0.016264287754893303
1761131741508218600,3.011218505859375,0.01061378326267004,0.011377365328371525,0.01992947794497013
1761131741518218800,3.02121875,0.008781188167631626,0.010766499675810337,0.013209961354732513
1761131741528218600,3.031218505859375,0.008170322515070438,0.008323038928210735,0.0016035212902352214
1761131741538218800,3.04121875,0.010002918541431427,0.0034361169673502445,-0.0032834007870405912
1761131741548219600,3.0512197265625,0.011224648915231228,0.0034361169673502445,-0.004505131393671036
1761131741558219500,3.061219482421875,0.008781188167631626,0.005879578180611134,-0.005115996580570936
1761131741568219600,3.0712197265625,0.010002918541431427,0.0034361169673502445,-0.004505131393671036
1761131741578219500,3.081219482421875,0.007559457328170538,-0.00022907447419129312,-0.005726861767470837
1761131741588219600,3.0912197265625,-0.00038179077091626823,0.002825251780450344,-0.01488984003663063
1761131741598219500,3.101219482421875,0.0014508049935102463,0.0022143865935504436,-0.03321579843759537
1761131741608219600,3.1112197265625,0.0038942659739404917,-0.005115996580570936,-0.04970915988087654
1761131741618219500,3.121219482421875,0.0014508049935102463,-0.008781188167631626,-0.05398521572351456
1761131741628219600,3.1312197265625,-0.00038179077091626823,-0.013057244941592216,-0.042989641427993774
1761131741638219500,3.141219482421875,0.00022907447419129312,-0.008170322515070438,-0.0264962799847126
1761131741648218600,3.151218505859375,-0.0009926559869199991,0.0022143865935504436,-0.0038942659739404917
1761131741658218800,3.16121875,-0.007712173741310835,0.014431691728532314,0.015042556449770927
1761131741668218600,3.171218505859375,-0.010155634954571724,0.023594669997692108,0.023594669997692108
1761131741678218800,3.18121875,-0.011988230049610138,0.024205535650253296,0.023594669997692108
1761131741688218600,3.191218505859375,-0.0071013085544109344,0.021151209250092506,0.005879578180611134
1761131741698218800,3.20121875,0.00022907447419129312,0.015653422102332115,-0.011835514567792416
1761131741708218400,3.21121826171875,0.0020616701804101467,0.008933904580771923,-0.027718011289834976
1761131741718218200,3.22121826171875,0.005726861767470837,0.004046982154250145,-0.039935316890478134
1761131741728218400,3.23121826171875,0.0038942659739404917,0.0071013085544109344,-0.04726569727063179
1761131741738218200,3.24121826171875,-0.005268712528049946,0.006490443367511034,-0.04909829422831535
1761131741748219100,3.25121923828125,-0.012599095702171326,0.005268712528049946,-0.04421137273311615
1761131741758219300,3.26121923828125,-0.013209961354732513,0.0034361169673502445,-0.03810271993279457
1761131741768219100,3.27121923828125,-0.013820826075971127,0.0071013085544109344,-0.030772335827350616
1761131741778219300,3.28121923828125,-0.010766499675810337,0.01748601719737053,-0.0264962799847126
1761131741788219100,3.29121923828125,-0.004657847341150045,0.027259862050414085,-0.02344195358455181
1761131741798219300,3.30121923828125,-0.0009926559869199991,0.0290924571454525,-0.022831087931990623
1761131741808219100,3.31121923828125,-0.002825251780450344,0.021762074902653694,-0.022220224142074585
1761131741818219300,3.32121923828125,-0.0022143865935504436,0.009544769302010536,-0.021609358489513397
1761131741828219100,3.33121923828125,-0.0009926559869199991,0.004046982154250145,-0.028328875079751015
1761131741838219300,3.34121923828125,0.00022907447419129312,0.004046982154250145,-0.04054617881774902
1761131741848218400,3.35121826171875,-0.0071013085544109344,0.005879578180611134,-0.04970915988087654
1761131741858218500,3.361218505859375,-0.016264287754893303,0.0071013085544109344,-0.048487428575754166
1761131741868218400,3.37121826171875,-0.02054034359753132,0.008933904580771923,-0.04421137273311615
1761131741878218500,3.381218505859375,-0.01687515154480934,0.0071013085544109344,-0.03199406713247299
1761131741888218400,3.39121826171875,-0.013209961354732513,0.0071013085544109344,-0.01366810966283083
1761131741898218500,3.401218505859375,-0.010155634954571724,0.008933904580771923,0.0009926559869199991
1761131741908218400,3.41121826171875,-0.006490443367511034,0.013209961354732513,0.008323038928210735
1761131741918218200,3.42121826171875,-0.007712173741310835,0.015653422102332115,0.005879578180611134
1761131741928218400,3.43121826171875,-0.005879578180611134,0.02054034359753132,0.0009926559869199991
1761131741938218200,3.44121826171875,-0.002825251780450344,0.018707748502492905,-0.002672535367310047
1761131741948219100,3.45121923828125,-0.005879578180611134,0.013209961354732513,-0.004505131393671036
1761131741958219300,3.46121923828125,-0.009544769302010536,0.009544769302010536,-0.0038942659739404917
1761131741968219100,3.47121923828125,-0.011988230049610138,0.0071013085544109344,-0.0038942659739404917
1761131741978219300,3.48121923828125,-0.015042556449770927,0.0034361169673502445,-0.0032834007870405912
1761131741988219100,3.49121923828125,-0.014431691728532314,0.002825251780450344,-0.002672535367310047
1761131741998219300,3.50121923828125,-0.019318614155054092,0.002825251780450344,-0.0014508049935102463
1761131742008219100,3.51121923828125,-0.018096882849931717,0.0009926559869199991,0.0022143865935504436
1761131742018219300,3.52121923828125,-0.016264287754893303,0.00038179077091626823,0.006490443367511034
1761131742028219100,3.53121923828125,-0.012599095702171326,-0.0032834007870405912,0.006490443367511034
1761131742038219300,3.54121923828125,-0.006490443367511034,0.0016035212902352214,0.004657847341150045
1761131742048218400,3.55121826171875,-0.0034361169673502445,0.005879578180611134,0.005268712528049946
1761131742058218500,3.561218505859375,-0.0034361169673502445,0.0071013085544109344,0.009544769302010536
1761131742068218400,3.57121826171875,-0.004046982154250145,0.010766499675810337,0.014431691728532314
1761131742078218500,3.581218505859375,-0.0016035212902352214,0.011377365328371525,0.012599095702171326
1761131742088218400,3.59121826171875,-0.0034361169673502445,0.005879578180611134,0.004657847341150045
1761131742098218500,3.601218505859375,-0.008933904580771923,-0.0014508049935102463,-0.0038942659739404917
1761131742108218400,3.61121826171875,-0.010766499675810337,-0.008170322515070438,-0.014278975315392017
1761131742118218500,3.621218505859375,-0.015042556449770927,-0.013057244941592216,-0.025885414332151413
1761131742128218400,3.63121826171875,-0.014431691728532314,-0.011224648915231228,-0.025885414332151413
1761131742138218200,3.64121826171875,-0.012599095702171326,-0.0038942659739404917,-0.016722436994314194
1761131742148219100,3.65121923828125,-0.013209961354732513,0.011988230049610138,0.002825251780450344
1761131742158219300,3.66121923828125,-0.012599095702171326,0.013209961354732513,0.016264287754893303
1761131742168219100,3.67121923828125,-0.010155634954571724,0.010766499675810337,0.024205535650253296
1761131742178219300,3.68121923828125,-0.0071013085544109344,0.008933904580771923,0.021762074902653694
1761131742188219100,3.69121923828125,-0.004657847341150045,0.0071013085544109344,0.014431691728532314
1761131742198219300,3.70121923828125,-0.004046982154250145,0.002825251780450344,0.010766499675810337
1761131742208219100,3.71121923828125,-0.002825251780450344,-0.0014508049935102463,0.011377365328371525
1761131742218219300,3.72121923828125,0.0020616701804101467,-0.005115996580570936,0.010155634954571724
1761131742228219100,3.73121923828125,0.002672535367310047,-0.006337726954370737,0.004046982154250145
1761131742238219300,3.74121923828125,0.000839939690195024,-0.008170322515070438,-0.004505131393671036
1761131742248218400,3.75121826171875,-0.0016035212902352214,-0.011835514567792416,-0.012446379289031029
1761131742258218200,3.76121826171875,-0.004657847341150045,-0.02038762718439102,-0.02038762718439102
1761131742268218400,3.77121826171875,-0.007712173741310835,-0.022831087931990623,-0.02344195358455181
1761131742278218200,3.78121826171875,-0.006490443367511034,-0.01794416643679142,-0.025885414332151413
1761131742288218400,3.79121826171875,-0.007712173741310835,-0.004505131393671036,-0.02344195358455181
1761131742298218200,3.80121826171875,-0.009544769302010536,0.004657847341150045,-0.01366810966283083
1761131742308218400,3.81121826171875,-0.007712173741310835,0.006490443367511034,-0.000839939690195024
1761131742318218200,3.82121826171875,-0.0016035212902352214,0.007712173741310835,0.0071013085544109344
1761131742328218400,3.83121826171875,0.007559457328170538,0.008933904580771923,0.011377365328371525
1761131742338218500,3.841218505859375,0.01488984003663063,0.008323038928210735,0.012599095702171326
1761131742348219100,3.85121923828125,0.019165897741913795,0.007712173741310835,0.011988230049610138
1761131742358219300,3.86121923828125,0.018555032089352608,0.0034361169673502445,0.007712173741310835
1761131742368219100,3.87121923828125,0.00939205288887024,-0.002672535367310047,-0.0014508049935102463
1761131742378219300,3.88121923828125,0.005115996580570936,-0.004505131393671036,-0.01794416643679142
1761131742388219100,3.89121923828125,0.005115996580570936,-0.0069485921412706375,-0.016111571341753006
1761131742398219300,3.90121923828125,0.004505131393671036,-0.011224648915231228,-0.01061378326267004
1761131742408219100,3.91121923828125,0.004505131393671036,-0.006337726954370737,-0.007559457328170538
1761131742418219300,3.92121923828125,0.0038942659739404917,0.0022143865935504436,-0.000839939690195024
1761131742428219100,3.93121923828125,0.0069485921412706375,0.007712173741310835,0.007712173741310835
1761131742438219300,3.94121923828125,0.011835514567792416,0.012599095702171326,0.013209961354732513
1761131742448218400,3.95121826171875,0.016722436994314194,0.014431691728532314,0.010766499675810337
1761131742458218200,3.96121826171875,0.022831087931990623,0.010766499675810337,0.002825251780450344
1761131742468218400,3.97121826171875,0.030772335827350616,-0.000839939690195024,-0.0069485921412706375
1761131742478218200,3.98121826171875,0.028939740732312202,-0.006337726954370737,-0.015500705689191818
1761131742488218400,3.99121826171875,0.019776761531829834,-0.0069485921412706375,-0.02710714563727379
1761131742498218200,4.00121826171875,0.010002918541431427,-0.0032834007870405912,-0.036880988627672195
1761131742508218400,4.01121826171875,0.0069485921412706375,-0.000839939690195024,-0.039935316890478134
1761131742518218200,4.02121826171875,0.0069485921412706375,0.00038179077091626823,-0.03321579843759537
1761131742528218400,4.03121826171875,0.01366810966283083,0.0016035212902352214,-0.025274548679590225
1761131742538218200,4.04121826171875,0.017333300784230232,0.004046982154250145,-0.02099849283695221
1761131742548219100,4.05121923828125,0.02344195358455181,0.004657847341150045,-0.018555032089352608
1761131742558219300,4.06121923828125,0.024052819237113,0.004657847341150045,-0.012446379289031029
1761131742568219100,4.07121923828125,0.019165897741913795,0.008323038928210735,-0.0032834007870405912
1761131742578219300,4.08121923828125,0.016111571341753006,0.013820826075971127,0.002825251780450344
1761131742588219100,4.09121923828125,0.011835514567792416,0.01687515154480934,0.0016035212902352214
1761131742598219300,4.10121923828125,0.01366810966283083,0.010766499675810337,-0.0014508049935102463
1761131742608219100,4.11121923828125,0.017333300784230232,0.005268712528049946,-0.006337726954370737
1761131742618219300,4.12121923828125,0.015500705689191818,0.008933904580771923,-0.016722436994314194
1761131742628219100,4.13121923828125,0.010002918541431427,0.0009926559869199991,-0.016722436994314194
1761131742638219300,4.14121923828125,0.005115996580570936,-0.013057244941592216,-0.004505131393671036
1761131742648218400,4.15121826171875,0.004505131393671036,-0.016722436994314194,-0.0032834007870405912
1761131742658218200,4.16121826171875,0.007559457328170538,-0.007559457328170538,-0.015500705689191818
1761131742668218400,4.17121826171875,0.01061378326267004,0.005879578180611134,-0.024663684889674187
1761131742678218200,4.18121826171875,0.014278975315392017,0.011377365328371525,-0.022220224142074585
1761131742688218400,4.19121826171875,0.016111571341753006,0.005268712528049946,-0.01366810966283083
1761131742698218200,4.20121826171875,0.015500705689191818,0.0071013085544109344,-0.01061378326267004
1761131742708218400,4.21121826171875,0.012446379289031029,0.006490443367511034,-0.005726861767470837
1761131742718218200,4.22121826171875,0.011835514567792416,0.0016035212902352214,-0.0038942659739404917
1761131742728218400,4.23121826171875,0.010002918541431427,-0.000839939690195024,-0.01061378326267004
1761131742738218200,4.24121826171875,0.005726861767470837,-0.0038942659739404917,-0.02099849283695221
1761131742748219100,4.25121923828125,0.0020616701804101467,-0.00939205288887024,-0.028328875079751015
1761131742758219300,4.26121923828125,0.002672535367310047,-0.01366810966283083,-0.02710714563727379
1761131742768219100,4.27121923828125,0.0020616701804101467,-0.01061378326267004,-0.01794416643679142
1761131742778219300,4.28121923828125,0.002672535367310047,0.0016035212902352214,-0.006337726954370737
1761131742788219100,4.29121923828125,0.0038942659739404917,0.013209961354732513,0.0071013085544109344
1761131742798219300,4.30121923828125,0.004505131393671036,0.018707748502492905,0.018096882849931717
1761131742808219100,4.31121923828125,0.005115996580570936,0.024205535650253296,0.019318614155054092
1761131742818219300,4.32121923828125,0.0069485921412706375,0.02603813074529171,0.015653422102332115
1761131742828219100,4.33121923828125,0.013057244941592216,0.02298380434513092,0.012599095702171326
1761131742838219300,4.34121923828125,0.015500705689191818,0.011377365328371525,0.009544769302010536
1761131742848218400,4.35121826171875,0.012446379289031029,-0.017333300784230232,0.010766499675810337
1761131742858218500,4.361218505859375,0.007559457328170538,-0.018555032089352608,-0.0038942659739404917
1761131742868218400,4.37121826171875,0.008170322515070438,-0.007559457328170538,-0.0264962799847126
1761131742878218200,4.38121826171875,0.010002918541431427,0.0016035212902352214,-0.04054617881774902
1761131742888218400,4.39121826171875,0.0069485921412706375,-0.0014508049935102463,-0.036880988627672195
1761131742898218200,4.40121826171875,0.0069485921412706375,-0.011224648915231228,-0.018555032089352608
1761131742908218400,4.41121826171875,0.008170322515070438,-0.00939205288887024,-0.0014508049935102463
1761131742918218200,4.42121826171875,0.005726861767470837,0.002825251780450344,0.008933904580771923
1761131742928218400,4.43121826171875,0.004505131393671036,0.010766499675810337,0.015042556449770927
1761131742938218200,4.44121826171875,0.004505131393671036,0.013820826075971127,0.014431691728532314
1761131742948219100,4.45121923828125,0.00939205288887024,0.01748601719737053,0.009544769302010536
1761131742958219300,4.46121923828125,0.014278975315392017,0.02054034359753132,0.0071013085544109344
1761131742968219100,4.47121923828125,0.02038762718439102,0.02054034359753132,0.010155634954571724
1761131742978219300,4.48121923828125,0.025274548679590225,0.016264287754893303,0.013209961354732513
1761131742988219100,4.49121923828125,0.02344195358455181,0.011988230049610138,0.010155634954571724
1761131742998219300,4.50121923828125,0.01794416643679142,0.008323038928210735,0.0034361169673502445
1761131743008219100,4.51121923828125,0.015500705689191818,0.0071013085544109344,0.00038179077091626823
1761131743018219300,4.52121923828125,0.016722436994314194,0.006490443367511034,0.004657847341150045
1761131743028219100,4.53121923828125,0.017333300784230232,0.0022143865935504436,0.013209961354732513
1761131743038219300,4.54121923828125,0.013057244941592216,0.0022143865935504436,0.021151209250092506
1761131743048218400,4.55121826171875,0.01061378326267004,0.008323038928210735,0.024816401302814484
1761131743058218200,4.56121826171875,0.014278975315392017,0.016264287754893303,0.025427265092730522
1761131743068218400,4.57121826171875,0.017333300784230232,0.023594669997692108,0.02603813074529171
1761131743078218200,4.58121826171875,0.02344195358455181,0.026648996397852898,0.030925052240490913
1761131743088218400,4.59121826171875,0.025274548679590225,0.02054034359753132,0.026648996397852898
1761131743098218500,4.601218505859375,0.02710714563727379,0.013209961354732513,0.018707748502492905
1761131743108218400,4.61121826171875,0.027718011289834976,0.009544769302010536,0.008323038928210735
1761131743118218200,4.62121826171875,0.0264962799847126,0.0071013085544109344,-0.0038942659739404917
1761131743128218400,4.63121826171875,0.021609358489513397,0.0071013085544109344,-0.017333300784230232
1761131743138218200,4.64121826171875,0.012446379289031029,0.012599095702171326,-0.02344195358455181
1761131743148219100,4.65121923828125,0.008170322515070438,0.01992947794497013,-0.017333300784230232
1761131743158219300,4.66121923828125,0.008170322515070438,0.01687515154480934,-0.0038942659739404917
1761131743168219100,4.67121923828125,0.00939205288887024,0.016264287754893303,0.009544769302010536
1761131743178219300,4.68121923828125,0.01366810966283083,0.01992947794497013,0.01687515154480934
1761131743188219100,4.69121923828125,0.016722436994314194,0.02298380434513092,0.022372938692569733
1761131743198219300,4.70121923828125,0.017333300784230232,0.023594669997692108,0.024205535650253296
1761131743208219100,4.71121923828125,0.016722436994314194,0.021151209250092506,0.021151209250092506
1761131743218219300,4.72121923828125,0.01488984003663063,0.019318614155054092,0.010155634954571724
1761131743228219100,4.73121923828125,0.01488984003663063,0.01687515154480934,0.0022143865935504436
1761131743238219300,4.74121923828125,0.017333300784230232,0.014431691728532314,0.0034361169673502445
1761131743248218400,4.75121826171875,0.016111571341753006,0.011988230049610138,0.010155634954571724
1761131743258218200,4.76121826171875,0.014278975315392017,0.008323038928210735,0.015653422102332115
1761131743268218400,4.77121826171875,0.00939205288887024,0.004657847341150045,0.02298380434513092
1761131743278218200,4.78121826171875,0.008170322515070438,0.002825251780450344,0.02848159149289131
1761131743288218400,4.79121826171875,0.011224648915231228,0.0009926559869199991,0.0339793786406517
1761131743298218200,4.80121826171875,0.010002918541431427,0.002825251780450344,0.03275764733552933
1761131743308218400,4.81121826171875,0.008781188167631626,0.0022143865935504436,0.02848159149289131
1761131743318218200,4.82121826171875,0.011224648915231228,-0.000839939690195024,0.027259862050414085
1761131743328218400,4.83121826171875,0.01061378326267004,-0.0038942659739404917,0.027870727702975273
1761131743338218200,4.84121826171875,0.008170322515070438,-0.0069485921412706375,0.02603813074529171
1761131743348219100,4.85121923828125,0.0032834007870405912,-0.011224648915231228,0.02298380434513092
1761131743358219300,4.86121923828125,-0.0009926559869199991,-0.011835514567792416,0.016264287754893303
1761131743368219100,4.87121923828125,-0.0016035212902352214,-0.012446379289031029,0.005268712528049946
1761131743378219300,4.88121923828125,-0.004046982154250145,-0.0069485921412706375,-0.0038942659739404917
1761131743388219100,4.89121923828125,-0.004657847341150045,-0.0014508049935102463,-0.0069485921412706375
1761131743398219000,4.901218994140625,-0.006490443367511034,0.00038179077091626823,-0.007559457328170538
1761131743408219100,4.91121923828125,-0.009544769302010536,-0.002672535367310047,-0.005115996580570936
1761131743418219000,4.921218994140625,-0.011988230049610138,-0.005115996580570936,0.0022143865935504436
1761131743428219100,4.93121923828125,-0.0071013085544109344,-0.005115996580570936,0.006490443367511034
1761131743438219000,4.941218994140625,-0.0071013085544109344,-0.002672535367310047,0.0071013085544109344
1761131743448218400,4.95121826171875,-0.009544769302010536,-0.006337726954370737,-0.000839939690195024
1761131743458218200,4.96121826171875,-0.010155634954571724,-0.011835514567792416,-0.014278975315392017
1761131743468218400,4.97121826171875,-0.008323038928210735,-0.011835514567792416,-0.028328875079751015
1761131743478218200,4.98121826171875,-0.005879578180611134,-0.012446379289031029,-0.03810271993279457
1761131743488218400,4.99121826171875,-0.0034361169673502445,-0.014278975315392017,-0.04604396969079971
1761131743498218200,5.00121826171875,-0.0071013085544109344,-0.013057244941592216,-0.054596081376075745
1761131743508218400,5.01121826171875,-0.013820826075971127,-0.014278975315392017,-0.05948300287127495
1761131743518218200,5.02121826171875,-0.01687515154480934,-0.01794416643679142,-0.05948300287127495
1761131743528218400,5.03121826171875,-0.01687515154480934,-0.01794416643679142,-0.052152618765830994
1761131743538218200,5.04121826171875,-0.013820826075971127,-0.01061378326267004,-0.036880988627672195
1761131743548219100,5.05121923828125,-0.014431691728532314,-0.0038942659739404917,-0.022831087931990623
1761131743558219000,5.061218994140625,-0.013820826075971127,-0.004505131393671036,-0.011224648915231228
1761131743568219100,5.07121923828125,-0.015653422102332115,-0.0038942659739404917,-0.007559457328170538
1761131743578219000,5.081218994140625,-0.01687515154480934,-0.0038942659739404917,-0.014278975315392017
1761131743588219100,5.09121923828125,-0.018707748502492905,-0.006337726954370737,-0.027718011289834976
1761131743598219300,5.10121923828125,-0.014431691728532314,-0.010002918541431427,-0.039324451237916946
1761131743608219100,5.11121923828125,-0.011377365328371525,-0.01061378326267004,-0.04787656292319298
1761131743618219300,5.12121923828125,-0.012599095702171326,-0.010002918541431427,-0.048487428575754166
1761131743628219100,5.13121923828125,-0.01687515154480934,-0.00939205288887024,-0.045433104038238525
1761131743638219300,5.14121923828125,-0.019318614155054092,-0.005726861767470837,-0.04115704447031021
1761131743648218400,5.15121826171875,-0.025427265092730522,-0.006337726954370737,-0.03199406713247299
1761131743658218200,5.16121826171875,-0.027259862050414085,-0.011835514567792416,-0.02099849283695221
1761131743668218400,5.17121826171875,-0.024205535650253296,-0.011835514567792416,-0.012446379289031029
1761131743678218200,5.18121826171875,-0.01687515154480934,-0.0020616701804101467,-0.0069485921412706375
1761131743688218400,5.19121826171875,-0.013820826075971127,0.006490443367511034,-0.005726861767470837
1761131743698218200,5.20121826171875,-0.011988230049610138,0.008323038928210735,-0.008781188167631626
1761131743708218400,5.21121826171875,-0.009544769302010536,0.0022143865935504436,-0.019165897741913795
1761131743718218200,5.22121826171875,-0.011377365328371525,-0.0069485921412706375,-0.03504839166998863
1761131743728218400,5.23121826171875,-0.014431691728532314,-0.011224648915231228,-0.052152618765830994
1761131743738218200,5.24121826171875,-0.014431691728532314,-0.010002918541431427,-0.0668133869767189
1761131743748219100,5.25121923828125,-0.010155634954571724,-0.008170322515070438,-0.07047858089208603
1761131743758219300,5.26121923828125,-0.011377365328371525,-0.00022907447419129312,-0.06131559982895851
1761131743768219100,5.27121923828125,-0.02054034359753132,0.005268712528049946,-0.030772335827350616
1761131743778219300,5.28121923828125,-0.03520110994577408,0.0016035212902352214,-0.011835514567792416
1761131743788219100,5.29121923828125,-0.0339793786406517,0.0071013085544109344,0.006490443367511034
1761131743798219300,5.30121923828125,-0.030925052240490913,0.012599095702171326,0.011988230049610138
1761131743808219100,5.31121923828125,-0.024205535650253296,0.013820826075971127,0.010766499675810337
1761131743818219300,5.32121923828125,-0.016264287754893303,0.015042556449770927,0.015653422102332115
1761131743828219100,5.33121923828125,-0.013820826075971127,0.018096882849931717,0.024816401302814484
1761131743838219300,5.34121923828125,-0.013209961354732513,0.016264287754893303,0.030925052240490913
1761131743848218400,5.35121826171875,-0.010766499675810337,0.015653422102332115,0.0339793786406517
1761131743858218200,5.36121826171875,-0.009544769302010536,0.019318614155054092,0.029703322798013687
1761131743868218400,5.37121826171875,-0.008323038928210735,0.019318614155054092,0.024205535650253296
1761131743878218200,5.38121826171875,-0.004657847341150045,0.01687515154480934,0.01748601719737053
1761131743888218400,5.39121826171875,-0.00038179077091626823,0.01748601719737053,0.010766499675810337
1761131743898218200,5.40121826171875,-0.0016035212902352214,0.013820826075971127,0.006490443367511034
1761131743908218400,5.41121826171875,-0.002825251780450344,0.013820826075971127,0.007712173741310835
1761131743918218200,5.42121826171875,-0.0009926559869199991,0.013820826075971127,0.008933904580771923
1761131743928218400,5.43121826171875,0.00022907447419129312,0.01748601719737053,0.006490443367511034
1761131743938218200,5.44121826171875,0.0038942659739404917,0.018707748502492905,0.0016035212902352214
1761131743948219100,5.45121923828125,0.008170322515070438,0.023594669997692108,-0.0032834007870405912
1761131743958219000,5.461218994140625,0.0069485921412706375,0.024205535650253296,-0.007559457328170538
1761131743968219100,5.47121923828125,0.004505131393671036,0.026648996397852898,-0.01794416643679142
1761131743978219300,5.48121923828125,0.005726861767470837,0.02848159149289131,-0.031383201479911804
1761131743988219100,5.49121923828125,0.008781188167631626,0.029703322798013687,-0.04787656292319298
1761131743998219300,5.50121923828125,0.016722436994314194,0.030314188450574875,-0.05642867833375931
1761131744008219100,5.51121923828125,0.025885414332151413,0.027870727702975273,-0.0466548316180706
1761131744018219300,5.52121923828125,0.025274548679590225,0.03214678168296814,-0.036880988627672195
1761131744028219100,5.53121923828125,0.019776761531829834,0.03825543448328972,-0.03443752974271774
1761131744038219300,5.54121923828125,0.010002918541431427,0.04130976274609566,-0.031383201479911804
1761131744048218400,5.55121826171875,0.0038942659739404917,0.0339793786406517,-0.028939740732312202
1761131744058218200,5.56121826171875,0.00939205288887024,0.021151209250092506,-0.021609358489513397
1761131744068218400,5.57121826171875,0.015500705689191818,0.014431691728532314,-0.01366810966283083
1761131744078218200,5.58121826171875,0.018555032089352608,0.014431691728532314,-0.01794416643679142
1761131744088218400,5.59121826171875,0.019165897741913795,0.018707748502492905,-0.02710714563727379
1761131744098218200,5.60121826171875,0.01794416643679142,0.015653422102332115,-0.03871358558535576
1761131744108218400,5.61121826171875,0.013057244941592216,0.014431691728532314,-0.04115704447031021
1761131744118218200,5.62121826171875,0.01061378326267004,0.014431691728532314,-0.03504839166998863
1761131744128218400,5.63121826171875,0.00939205288887024,0.013820826075971127,-0.02038762718439102
1761131744138218200,5.64121826171875,0.005726861767470837,0.013820826075971127,0.0009926559869199991
1761131744148219100,5.65121923828125,0.00022907447419129312,0.013209961354732513,0.019318614155054092
1761131744158219300,5.66121923828125,-0.005268712528049946,0.010766499675810337,0.03214678168296814
1761131744168219100,5.67121923828125,-0.009544769302010536,0.011988230049610138,0.039477165788412094
1761131744178219300,5.68121923828125,-0.011377365328371525,0.014431691728532314,0.04375322163105011
1761131744188219100,5.69121923828125,-0.010766499675810337,0.01748601719737053,0.04864014685153961
1761131744198219300,5.70121923828125,-0.005879578180611134,0.02054034359753132,0.05169447138905525
1761131744208219100,5.71121923828125,-0.004657847341150045,0.014431691728532314,0.05047274008393288
1761131744218219300,5.72121923828125,-0.009544769302010536,0.009544769302010536,0.04375322163105011
1761131744228219100,5.73121923828125,-0.011988230049610138,0.0034361169673502445,0.04130976274609566
1761131744238219300,5.74121923828125,-0.014431691728532314,-0.006337726954370737,0.048029281198978424
1761131744248218400,5.75121826171875,-0.01748601719737053,-0.008170322515070438,0.053527068346738815
1761131744258218200,5.76121826171875,-0.021151209250092506,-0.004505131393671036,0.05474879592657089
1761131744268218400,5.77121826171875,-0.02298380434513092,0.006490443367511034,0.04986187443137169
1761131744278218200,5.78121826171875,-0.01992947794497013,0.01992947794497013,0.044974952936172485
1761131744288218400,5.79121826171875,-0.021151209250092506,0.03153591975569725,0.044974952936172485
1761131744298218200,5.80121826171875,-0.022372938692569733,0.027870727702975273,0.04558581858873367
1761131744308218400,5.81121826171875,-0.022372938692569733,0.016264287754893303,0.0443640872836113
1761131744318218200,5.82121826171875,-0.02298380434513092,0.002825251780450344,0.04253149405121803
1761131744328218400,5.83121826171875,-0.024205535650253296,-0.00939205288887024,0.033368512988090515
1761131744338218200,5.84121826171875,-0.029703322798013687,-0.011835514567792416,0.01687515154480934
1761131744348219100,5.85121923828125,-0.03275764733552933,-0.0069485921412706375,0.0022143865935504436
1761131744358219300,5.86121923828125,-0.03275764733552933,-0.0014508049935102463,-0.0032834007870405912
1761131744368219100,5.87121923828125,-0.038866300135850906,0.006490443367511034,-0.00022907447419129312
1761131744378219300,5.88121923828125,-0.04253149405121803,0.013820826075971127,0.010766499675810337
1761131744388219100,5.89121923828125,-0.04008803144097328,0.015042556449770927,0.01748601719737053
1761131744398219000,5.901218994140625,-0.04069889709353447,0.015042556449770927,0.018707748502492905
1761131744408219100,5.91121923828125,-0.03764457255601883,0.010766499675810337,0.012599095702171326
1761131744418219000,5.921218994140625,-0.03275764733552933,0.004657847341150045,0.009544769302010536
1761131744428219100,5.93121923828125,-0.023594669997692108,0.00038179077091626823,0.015042556449770927
1761131744438219000,5.941218994140625,-0.01748601719737053,0.0022143865935504436,0.025427265092730522
1761131744448218400,5.95121826171875,-0.02054034359753132,0.008323038928210735,0.030314188450574875
1761131744458218200,5.96121826171875,-0.029703322798013687,0.004046982154250145,0.03275764733552933
1761131744468218400,5.97121826171875,-0.04130976274609566,-0.011224648915231228,0.03520110994577408
1761131744478218200,5.98121826171875,-0.03703370690345764,-0.0032834007870405912,0.0339793786406517
1761131744488218400,5.99121826171875,-0.027870727702975273,0.002825251780450344,0.027870727702975273
1761131744498218200,6.00121826171875,-0.022372938692569733,0.004657847341150045,0.027259862050414085
1761131744508218400,6.01121826171875,-0.01687515154480934,0.006490443367511034,0.030925052240490913
1761131744518218200,6.02121826171875,-0.012599095702171326,-0.0020616701804101467,0.03153591975569725
1761131744528218400,6.03121826171875,-0.009544769302010536,-0.007559457328170538,0.033368512988090515
1761131744538218200,6.04121826171875,-0.004046982154250145,-0.027718011289834976,0.041920628398656845
1761131744548219100,6.05121923828125,-0.0022143865935504436,-0.033826664090156555,0.03825543448328972
1761131744558219000,6.061218994140625,-0.002825251780450344,-0.024663684889674187,0.01687515154480934
1761131744568219100,6.07121923828125,-0.005268712528049946,-0.00939205288887024,-0.01366810966283083
1761131744578219000,6.081218994140625,-0.0034361169673502445,-0.000839939690195024,-0.033826664090156555
1761131744588219100,6.09121923828125,0.0020616701804101467,0.0016035212902352214,-0.036880988627672195
1761131744598219300,6.10121923828125,0.0069485921412706375,0.005879578180611134,-0.028939740732312202
1761131744608219100,6.11121923828125,0.002672535367310047,0.010155634954571724,-0.01488984003663063
1761131744618219300,6.12121923828125,0.0020616701804101467,0.010766499675810337,0.005879578180611134
1761131744628219100,6.13121923828125,-0.002825251780450344,-0.011835514567792416,0.03153591975569725
1761131744638219300,6.14121923828125,-0.007712173741310835,-0.02344195358455181,0.05780312418937683
1761131744648218400,6.15121826171875,-0.010766499675810337,-0.025885414332151413,0.05535966157913208
1761131744658218200,6.16121826171875,-0.012599095702171326,-0.00939205288887024,0.030925052240490913
1761131744668218400,6.17121826171875,-0.007712173741310835,0.005268712528049946,-0.00022907447419129312
1761131744678218200,6.18121826171875,-0.0022143865935504436,0.002825251780450344,-0.022831087931990623
1761131744688218400,6.19121826171875,0.0038942659739404917,-0.013057244941592216,-0.028328875079751015
1761131744698218200,6.20121826171875,0.010002918541431427,-0.024052819237113,-0.030772335827350616
1761131744708218400,6.21121826171875,0.011224648915231228,-0.019776761531829834,-0.031383201479911804
1761131744718218200,6.22121826171875,0.006337726954370737,-0.017333300784230232,-0.02710714563727379
1761131744728218400,6.23121826171875,-0.0009926559869199991,-0.008170322515070438,-0.019776761531829834
1761131744738218200,6.24121826171875,-0.005268712528049946,0.0034361169673502445,-0.008170322515070438
1761131744748219100,6.25121923828125,-0.002825251780450344,0.013209961354732513,-0.0014508049935102463
1761131744758219000,6.261218994140625,0.0020616701804101467,0.019318614155054092,0.0034361169673502445
1761131744768219100,6.27121923828125,0.002672535367310047,0.014431691728532314,0.007712173741310835
1761131744778219000,6.281218994140625,0.005726861767470837,0.004657847341150045,0.011988230049610138
1761131744788219100,6.29121923828125,0.005726861767470837,0.0034361169673502445,0.013820826075971127
1761131744798219000,6.301218994140625,0.0032834007870405912,0.0034361169673502445,0.005268712528049946
1761131744808219100,6.31121923828125,-0.00038179077091626823,0.005879578180611134,-0.004505131393671036
1761131744818219000,6.321218994140625,-0.0016035212902352214,0.009544769302010536,-0.005726861767470837
1761131744828219100,6.33121923828125,0.00022907447419129312,0.0071013085544109344,-0.0020616701804101467
1761131744838219000,6.341218994140625,0.0014508049935102463,0.005268712528049946,0.00038179077091626823
1761131744848218400,6.35121826171875,0.0032834007870405912,0.0009926559869199991,0.004046982154250145
1761131744858218200,6.36121826171875,0.002672535367310047,-0.00939205288887024,0.013820826075971127
1761131744868218400,6.37121826171875,0.0032834007870405912,-0.007559457328170538,0.02603813074529171
1761131744878218200,6.38121826171875,0.0020616701804101467,0.0034361169673502445,0.03520110994577408
1761131744888218000,6.391218017578125,0.0038942659739404917,0.013209961354732513,0.04314235970377922
1761131744898218200,6.40121826171875,0.0032834007870405912,0.015042556449770927,0.05169447138905525
1761131744908218000,6.411218017578125,0.0020616701804101467,0.004046982154250145,0.0541379339993
1761131744918218200,6.42121826171875,0.0032834007870405912,-0.008170322515070438,0.044974952936172485
1761131744928218000,6.431218017578125,0.007559457328170538,-0.011835514567792416,0.008323038928210735
1761131744938218200,6.44121826171875,0.00939205288887024,-0.006337726954370737,-0.016722436994314194
1761131744948219100,6.45121923828125,0.004505131393671036,-0.0014508049935102463,-0.028328875079751015
1761131744958219000,6.461218994140625,-0.0022143865935504436,0.002825251780450344,-0.025885414332151413
1761131744968219100,6.47121923828125,-0.004046982154250145,0.0071013085544109344,-0.014278975315392017
1761131744978219000,6.481218994140625,-0.002825251780450344,0.006490443367511034,-0.00022907447419129312
1761131744988219100,6.49121923828125,-0.0009926559869199991,0.00038179077091626823,0.013820826075971127
1761131744998219000,6.501218994140625,-0.0022143865935504436,-0.005726861767470837,0.025427265092730522
1761131745008219100,6.51121923828125,-0.0009926559869199991,-0.0069485921412706375,0.030925052240490913
1761131745018219000,6.521218994140625,-0.0009926559869199991,-0.00022907447419129312,0.030314188450574875
1761131745028219100,6.53121923828125,0.00022907447419129312,0.011377365328371525,0.0290924571454525
1761131745038219000,6.541218994140625,0.0032834007870405912,0.010766499675810337,0.03153591975569725
1761131745048218400,6.55121826171875,0.005115996580570936,0.0034361169673502445,0.03825543448328972
1761131745058218200,6.56121826171875,0.004505131393671036,-0.002672535367310047,0.041920628398656845
1761131745068218400,6.57121826171875,-0.00038179077091626823,-0.0020616701804101467,0.036422841250896454
1761131745078218200,6.58121826171875,-0.004046982154250145,-0.005115996580570936,0.027259862050414085
1761131745088218400,6.59121826171875,-0.006490443367511034,-0.005726861767470837,0.018096882849931717
1761131745098218200,6.60121826171875,-0.005268712528049946,-0.007559457328170538,0.01748601719737053
1761131745108218400,6.61121826171875,-0.0009926559869199991,-0.00939205288887024,0.02298380434513092
1761131745118218200,6.62121826171875,0.0014508049935102463,-0.0069485921412706375,0.02603813074529171
1761131745128218400,6.63121826171875,-0.0009926559869199991,-0.004505131393671036,0.027259862050414085
1761131745138218200,6.64121826171875,-0.00038179077091626823,-0.005115996580570936,0.024205535650253296
1761131745148219100,6.65121923828125,0.002672535367310047,-0.012446379289031029,0.01748601719737053
1761131745158219000,6.661218994140625,0.0014508049935102463,-0.015500705689191818,0.010155634954571724
1761131745168219100,6.67121923828125,-0.0016035212902352214,-0.016722436994314194,0.004046982154250145
1761131745178219000,6.681218994140625,-0.00038179077091626823,-0.00939205288887024,0.006490443367511034
1761131745188219100,6.69121923828125,0.000839939690195024,0.002825251780450344,0.011377365328371525
1761131745198219000,6.701218994140625,0.0014508049935102463,0.015653422102332115,0.015653422102332115
1761131745208219100,6.71121923828125,-0.0016035212902352214,0.018096882849931717,0.016264287754893303
1761131745218219000,6.721218994140625,-0.004657847341150045,0.021762074902653694,0.011377365328371525
1761131745228219100,6.73121923828125,-0.004657847341150045,0.018096882849931717,0.006490443367511034
1761131745238219000,6.741218994140625,-0.004657847341150045,0.006490443367511034,0.004046982154250145
1761131745248218400,6.75121826171875,-0.0009926559869199991,-0.0038942659739404917,0.0071013085544109344
1761131745258218200,6.76121826171875,0.00022907447419129312,-0.005115996580570936,0.012599095702171326
1761131745268218400,6.77121826171875,-0.014431691728532314,0.005268712528049946,0.011377365328371525
1761131745278218200,6.78121826171875,-0.014431691728532314,-0.008170322515070438,0.021151209250092506
1761131745288218000,6.791218017578125,0.0020616701804101467,-0.008170322515070438,0.021151209250092506
1761131745298218200,6.80121826171875,0.007559457328170538,-0.005115996580570936,0.0022143865935504436
1761131745308218400,6.81121826171875,0.0069485921412706375,-0.01366810966283083,-0.010002918541431427
1761131745318218200,6.82121826171875,0.0014508049935102463,-0.019776761531829834,-0.014278975315392017
1761131745328218000,6.831218017578125,-0.004046982154250145,-0.0264962799847126,-0.011835514567792416
1761131745338218200,6.84121826171875,-0.005268712528049946,-0.019776761531829834,-0.0038942659739404917
1761131745348219100,6.85121923828125,-0.006490443367511034,-0.002672535367310047,0.0071013085544109344
1761131745358219000,6.861218994140625,-0.0071013085544109344,0.006490443367511034,0.01748601719737053
1761131745368219100,6.87121923828125,-0.005268712528049946,0.006490443367511034,0.02603813074529171
1761131745378219000,6.881218994140625,-0.0009926559869199991,0.005268712528049946,0.03153591975569725
1761131745388219100,6.89121923828125,0.0014508049935102463,0.010766499675810337,0.027259862050414085
1761131745398219000,6.901218994140625,0.008170322515070438,0.012599095702171326,0.011988230049610138
1761131745408219100,6.91121923828125,0.007559457328170538,0.002825251780450344,-0.00022907447419129312
1761131745418219000,6.921218994140625,0.0038942659739404917,-0.0032834007870405912,-0.006337726954370737
1761131745428219100,6.93121923828125,0.005115996580570936,-0.010002918541431427,-0.005115996580570936
1761131745438219000,6.941218994140625,0.005726861767470837,-0.012446379289031029,-0.00022907447419129312
1761131745448218400,6.95121826171875,0.004505131393671036,-0.011835514567792416,0.006490443367511034
1761131745458218200,6.96121826171875,0.0020616701804101467,-0.007559457328170538,0.013209961354732513
1761131745468218400,6.97121826171875,0.000839939690195024,-0.00022907447419129312,0.014431691728532314
1761131745478218200,6.98121826171875,0.0014508049935102463,0.010155634954571724,0.011377365328371525
1761131745488218400,6.99121826171875,0.0069485921412706375,0.013820826075971127,0.015042556449770927
1761131745498218200,7.00121826171875,0.011835514567792416,0.009544769302010536,0.02054034359753132
1761131745508218400,7.01121826171875,0.01794416643679142,0.0016035212902352214,0.018707748502492905
1761131745518218200,7.02121826171875,0.02038762718439102,-0.0069485921412706375,0.010155634954571724
1761131745528218400,7.03121826171875,0.019165897741913795,-0.013057244941592216,-0.0020616701804101467
1761131745538218200,7.04121826171875,0.013057244941592216,-0.016722436994314194,-0.013057244941592216
1761131745548219100,7.05121923828125,0.005115996580570936,-0.01061378326267004,-0.02099849283695221
1761131745558219000,7.061218994140625,0.002672535367310047,-0.000839939690195024,-0.022831087931990623
1761131745568219100,7.07121923828125,0.0020616701804101467,-0.00022907447419129312,-0.01488984003663063
1761131745578219000,7.081218994140625,0.0014508049935102463,-0.0038942659739404917,-0.0032834007870405912
1761131745588219100,7.09121923828125,0.0020616701804101467,-0.0032834007870405912,0.0022143865935504436
1761131745598219300,7.10121923828125,0.006337726954370737,0.0022143865935504436,0.0009926559869199991
1761131745608219100,7.11121923828125,0.00939205288887024,0.002825251780450344,-0.002672535367310047
1761131745618219300,7.12121923828125,0.007559457328170538,0.0034361169673502445,-0.005115996580570936
1761131745628219100,7.13121923828125,0.00022907447419129312,-0.0014508049935102463,-0.00939205288887024
1761131745638219300,7.14121923828125,-0.0022143865935504436,-0.005115996580570936,-0.008170322515070438
1761131745648218400,7.15121826171875,-0.0016035212902352214,-0.006337726954370737,-0.005726861767470837
1761131745658218200,7.16121826171875,0.0014508049935102463,-0.005115996580570936,-0.0020616701804101467
1761131745668218400,7.17121826171875,0.006337726954370737,-0.007559457328170538,0.00038179077091626823
1761131745678218200,7.18121826171875,0.007559457328170538,-0.013057244941592216,0.0034361169673502445
1761131745688218400,7.19121826171875,0.0038942659739404917,-0.00939205288887024,0.0022143865935504436
1761131745698218200,7.20121826171875,-0.005879578180611134,-0.0032834007870405912,0.0016035212902352214
1761131745708218400,7.21121826171875,-0.011377365328371525,-0.005726861767470837,0.007712173741310835
1761131745718218200,7.22121826171875,-0.010766499675810337,-0.010002918541431427,0.013820826075971127
1761131745728218400,7.23121826171875,-0.010766499675810337,-0.011224648915231228,0.011377365328371525
1761131745738218200,7.24121826171875,-0.0016035212902352214,-0.010002918541431427,0.004046982154250145
1761131745748219100,7.25121923828125,0.00939205288887024,-0.01366810966283083,-0.005726861767470837
1761131745758219300,7.26121923828125,0.011224648915231228,-0.017333300784230232,-0.01366810966283083
1761131745768219100,7.27121923828125,0.01061378326267004,-0.021609358489513397,-0.019776761531829834
1761131745778219300,7.28121923828125,0.008781188167631626,-0.02344195358455181,-0.022831087931990623
1761131745788219100,7.29121923828125,0.0038942659739404917,-0.02038762718439102,-0.02344195358455181
1761131745798219300,7.30121923828125,0.0014508049935102463,-0.013057244941592216,-0.018555032089352608
1761131745808219100,7.31121923828125,-0.002825251780450344,-0.008781188167631626,-0.019776761531829834
1761131745818219300,7.32121923828125,-0.0016035212902352214,-0.005726861767470837,-0.013057244941592216
1761131745828219100,7.33121923828125,-0.004657847341150045,-0.01061378326267004,-0.005726861767470837
1761131745838219300,7.34121923828125,-0.0071013085544109344,-0.015500705689191818,-0.000839939690195024
1761131745848218400,7.35121826171875,-0.004657847341150045,-0.016111571341753006,-0.005726861767470837
1761131745858218500,7.361218505859375,-0.004657847341150045,-0.016111571341753006,-0.013057244941592216
1761131745868218400,7.37121826171875,-0.0034361169673502445,-0.017333300784230232,-0.016111571341753006
1761131745878218200,7.38121826171875,-0.002825251780450344,-0.015500705689191818,-0.011835514567792416
1761131745888218400,7.39121826171875,0.00022907447419129312,-0.012446379289031029,-0.008170322515070438
1761131745898218200,7.40121826171875,0.0014508049935102463,-0.006337726954370737,-0.00939205288887024
1761131745908218400,7.41121826171875,0.006337726954370737,-0.00022907447419129312,-0.016722436994314194
1761131745918218200,7.42121826171875,0.0069485921412706375,-0.007559457328170538,-0.0264962799847126
1761131745928218400,7.43121826171875,0.0038942659739404917,-0.01366810966283083,-0.03199406713247299
1761131745938218200,7.44121826171875,0.0020616701804101467,-0.02038762718439102,-0.031383201479911804
1761131745948219100,7.45121923828125,-0.0022143865935504436,-0.024052819237113,-0.025274548679590225
1761131745958219000,7.461218994140625,-0.008323038928210735,-0.022831087931990623,-0.014278975315392017
1761131745968219100,7.47121923828125,-0.013209961354732513,-0.016111571341753006,-0.0020616701804101467
1761131745978219300,7.48121923828125,-0.008933904580771923,-0.005726861767470837,0.008323038928210735
1761131745988219100,7.49121923828125,-0.004046982154250145,0.004657847341150045,0.012599095702171326
1761131745998219300,7.50121923828125,-0.00038179077091626823,0.007712173741310835,0.010766499675810337
1761131746008219100,7.51121923828125,0.0032834007870405912,0.008933904580771923,0.006490443367511034
1761131746018219300,7.52121923828125,0.0069485921412706375,0.004046982154250145,0.0034361169673502445
1761131746028219100,7.53121923828125,0.008781188167631626,-0.002672535367310047,-0.000839939690195024
1761131746038219300,7.54121923828125,0.005726861767470837,-0.005115996580570936,-0.0069485921412706375
1761131746048218400,7.55121826171875,0.005726861767470837,-0.005726861767470837,-0.007559457328170538
1761131746058218200,7.56121826171875,0.005726861767470837,-0.005726861767470837,-0.006337726954370737
1761131746068218400,7.57121826171875,0.002672535367310047,-0.0069485921412706375,-0.0020616701804101467
1761131746078218200,7.58121826171875,0.000839939690195024,-0.004505131393671036,0.004046982154250145
1761131746088218400,7.59121826171875,0.0038942659739404917,0.004657847341150045,0.011377365328371525
1761131746098218200,7.60121826171875,0.005115996580570936,0.006490443367511034,0.024205535650253296
1761131746108218400,7.61121826171875,0.007559457328170538,0.010155634954571724,0.03275764733552933
1761131746118218200,7.62121826171875,0.011224648915231228,0.010766499675810337,0.02848159149289131
1761131746128218400,7.63121826171875,0.016111571341753006,0.006490443367511034,0.011988230049610138
1761131746138218200,7.64121826171875,0.022220224142074585,-0.0014508049935102463,-0.010002918541431427
1761131746148219100,7.65121923828125,0.01366810966283083,-0.000839939690195024,-0.008170322515070438
1761131746158219300,7.66121923828125,-0.005879578180611134,0.0009926559869199991,0.005879578180611134
1761131746168219100,7.67121923828125,-0.033368512988090515,0.010766499675810337,0.002825251780450344
1761131746178219300,7.68121923828125,-0.08651378750801086,0.0895681157708168,0.10422888398170471
1761131746198219300,7.70121923828125,-0.0492510087788105,0.011988230049610138,0.01748601719737053
1761131746208219100,7.71121923828125,-0.0016035212902352214,-0.0020616701804101467,-0.0014508049935102463
1761131746218219300,7.72121923828125,0.030772335827350616,-0.004505131393671036,-0.005115996580570936
1761131746228219100,7.73121923828125,0.036880988627672195,0.005268712528049946,-0.0020616701804101467
1761131746238219300,7.74121923828125,0.022831087931990623,0.015042556449770927,-0.00022907447419129312
1761131746248218400,7.75121826171875,0.01794416643679142,0.013820826075971127,0.008323038928210735
1761131746258218200,7.76121826171875,0.019776761531829834,0.0022143865935504436,0.011377365328371525
1761131746268218400,7.77121826171875,-0.004657847341150045,-0.00939205288887024,-0.0020616701804101467
1761131746278218200,7.78121826171875,-0.05047274008393288,-0.031383201479911804,-0.012446379289031029
1761131746288218400,7.79121826171875,-0.06330090761184692,-0.039935316890478134,-0.0014508049935102463
