time,seconds_elapsed,z,y,x
1761132555566660900,0.085660888671875,2.7555599212646484,-0.16833710670471191,0.5683746337890625
1761132555586662000,0.105661865234375,2.764235496520996,-0.1739354133605957,0.6310178637504578
1761132555596674800,0.1156748046875,2.7679309844970703,-0.17550945281982422,0.6591954231262207
1761132555606683400,0.125683349609375,2.7713088989257812,-0.1764848232269287,0.6857906579971313
1761132555616690000,0.13568994140625,2.791956901550293,-0.2101426124572754,0.7535339593887329
1761132555626695200,0.145695068359375,2.809645652770996,-0.2391810417175293,0.8067969083786011
1761132555636699400,0.155699462890625,2.8237533569335938,-0.261533260345459,0.849240779876709
1761132555646703000,0.165703125,2.8343400955200195,-0.27663660049438477,0.8844695091247559
1761132555656706600,0.17570654296875,2.8421669006347656,-0.28556156158447266,0.9158775806427002
1761132555666709500,0.18570947265625,2.8497447967529297,-0.2920558452606201,0.9512176513671875
1761132555676712200,0.195712158203125,2.8590545654296875,-0.29974961280822754,0.9940297603607178
1761132555686714400,0.20571435546875,2.8702173233032227,-0.3082752227783203,1.0452498197555542
1761132555696716800,0.215716796875,2.881991386413574,-0.3154940605163574,1.10148024559021
1761132555706718700,0.22571875,2.8922672271728516,-0.31874942779541016,1.1558648347854614
1761132555716720600,0.235720703125,2.8991355895996094,-0.3160977363586426,1.2020798921585083
1761132555726722300,0.245722412109375,2.9016828536987305,-0.3071107864379883,1.2366454601287842
1761132555736723700,0.2557236328125,2.8998050689697266,-0.29210543632507324,1.2589669227600098
1761132555746725000,0.26572509765625,2.8940820693969727,-0.27217721939086914,1.2702151536941528
1761132555756726500,0.2757265625,2.8856201171875,-0.24884557723999023,1.273276448249817
1761132555766728000,0.28572802734375,2.875560760498047,-0.22299432754516602,1.2724528312683105
1761132555776728000,0.29572802734375,2.8643980026245117,-0.1942734718322754,1.2710494995117188
1761132555786729200,0.305729248046875,2.8519115447998047,-0.16185903549194336,1.2693958282470703
1761132555796730400,0.31573046875,0.009354591369628906,-0.8248872756958008,1.058234453201294
1761132555806731500,0.3257314453125,0.01648235321044922,-0.8772492408752441,1.0497024059295654
1761132555816732700,0.335732666015625,-0.11465167999267578,-0.8313479423522949,0.9962627291679382
1761132555826733600,0.345733642578125,-0.11288261413574219,-0.8226189613342285,1.0231602191925049
1761132555836734700,0.355734619140625,-0.40254783630371094,-0.2901270389556885,0.6495527029037476
1761132555846735600,0.365735595703125,-0.4894542694091797,-0.06549358367919922,0.5025582313537598
1761132555856736500,0.375736572265625,-0.6727943420410156,0.009298086166381836,0.5026624202728271
1761132555866737400,0.3857373046875,-0.6604185104370117,-0.011522054672241211,0.526221752166748
1761132555876738300,0.39573828125,-0.9424219131469727,0.0556797981262207,0.9466400146484375
1761132555886738400,0.405738525390625,-0.8940639495849609,0.10394549369812012,1.1608675718307495
1761132555896738300,0.41573828125,-0.7824764251708984,0.14220738410949707,1.3509745597839355
1761132555906738400,0.425738525390625,-0.5164804458618164,0.26205921173095703,1.4508951902389526
1761132555916738300,0.43573828125,-0.18907737731933594,0.37049126625061035,1.332918405532837
1761132555926738400,0.445738525390625,0.23463821411132812,0.39495015144348145,1.1606501340866089
1761132555936738300,0.45573828125,0.7332582473754883,0.36514782905578613,0.9554125666618347
1761132555946738400,0.465738525390625,1.3008441925048828,0.3391079902648926,0.7403351068496704
1761132555956738300,0.47573828125,1.7908334732055664,0.3708462715148926,0.5291523337364197
1761132555966738400,0.485738525390625,2.3801193237304688,0.4026830196380615,0.3595881462097168
1761132555976737500,0.495737548828125,3.028270721435547,0.36650824546813965,0.2609703540802002
1761132555986737400,0.5057373046875,3.6139841079711914,0.2824437618255615,0.13808989524841309
1761132555996737500,0.515737548828125,4.1429595947265625,0.14373016357421875,0.0015904903411865234
1761132556006737400,0.5257373046875,4.352630615234375,0.00823354721069336,0.011290311813354492
1761132556016737500,0.535737548828125,4.2782135009765625,-0.1572401523590088,0.1227409839630127
1761132556026737400,0.5457373046875,3.7785205841064453,-0.3363964557647705,0.34536266326904297
1761132556036737500,0.555737548828125,3.267984390258789,-0.4045116901397705,0.43963372707366943
1761132556046737700,0.565737548828125,2.7425384521484375,-0.292208194732666,0.3295445442199707
1761132556056737500,0.575737548828125,2.364849090576172,-0.10086822509765625,0.09206509590148926
1761132556066737700,0.585737548828125,2.2149276733398438,-0.004678487777709961,-0.08661818504333496
1761132556076738300,0.59573828125,2.250568389892578,-0.07834792137145996,-0.07250547409057617
1761132556086738400,0.605738525390625,2.507284164428711,-0.2740442752838135,0.12875688076019287
1761132556096738600,0.615738525390625,2.8614749908447266,-0.5125672817230225,0.4746229648590088
1761132556106738400,0.625738525390625,3.1784133911132812,-0.7880821228027344,0.9955857992172241
1761132556116738600,0.635738525390625,3.4224634170532227,-1.0124731063842773,1.6109240055084229
1761132556126738400,0.645738525390625,3.430027961730957,-1.1772750616073608,2.141023874282837
1761132556136738600,0.655738525390625,3.170346260070801,-1.3300446271896362,2.570054769515991
1761132556146738400,0.665738525390625,2.702974319458008,-1.386095404624939,2.837336301803589
1761132556156738600,0.675738525390625,2.1413936614990234,-1.397704005241394,2.804011344909668
1761132556166738400,0.685738525390625,1.435546875,-1.4397145509719849,2.4495131969451904
1761132556176737800,0.69573779296875,1.4543914794921875,-1.4908250570297241,2.465139627456665
1761132556186737700,0.705737548828125,-0.34926700592041016,-1.5782502889633179,1.6935901641845703
1761132556196737500,0.715737548828125,-1.301130771636963,-1.6589642763137817,1.511974811553955
1761132556206737700,0.725737548828125,-2.2010302543640137,-1.6673545837402344,1.3643081188201904
1761132556216737500,0.735737548828125,-3.0755796432495117,-1.6068300008773804,1.2462776899337769
1761132556226737700,0.745737548828125,-3.907775402069092,-1.475562572479248,1.177673101425171
1761132556236737500,0.755737548828125,-4.522530555725098,-1.3773822784423828,1.1654924154281616
1761132556246737700,0.765737548828125,-4.972660064697266,-1.273719072341919,1.1318097114562988
1761132556256737500,0.775737548828125,-5.278200149536133,-1.1763887405395508,1.082872748374939
1761132556266737700,0.785737548828125,-5.4579267501831055,-1.1487953662872314,0.992779552936554
1761132556276738600,0.795738525390625,-5.424909591674805,-1.217057704925537,1.0078401565551758
1761132556286738400,0.805738525390625,-5.309664726257324,-1.0393123626708984,0.8988685607910156
1761132556296738600,0.815738525390625,-5.172978401184082,-1.0411295890808105,0.9778465628623962
1761132556306738400,0.825738525390625,-4.942531585693359,-1.0341005325317383,1.0817201137542725
1761132556316738600,0.835738525390625,-4.545701026916504,-0.9734032154083252,1.1154577732086182
1761132556326738400,0.845738525390625,-4.041871070861816,-0.9525129795074463,1.1531081199645996
1761132556336738600,0.855738525390625,-3.353475570678711,-0.9531219005584717,1.1450680494308472
1761132556346738400,0.865738525390625,-2.537087917327881,-0.9947161674499512,1.1282819509506226
1761132556356738600,0.875738525390625,-1.70481538772583,-1.0162079334259033,1.0027499198913574
1761132556366738400,0.885738525390625,-0.9217619895935059,-1.0046327114105225,0.8959441184997559
1761132556376737500,0.895737548828125,-0.3469047546386719,-1.0036249160766602,0.6408064961433411
1761132556386737700,0.905737548828125,0.15114498138427734,-0.9641122817993164,0.4163777828216553
1761132556396737500,0.915737548828125,0.5809869766235352,-0.8551971912384033,0.19743889570236206
1761132556406737700,0.925737548828125,0.8611602783203125,-0.7398293018341064,0.04268181324005127
1761132556416737500,0.935737548828125,0.9918813705444336,-0.6664736270904541,0.029948115348815918
1761132556426737700,0.945737548828125,0.9778022766113281,-0.6349127292633057,0.018837332725524902
1761132556436737500,0.955737548828125,1.7606868743896484,-0.30509448051452637,0.14911597967147827
1761132556446737700,0.965737548828125,2.0600128173828125,-0.3154020309448242,0.26901572942733765
1761132556456737500,0.975737548828125,2.23773193359375,-0.4201242923736572,0.29539453983306885
1761132556466737400,0.9857373046875,2.301398277282715,-0.41402125358581543,0.2413143515586853
1761132556476738300,0.99573828125,2.4699344635009766,-0.3768651485443115,0.18211054801940918
1761132556486738400,1.005738525390625,2.786707878112793,-0.407912015914917,0.24292618036270142
1761132556496738300,1.01573828125,3.2169551849365234,-0.5303554534912109,0.44109874963760376
1761132556506738400,1.025738525390625,3.468791961669922,-0.6466233730316162,0.5503590106964111
1761132556516738300,1.03573828125,3.5998077392578125,-0.742490291595459,0.5797374248504639
1761132556526738400,1.045738525390625,3.5786876678466797,-0.6893622875213623,0.5596328973770142
1761132556536738300,1.05573828125,3.587466239929199,-0.5452315807342529,0.7481358647346497
1761132556546738400,1.065738525390625,3.562893867492676,-0.4528496265411377,1.0325950384140015
1761132556556738300,1.07573828125,3.5427141189575195,-0.39010167121887207,1.044371247291565
1761132556566738400,1.085738525390625,3.5438671112060547,-0.29521608352661133,1.6996691226959229
1761132556576737500,1.095737548828125,3.681753158569336,-0.3726341724395752,2.017702579498291
1761132556586737400,1.1057373046875,4.019667625427246,-0.590489387512207,2.3890469074249268
1761132556596737500,1.115737548828125,4.341620445251465,-0.9656606912612915,2.6323208808898926
1761132556606737400,1.1257373046875,4.567371368408203,-1.3038201332092285,2.7374706268310547
1761132556616737500,1.135737548828125,4.565613746643066,-1.5813015699386597,2.708979606628418
1761132556626737400,1.1457373046875,4.332221984863281,-1.7440823316574097,2.480679988861084
1761132556636737500,1.155737548828125,3.8530492782592773,-1.745302677154541,2.105679512023926
1761132556646737400,1.1657373046875,3.854471206665039,-1.7011396884918213,2.2098217010498047
1761132556656737500,1.175737548828125,3.299715042114258,-1.7377805709838867,1.9829829931259155
1761132556666737700,1.185737548828125,2.0317840576171875,-1.7498338222503662,1.9850462675094604
1761132556676738300,1.19573828125,1.4774351119995117,-1.528642177581787,2.2791645526885986
1761132556686738400,1.205738525390625,0.9514598846435547,-1.2434346675872803,2.7445929050445557
1761132556696738600,1.215738525390625,0.44113922119140625,-1.0446581840515137,3.433847427368164
1761132556706738400,1.225738525390625,0.4613981246948242,-1.0982613563537598,3.462674856185913
1761132556716738600,1.235738525390625,-0.5491247177124023,-0.8182204961776733,4.395022392272949
1761132556726738700,1.24573876953125,-1.0378046035766602,-0.7646911144256592,4.431478023529053
1761132556736738600,1.255738525390625,-1.0256175994873047,-0.8222861289978027,4.40631103515625
1761132556746738700,1.26573876953125,-2.024165153503418,-0.8008556365966797,3.7666304111480713
1761132556756738600,1.275738525390625,-2.3593478202819824,-0.8418500423431396,3.350677967071533
1761132556766738700,1.28573876953125,-2.653069496154785,-0.9227738380432129,2.9050486087799072
1761132556776737800,1.29573779296875,-2.844694137573242,-0.9195806980133057,2.424009323120117
1761132556786737700,1.305737548828125,-2.9751882553100586,-0.8431434631347656,1.9943230152130127
1761132556796737800,1.31573779296875,-3.059809684753418,-0.7763936519622803,1.725041151046753
1761132556806737700,1.325737548828125,-3.0054616928100586,-0.6641099452972412,1.4212167263031006
1761132556816737800,1.33573779296875,-2.88814115524292,-0.47908926010131836,1.2775585651397705
1761132556826737700,1.345737548828125,-2.701901912689209,-0.28632521629333496,1.203476905822754
1761132556836737800,1.35573779296875,-2.488417148590088,-0.17573070526123047,1.2606642246246338
1761132556846737700,1.365737548828125,-2.209348201751709,-0.10093975067138672,1.4143153429031372
1761132556856737800,1.37573779296875,-1.9811716079711914,-0.02953052520751953,1.5949729681015015
1761132556866737700,1.385737548828125,-1.9873456954956055,-0.031374216079711914,1.563907265663147
1761132556876738600,1.395738525390625,-1.494009017944336,0.023038148880004883,1.7407286167144775
1761132556886738700,1.40573876953125,-1.0393915176391602,0.09162354469299316,1.6066192388534546
1761132556896738600,1.415738525390625,-0.6596832275390625,0.09629392623901367,1.5489234924316406
1761132556906738700,1.42573876953125,-0.35888099670410156,0.04122018814086914,1.5436928272247314
1761132556916738600,1.435738525390625,-0.025298118591308594,-0.019914865493774414,1.5173383951187134
1761132556926738700,1.44573876953125,0.15265464782714844,-0.06594014167785645,1.4828089475631714
1761132556936738600,1.455738525390625,0.175506591796875,-0.09953022003173828,1.4022074937820435
1761132556946738700,1.46573876953125,0.25014400482177734,-0.0016901493072509766,1.368978500366211
1761132556956738600,1.475738525390625,0.3419656753540039,0.10242700576782227,1.3351008892059326
1761132556966738700,1.48573876953125,0.4781045913696289,0.08152389526367188,1.3326711654663086
1761132556976737800,1.49573779296875,0.527012825012207,-0.01612544059753418,1.3395520448684692
1761132556986737700,1.505737548828125,0.4054756164550781,-0.03589749336242676,1.244931697845459
1761132556996737800,1.51573779296875,0.21466445922851562,0.05433225631713867,1.1358578205108643
1761132557006737700,1.525737548828125,-0.11233806610107422,0.16252732276916504,1.0440673828125
1761132557016737500,1.535737548828125,-0.48226356506347656,0.19256877899169922,0.9485216736793518
1761132557026737700,1.545737548828125,-0.8519926071166992,0.25970935821533203,0.8327265381813049
1761132557036737500,1.555737548828125,-1.1288208961486816,0.3969895839691162,0.643501341342926
1761132557049964300,1.56896435546875,-1.4059491157531738,0.47508978843688965,0.49990296363830566
1761132557059964400,1.57896435546875,-1.5382170677185059,0.5554556846618652,0.41006696224212646
1761132557069964300,1.58896435546875,-1.4707508087158203,0.6252706050872803,0.32292914390563965
1761132557079965200,1.598965087890625,-1.1784253120422363,0.6220295429229736,0.384863018989563
1761132557089965000,1.608965087890625,-0.6675291061401367,0.48792386054992676,0.554585337638855
1761132557099965200,1.618965087890625,0.04780006408691406,0.40264058113098145,0.8479799628257751
1761132557109965300,1.62896533203125,0.6791057586669922,0.42696380615234375,0.8944113850593567
1761132557119965200,1.638965087890625,1.2128028869628906,0.4240994453430176,0.740670382976532
1761132557129965300,1.64896533203125,1.7106657028198242,0.4664442539215088,0.5480438470840454
1761132557139965200,1.658965087890625,2.1069555282592773,0.5480456352233887,0.3072936534881592
1761132557149965300,1.66896533203125,2.4940719604492188,0.6914327144622803,0.17957139015197754
1761132557159965200,1.678965087890625,3.07235050201416,0.8647325038909912,0.1290428638458252
1761132557169965300,1.68896533203125,3.7284774780273438,0.8998360633850098,0.21626043319702148
1761132557179964400,1.69896435546875,4.52168083190918,0.7302868366241455,0.39278173446655273
1761132557189964300,1.70896435546875,5.396048545837402,0.46920180320739746,0.5495773553848267
1761132557199964400,1.71896435546875,6.105182647705078,0.11765527725219727,0.6741905808448792
1761132557209964300,1.72896435546875,6.357550621032715,-0.3472156524658203,0.7305927872657776
1761132557219964400,1.73896435546875,6.008537292480469,-0.6537806987762451,0.6245606541633606
1761132557229964300,1.74896435546875,5.233271598815918,-0.6558282375335693,0.3237243890762329
1761132557239964400,1.75896435546875,4.08003044128418,-0.42617249488830566,0.10245418548583984
1761132557249964300,1.76896435546875,2.9227657318115234,-0.22237777709960938,0.1324751377105713
1761132557259964400,1.77896435546875,1.9030628204345703,-0.03425407409667969,0.3160492181777954
1761132557269964300,1.78896435546875,1.2837104797363281,0.21491718292236328,0.359014630317688
1761132557279965200,1.798965087890625,1.1867942810058594,0.260087251663208,0.5597929954528809
1761132557289965300,1.80896533203125,1.5196409225463867,0.0077016353607177734,1.0486631393432617
1761132557299965200,1.818965087890625,2.01438045501709,-0.37215209007263184,1.6101754903793335
1761132557309965300,1.82896533203125,2.369943618774414,-0.6257023811340332,1.98580801486969
1761132557319965200,1.838965087890625,2.5588760375976562,-0.7775070667266846,2.224005937576294
1761132557329965300,1.84896533203125,2.426632881164551,-0.9975790977478027,2.4082884788513184
1761132557339965200,1.858965087890625,2.4361400604248047,-1.0418131351470947,2.3564064502716064
1761132557349965300,1.86896533203125,1.167409896850586,-1.2878823280334473,2.344923973083496
1761132557359965200,1.878965087890625,0.32759666442871094,-1.3700156211853027,1.9442641735076904
1761132557369965300,1.88896533203125,-0.4649181365966797,-1.423588514328003,1.5388476848602295
1761132557379964400,1.89896435546875,-1.1737933158874512,-1.5061702728271484,1.3096911907196045
1761132557389964300,1.90896435546875,-1.9789471626281738,-1.6832225322723389,1.1843843460083008
1761132557399964400,1.91896435546875,-2.6305508613586426,-1.7703022956848145,1.151366949081421
1761132557409964300,1.92896435546875,-3.2384982109069824,-1.769505500793457,1.2199639081954956
1761132557419964400,1.93896435546875,-3.838003635406494,-1.7342040538787842,1.3171637058258057
1761132557429964300,1.94896435546875,-4.332517147064209,-1.7148528099060059,1.474087119102478
1761132557439964400,1.95896435546875,-4.6567816734313965,-1.6876139640808105,1.613365650177002
1761132557449964300,1.96896435546875,-4.849377155303955,-1.650684118270874,1.7006356716156006
1761132557459964400,1.97896435546875,-4.828741550445557,-1.7056467533111572,1.7688854932785034
1761132557469964300,1.98896435546875,-4.658016681671143,-1.8149306774139404,1.800896167755127
1761132557479965200,1.998965087890625,-4.468705654144287,-1.9212017059326172,1.8067357540130615
1761132557489965000,2.008965087890625,-4.264576435089111,-1.9829611778259277,1.8996777534484863
1761132557499965200,2.018965087890625,-4.073081016540527,-2.0213193893432617,1.9082672595977783
1761132557509965000,2.028965087890625,-3.864870071411133,-2.005725383758545,1.768126130104065
1761132557519965200,2.038965087890625,-3.4817419052124023,-1.9839954376220703,1.4446654319763184
1761132557529965000,2.048965087890625,-2.945950984954834,-1.9251065254211426,1.245125412940979
1761132557539965200,2.058965087890625,-2.4501004219055176,-1.9390816688537598,1.1552284955978394
1761132557549965000,2.068965087890625,-1.9416327476501465,-1.9509024620056152,1.1216140985488892
1761132557559965200,2.078965087890625,-1.4349350929260254,-1.8521990776062012,1.0560261011123657
1761132557569965000,2.088965087890625,-0.9789729118347168,-1.7272231578826904,0.8882256150245667
1761132557579964200,2.098964111328125,-0.7021989822387695,-1.5877559185028076,0.6806652545928955
1761132557589964300,2.10896435546875,-0.3836183547973633,-1.4906585216522217,0.3294122815132141
1761132557599964200,2.118964111328125,-0.13551712036132812,-1.4151954650878906,-0.015720248222351074
1761132557609964300,2.12896435546875,0.003032684326171875,-1.3393869400024414,-0.30806541442871094
1761132557619964200,2.138964111328125,-0.011467933654785156,-1.2989115715026855,-0.38354915380477905
1761132557629964300,2.14896435546875,-0.17499542236328125,-1.2563400268554688,-0.235825777053833
1761132557639964200,2.158964111328125,-0.34001731872558594,-1.1804397106170654,-0.010258138179779053
1761132557649964300,2.16896435546875,-0.30506229400634766,-0.9561309814453125,0.2951318621635437
1761132557659964400,2.17896435546875,-0.040457725524902344,-0.7456698417663574,0.5496587157249451
1761132557669964300,2.18896435546875,0.5190343856811523,-0.6462023258209229,0.8058754205703735
1761132557679965200,2.198965087890625,1.315439224243164,-0.7328834533691406,1.0303694009780884
1761132557689965000,2.208965087890625,1.9645004272460938,-1.0109202861785889,1.1865527629852295
1761132557699965200,2.218965087890625,2.569533348083496,-1.2195465564727783,1.213185429573059
1761132557709965000,2.228965087890625,3.069927215576172,-1.232846736907959,1.1218969821929932
1761132557719965200,2.238965087890625,3.4672012329101562,-1.1974852085113525,1.0667266845703125
1761132557729965000,2.248965087890625,3.8764591217041016,-1.0621120929718018,1.051584005355835
1761132557739965200,2.258965087890625,4.136362075805664,-0.9281091690063477,1.00168776512146
1761132557749965300,2.26896533203125,4.2023468017578125,-0.7821221351623535,0.9734909534454346
1761132557759965200,2.278965087890625,4.142165184020996,-0.7604930400848389,0.9279006719589233
1761132557769965300,2.28896533203125,4.137211799621582,-0.81441330909729,0.7785468101501465
1761132557779964400,2.29896435546875,4.34391975402832,-0.8976638317108154,0.5591984391212463
1761132557789964300,2.30896435546875,4.6101274490356445,-1.0083445310592651,0.3899981379508972
1761132557799964400,2.31896435546875,4.799775123596191,-1.13224458694458,0.27900034189224243
1761132557809964300,2.32896435546875,4.880918502807617,-1.219602108001709,0.21414005756378174
1761132557819964400,2.33896435546875,4.799549102783203,-1.267849326133728,0.26203739643096924
1761132557829964300,2.34896435546875,4.405768394470215,-1.264505386352539,0.49209830164909363
1761132557839964400,2.35896435546875,3.767514228820801,-1.1656948328018188,0.9163298010826111
1761132557849964300,2.36896435546875,3.1313323974609375,-0.8884035348892212,1.1973152160644531
1761132557859964200,2.378964111328125,2.517007827758789,-0.6229895353317261,1.4007086753845215
1761132557869964300,2.38896435546875,1.9794950485229492,-0.45313262939453125,1.6535907983779907
1761132557879965200,2.398965087890625,1.4950246810913086,-0.3788118362426758,1.8825842142105103
1761132557889965000,2.408965087890625,1.0047473907470703,-0.34562015533447266,2.1151835918426514
1761132557899965200,2.418965087890625,0.568476676940918,-0.31508541107177734,2.2587099075317383
1761132557909965300,2.42896533203125,-0.0495452880859375,-0.3172156810760498,2.2896828651428223
1761132557919965200,2.438965087890625,-0.6371173858642578,-0.3352634906768799,2.0884690284729004
1761132557929965300,2.44896533203125,-1.2767362594604492,-0.35755324363708496,1.7938203811645508
1761132557939965200,2.458965087890625,-1.9394454956054688,-0.36170220375061035,1.451119303703308
1761132557949965300,2.46896533203125,-2.465982437133789,-0.30526304244995117,1.1420009136199951
1761132557959965200,2.478965087890625,-2.930790424346924,-0.2771785259246826,0.8910738229751587
1761132557969965300,2.48896533203125,-3.330453872680664,-0.20317602157592773,0.6893693208694458
1761132557979964400,2.49896435546875,-3.5732479095458984,-0.08977508544921875,0.6290115118026733
1761132557989964300,2.50896435546875,-3.776230812072754,0.03545880317687988,0.689887523651123
1761132557999964400,2.51896435546875,-3.921463966369629,0.1204366683959961,0.8555120825767517
1761132558009964300,2.52896435546875,-4.131519794464111,0.189436674118042,1.063174843788147
1761132558019964400,2.53896435546875,-4.320468902587891,0.2529458999633789,1.2463915348052979
1761132558029964300,2.54896435546875,-4.253264904022217,0.3828251361846924,1.4074954986572266
1761132558039964400,2.55896435546875,-4.099924087524414,0.4488368034362793,1.5455646514892578
1761132558049964300,2.56896435546875,-3.892085075378418,0.37395143508911133,1.6720918416976929
1761132558059964400,2.57896435546875,-3.605158805847168,0.24435925483703613,1.6972614526748657
1761132558069964300,2.58896435546875,-2.9871959686279297,0.21298813819885254,1.5659154653549194
1761132558079965200,2.598965087890625,-2.1826767921447754,0.12820672988891602,1.4482438564300537
1761132558089965000,2.608965087890625,-1.5844569206237793,-0.03168153762817383,1.4878668785095215
1761132558099965200,2.618965087890625,-1.1584959030151367,-0.27810144424438477,1.6662191152572632
1761132558109965300,2.62896533203125,-0.7892360687255859,-0.35935163497924805,1.7100176811218262
1761132558119965200,2.638965087890625,-0.17758560180664062,-0.2563662528991699,1.536858081817627
1761132558129965300,2.64896533203125,0.8971939086914062,-0.21016621589660645,1.3370872735977173
1761132558139964700,2.658964599609375,1.9339323043823242,-0.3994626998901367,1.2717839479446411
1761132558149964500,2.668964599609375,2.3533191680908203,-0.6772496700286865,1.222461462020874
1761132558159964700,2.678964599609375,2.310718536376953,-0.8418786525726318,1.0689527988433838
1761132558169964500,2.688964599609375,1.7368202209472656,-0.793380618095398,0.6381620168685913
1761132558179964000,2.6989638671875,1.2013587951660156,-0.6034574508666992,0.5274088382720947
1761132558189963800,2.7089638671875,0.9253997802734375,-0.32160401344299316,0.5041034817695618
1761132558199964000,2.7189638671875,0.4965934753417969,0.03339433670043945,0.483906626701355
1761132558209963800,2.7289638671875,0.05705070495605469,0.23813390731811523,0.6219388842582703
1761132558219963600,2.738963623046875,-0.25830936431884766,0.3124423027038574,0.8139491081237793
1761132558229963800,2.7489638671875,-0.4703044891357422,0.4595170021057129,0.991486668586731
1761132558239963600,2.758963623046875,-0.5144805908203125,0.5890097618103027,1.1281495094299316
1761132558249963800,2.7689638671875,-0.5098810195922852,0.5719561576843262,1.1255193948745728
1761132558259963600,2.778963623046875,0.18453598022460938,0.512657880783081,1.3077199459075928
1761132558269963800,2.7889638671875,0.1760873794555664,0.5264642238616943,1.282077670097351
1761132558279964700,2.798964599609375,0.5661554336547852,0.4721791744232178,1.1468874216079712
1761132558289964500,2.808964599609375,1.1524629592895508,0.5517947673797607,0.4450172185897827
1761132558299964700,2.818964599609375,1.4508380889892578,0.657609224319458,0.2319338321685791
1761132558309964500,2.828964599609375,1.9598751068115234,0.7765450477600098,0.27776455879211426
1761132558319964700,2.838964599609375,2.6378278732299805,0.8356971740722656,0.2963089942932129
1761132558329964500,2.848964599609375,3.427992820739746,0.7932679653167725,0.2976943254470825
1761132558339964400,2.85896435546875,4.345715522766113,0.6068456172943115,0.3730827569961548
1761132558349964500,2.868964599609375,5.191387176513672,0.3353142738342285,0.538038969039917
1761132558359964400,2.87896435546875,5.803603172302246,0.017219066619873047,0.6587512493133545
1761132558369964500,2.888964599609375,5.90715217590332,-0.3634669780731201,0.5331248641014099
1761132558379963600,2.898963623046875,5.447559356689453,-0.5567038059234619,0.17984747886657715
1761132558389963500,2.908963623046875,4.489392280578613,-0.39366018772125244,-0.22823750972747803
1761132558399963600,2.918963623046875,3.361172676086426,-0.07851767539978027,-0.4316343069076538
1761132558409963500,2.928963623046875,2.1472091674804688,0.3636288642883301,-0.4670521020889282
1761132558419963600,2.938963623046875,1.0315942764282227,0.7191469669342041,-0.3157113790512085
1761132558429963500,2.948963623046875,0.40407562255859375,1.018395185470581,0.06364011764526367
1761132558439964200,2.958964111328125,0.4772653579711914,1.067145586013794,0.4233968257904053
1761132558449964300,2.96896435546875,1.126957893371582,0.714155912399292,0.7324167490005493
1761132558459964200,2.978964111328125,2.025714874267578,0.0828549861907959,1.0680782794952393
1761132558469964300,2.98896435546875,2.9190196990966797,-0.41428208351135254,1.3447747230529785
1761132558479965200,2.998965087890625,3.8278350830078125,-0.7828000783920288,1.4857430458068848
1761132558489965000,3.008965087890625,4.385514259338379,-1.1665079593658447,1.5144448280334473
1761132558499965200,3.018965087890625,4.383243560791016,-1.498070240020752,1.5212996006011963
1761132558509965000,3.028965087890625,3.92720890045166,-1.710942268371582,1.4154102802276611
1761132558519965200,3.038965087890625,3.0191850662231445,-1.7211790084838867,1.1316726207733154
1761132558529965000,3.048965087890625,1.9996614456176758,-1.699779987335205,0.7348026037216187
1761132558549964800,3.06896484375,0.6623945236206055,-1.8460756540298462,0.5126499533653259
1761132558569964800,3.08896484375,-2.6277880668640137,-1.913711428642273,0.6706506609916687
1761132558579964000,3.0989638671875,-3.5170516967773438,-1.8967220783233643,0.8361193537712097
1761132558589963800,3.1089638671875,-3.4641904830932617,-2.047985553741455,0.8384395241737366
1761132558599964000,3.1189638671875,-4.885677814483643,-1.8041826486587524,1.4013586044311523
1761132558609963800,3.1289638671875,-5.298320770263672,-1.8036344051361084,1.6276781558990479
1761132558619964000,3.1389638671875,-5.59255313873291,-1.8261855840682983,1.8030346632003784
1761132558629963800,3.1489638671875,-5.7646484375,-1.847719430923462,1.8558030128479004
1761132558649963800,3.1689638671875,-5.5654802322387695,-1.8635132312774658,1.7923558950424194
1761132558659964000,3.1789638671875,-5.526597023010254,-1.9188616275787354,1.743119716644287
1761132558669964000,3.188964111328125,-5.473981857299805,-1.9116179943084717,1.6325972080230713
1761132558679964700,3.198964599609375,-5.337746620178223,-1.928391695022583,1.3858985900878906
1761132558689964800,3.20896484375,-5.113907814025879,-1.9607679843902588,1.201041340827942
1761132558699965000,3.21896484375,-4.795299530029297,-2.027616262435913,1.0294499397277832
1761132558709964800,3.22896484375,-4.44118595123291,-2.1080894470214844,0.7969834804534912
1761132558719964700,3.238964599609375,-4.464759826660156,-2.0625171661376953,0.7614039778709412
1761132558729964800,3.24896484375,-2.8061256408691406,-2.0646262168884277,0.023563146591186523
1761132558739965200,3.258965087890625,-2.142453670501709,-2.0263798236846924,-0.2599061131477356
1761132558749965000,3.268965087890625,-1.553877830505371,-1.9702149629592896,-0.45711666345596313
1761132558759965200,3.278965087890625,-0.75634765625,-1.7969388961791992,-0.5184696912765503
1761132558769965000,3.288965087890625,-0.20878124237060547,-1.6546392440795898,-0.4874545931816101
1761132558779964200,3.298964111328125,-0.23801803588867188,-1.589040994644165,-0.5449724197387695
1761132558819964200,3.338964111328125,0.24732685089111328,-0.8718843460083008,-0.3422285318374634
1761132558829964300,3.34896435546875,0.5413351058959961,-0.7867529392242432,-0.18425095081329346
1761132558839964700,3.358964599609375,0.9266300201416016,-0.7507905960083008,-0.03620836138725281
1761132558849964500,3.368964599609375,1.4856138229370117,-0.7377629280090332,0.11558137089014053
1761132558859964700,3.378964599609375,2.20571231842041,-0.7777786254882812,0.3378356695175171
1761132558869964500,3.388964599609375,3.051799774169922,-0.8467042446136475,0.39676207304000854
1761132558879965400,3.39896533203125,3.861429214477539,-1.0147637128829956,0.2316576987504959
1761132558889965600,3.408965576171875,4.680906295776367,-1.0913571119308472,-0.20995798707008362
1761132558899965400,3.41896533203125,5.15433406829834,-1.0648826360702515,-0.6077436208724976
1761132558909965600,3.428965576171875,5.197999000549316,-0.9764173030853271,-0.9508838057518005
1761132558919965400,3.43896533203125,4.999589920043945,-0.7062803506851196,-1.2538139820098877
1761132558929965600,3.448965576171875,4.616305351257324,-0.3460500240325928,-1.4312362670898438
1761132558939964700,3.458964599609375,4.600045204162598,-0.2623145580291748,-1.341651201248169
1761132558949964500,3.468964599609375,3.647341728210449,0.2553412914276123,-1.4032012224197388
1761132558959964700,3.478964599609375,3.3349132537841797,0.3955576419830322,-1.167562484741211
1761132558969964500,3.488964599609375,3.2301292419433594,0.507759690284729,-0.7076619863510132
1761132558979963600,3.498963623046875,3.4719648361206055,0.5384649038314819,-0.07584172487258911
1761132558989963800,3.5089638671875,4.080504417419434,0.4679006338119507,0.5916987657546997
1761132558999963600,3.518963623046875,4.732708930969238,0.37953758239746094,1.0302693843841553
1761132559009963800,3.5289638671875,5.423070907592773,0.26189589500427246,1.424877405166626
1761132559019963600,3.538963623046875,5.853791236877441,0.10092294216156006,1.789801001548767
1761132559029963800,3.5489638671875,5.95751953125,-0.10132348537445068,2.150282382965088
1761132559039963400,3.55896337890625,5.573049545288086,-0.30188417434692383,2.575747013092041
1761132559049963300,3.56896337890625,4.87168025970459,-0.3159404993057251,2.9790728092193604
1761132559059963400,3.57896337890625,3.8715200424194336,-0.14650249481201172,3.2217962741851807
1761132559069963300,3.58896337890625,2.849733352661133,-0.007166624069213867,3.540088653564453
1761132559079964200,3.598964111328125,1.7670440673828125,0.018238067626953125,3.863748550415039
1761132559089964300,3.60896435546875,0.7991476058959961,-0.0324862003326416,4.212550163269043
1761132559099964200,3.618964111328125,-0.06010723114013672,-0.039510250091552734,4.449599266052246
1761132559109964300,3.62896435546875,-0.7497959136962891,-0.06786799430847168,4.478861331939697
1761132559119964200,3.638964111328125,-1.3574542999267578,-0.09233212471008301,4.370822906494141
1761132559129964300,3.64896435546875,-1.7775864601135254,-0.19417595863342285,4.2585129737854
1761132559139964000,3.6589638671875,-1.74363374710083,-0.3123958110809326,4.268914699554443
1761132559149964000,3.668964111328125,-2.4407973289489746,-0.5616092681884766,3.787031888961792
1761132559159964000,3.6789638671875,-2.7274231910705566,-0.6879088878631592,3.3487534523010254
1761132559169964000,3.688964111328125,-3.0314483642578125,-0.7930877208709717,2.8863792419433594
1761132559179963100,3.698963134765625,-3.392200469970703,-0.8668205738067627,2.503838062286377
1761132559189963000,3.708962890625,-3.7021350860595703,-0.8995733261108398,2.2384467124938965
1761132559199963100,3.718963134765625,-3.9888229370117188,-0.8901433944702148,2.010315179824829
1761132559209963000,3.728962890625,-4.202756881713867,-0.7938945293426514,1.792464017868042
1761132559219963100,3.738963134765625,-4.28066349029541,-0.6402747631072998,1.5828994512557983
1761132559229963000,3.748962890625,-4.160996437072754,-0.4989302158355713,1.447097659111023
1761132559239964000,3.7589638671875,-3.9374046325683594,-0.45620012283325195,1.4644849300384521
1761132559249964000,3.768964111328125,-3.612497329711914,-0.5070443153381348,1.6053470373153687
1761132559259964000,3.7789638671875,-3.2672996520996094,-0.48247599601745605,1.743911623954773
1761132559269964000,3.788964111328125,-2.8751778602600098,-0.381284236907959,1.862906575202942
1761132559279965000,3.79896484375,-2.195695400238037,-0.31514406204223633,1.9219955205917358
1761132559289964800,3.80896484375,-1.4821453094482422,-0.3042128086090088,1.897603988647461
1761132559299965000,3.81896484375,-0.9011526107788086,-0.3560218811035156,1.7672100067138672
1761132559309964800,3.82896484375,-0.3748340606689453,-0.45206332206726074,1.6795680522918701
1761132559319965000,3.83896484375,-0.0675973892211914,-0.5548083782196045,1.4934613704681396
1761132559329964800,3.84896484375,0.08460617065429688,-0.49831175804138184,1.244895577430725
1761132559339965000,3.85896484375,0.168670654296875,-0.3662230968475342,0.9192931056022644
1761132559349965300,3.86896533203125,0.23662376403808594,-0.3543076515197754,0.660076916217804
1761132559359965200,3.878965087890625,0.2500448226928711,-0.3638420104980469,0.6010743379592896
1761132559369965300,3.88896533203125,0.22928619384765625,-0.3941628932952881,0.5787910223007202
1761132559379964400,3.89896435546875,0.17433738708496094,-0.3134939670562744,0.49742406606674194
1761132559389964500,3.908964599609375,0.035079002380371094,-0.21489214897155762,0.3992728590965271
1761132559399964400,3.91896435546875,-0.27213478088378906,-0.10522651672363281,0.3577083945274353
1761132559409964500,3.928964599609375,-0.2634611129760742,-0.13507890701293945,0.34101158380508423
1761132559419964400,3.93896435546875,-0.916356086730957,0.11910033226013184,0.3741339445114136
1761132559429964500,3.948964599609375,-0.9832515716552734,0.27640390396118164,0.4149882197380066
1761132559439964700,3.958964599609375,-0.9665203094482422,0.3194401264190674,0.45823419094085693
1761132559449964800,3.96896484375,-0.8138723373413086,0.2784702777862549,0.536723792552948
1761132559459964400,3.97896435546875,-0.5494184494018555,0.20010924339294434,0.5641272068023682
1761132559469964300,3.98896435546875,-0.24553775787353516,0.17379522323608398,0.5699666142463684
1761132559479965200,3.998965087890625,0.06427001953125,0.14190125465393066,0.46754634380340576
1761132559489965000,4.008965087890625,0.35906505584716797,0.18250179290771484,0.2800602316856384
1761132559499965200,4.018965087890625,0.5275955200195312,0.2745552062988281,0.02147805690765381
1761132559509965000,4.028965087890625,0.5410518646240234,0.34529590606689453,-0.2988525629043579
1761132559519965200,4.038965087890625,0.5329179763793945,0.5092997550964355,-0.5107520818710327
1761132559529965000,4.048965087890625,0.5574836730957031,0.7311179637908936,-0.50234055519104
1761132559539965200,4.058965087890625,0.5495567321777344,0.758220911026001,-0.48429179191589355
1761132559549965000,4.068965087890625,1.6027116775512695,0.7657499313354492,-0.04487109184265137
1761132559559965200,4.078965087890625,2.6294021606445312,0.414762020111084,0.36446768045425415
1761132559569964800,4.08896484375,3.8648462295532227,0.07426214218139648,0.605863630771637
1761132559579964000,4.0989638671875,4.952019691467285,-0.23197388648986816,0.7424100637435913
1761132559589963800,4.1089638671875,5.484543800354004,-0.736670732498169,0.7360689043998718
1761132559599964000,4.1189638671875,5.114633560180664,-0.989037036895752,0.38991689682006836
1761132559609963800,4.1289638671875,4.119505882263184,-1.0130653381347656,-0.13451850414276123
1761132559619964000,4.1389638671875,3.3900041580200195,-0.7412810325622559,-0.1892615556716919
1761132559629963800,4.1489638671875,2.5521154403686523,-0.3056929111480713,-0.2884168028831482
1761132559639964000,4.1589638671875,1.407942771911621,0.37349414825439453,-0.5951551795005798
1761132559649963500,4.168963623046875,0.7328224182128906,0.6974742412567139,-0.38774049282073975
1761132559659963600,4.178963623046875,0.47742176055908203,0.5107400417327881,0.10347294807434082
1761132559669963500,4.188963623046875,0.627589225769043,0.028019189834594727,0.7340605854988098
1761132559689964300,4.20896435546875,1.781691551208496,-0.5782942771911621,1.350523829460144
1761132559699964400,4.21896435546875,2.159883499145508,-0.955894947052002,1.568256139755249
1761132559709964300,4.22896435546875,2.18845272064209,-1.371307134628296,1.6644117832183838
1761132559719964400,4.23896435546875,2.0241098403930664,-1.5146201848983765,1.551581859588623
1761132559729964300,4.24896435546875,2.017937660217285,-1.5010393857955933,1.5267868041992188
1761132559739964400,4.25896435546875,1.9373703002929688,-1.4243100881576538,1.2061347961425781
1761132559749964300,4.26896435546875,1.8949460983276367,-1.3957951068878174,0.7736084461212158
1761132559759964700,4.278964599609375,1.4513006210327148,-1.864720106124878,0.4806782603263855
1761132559769964800,4.28896484375,0.853083610534668,-2.0116586685180664,0.4767600893974304
1761132559779964000,4.2989638671875,0.0737619400024414,-1.9280478954315186,0.5301679372787476
1761132559789963800,4.3089638671875,-0.7447233200073242,-1.7227306365966797,0.6752830743789673
1761132559799964000,4.3189638671875,-1.4730639457702637,-1.5420210361480713,0.8355311155319214
1761132559809963800,4.3289638671875,-2.3720927238464355,-1.3961987495422363,0.9963663220405579
1761132559819964000,4.3389638671875,-3.0853796005249023,-1.494502305984497,0.9471957087516785
1761132559829963800,4.3489638671875,-3.6978468894958496,-1.5071001052856445,0.7160264849662781
1761132559839964000,4.3589638671875,-4.139120101928711,-1.4235472679138184,0.36636462807655334
1761132559849963800,4.3689638671875,-4.426780700683594,-1.2704112529754639,0.05013835430145264
1761132559859964000,4.3789638671875,-4.541867256164551,-1.166513442993164,-0.05185365676879883
1761132559869964300,4.38896435546875,-4.29391622543335,-1.0339398384094238,-0.05084115266799927
1761132559879965200,4.398965087890625,-3.9370994567871094,-0.9004065990447998,0.16628068685531616
1761132559889965000,4.408965087890625,-3.5195112228393555,-0.8288710117340088,0.4560331106185913
1761132559899469300,4.41846923828125,-3.213557720184326,-0.7530431747436523,0.6588972210884094
1761132559909469400,4.428469482421875,-2.8589234352111816,-0.676358699798584,0.693168580532074
1761132559919469300,4.43846923828125,-2.4783167839050293,-0.7060351371765137,0.4958094656467438
1761132559929469400,4.448469482421875,-2.0782546997070312,-0.6783666610717773,-0.053896546363830566
1761132559939469300,4.45846923828125,-1.7060418128967285,-0.506742000579834,-0.5701360702514648
1761132559949469400,4.468469482421875,-1.2749032974243164,-0.31815052032470703,-0.8901558518409729
1761132559959469300,4.47846923828125,-0.7104930877685547,-0.21967196464538574,-0.9292858242988586
1761132559969469200,4.48846923828125,-0.05987834930419922,-0.17808818817138672,-0.7787976264953613
1761132559979468500,4.498468505859375,0.4484701156616211,-0.17264795303344727,-0.6441156268119812
1761132559989468400,4.508468505859375,0.7977752685546875,-0.011596441268920898,-0.5348965525627136
1761132559999468300,4.51846826171875,0.7933664321899414,-0.004252433776855469,-0.5577911138534546
1761132560009468400,4.528468505859375,0.8622932434082031,0.16173529624938965,-0.4855303466320038
1761132560019468500,4.538468505859375,0.6618423461914062,0.38490986824035645,-0.32159456610679626
1761132560029468400,4.548468505859375,0.5088062286376953,0.43955063819885254,-0.33254897594451904
1761132560039468300,4.55846826171875,0.38594913482666016,0.3745076656341553,-0.3786890506744385
1761132560049468400,4.568468505859375,0.4374217987060547,0.3538217544555664,-0.5284578800201416
1761132560059468300,4.57846826171875,0.44295597076416016,0.3414022922515869,-0.5280138254165649
1761132560069468400,4.588468505859375,0.8872003555297852,0.14388108253479004,-0.8945941925048828
1761132560079469300,4.59846923828125,1.3871574401855469,0.16417860984802246,-1.1046808958053589
1761132560089469200,4.60846923828125,1.9439010620117188,0.30516862869262695,-1.2347841262817383
1761132560099469300,4.61846923828125,2.2634267807006836,0.32917094230651855,-1.0931514501571655
1761132560109469400,4.628469482421875,2.4543113708496094,0.2438979148864746,-0.8612773418426514
1761132560119469300,4.63846923828125,2.596001625061035,0.3325214385986328,-0.8070887923240662
1761132560129469400,4.648469482421875,2.816007614135742,0.45593905448913574,-0.8889175057411194
1761132560139469300,4.65846923828125,3.1082162857055664,0.44589757919311523,-0.8820220232009888
1761132560149469400,4.668469482421875,3.5274734497070312,0.23356342315673828,-0.8058421611785889
1761132560159469300,4.67846923828125,3.9908437728881836,-0.10555553436279297,-0.5045137405395508
1761132560169469400,4.688469482421875,4.272435188293457,-0.3611769676208496,-0.27614811062812805
1761132560179468500,4.698468505859375,4.402426719665527,-0.5196480751037598,-0.1791800856590271
1761132560189468400,4.708468505859375,4.392389297485352,-0.6213335990905762,-0.06493914127349854
1761132560199468500,4.718468505859375,4.108121871948242,-0.7051787376403809,0.10613831877708435
1761132560209468400,4.728468505859375,3.510957717895508,-0.7212738990783691,0.2394547015428543
1761132560219468500,4.738468505859375,2.6335058212280273,-0.6972842216491699,0.28327447175979614
1761132560229468400,4.748468505859375,1.7032995223999023,-0.733832836151123,0.5432461500167847
1761132560239468500,4.758468505859375,0.7912120819091797,-0.6774153709411621,0.8603581786155701
1761132560249468400,4.768468505859375,0.031167030334472656,-0.557734489440918,1.1099190711975098
1761132560259468500,4.778468505859375,-0.5777015686035156,-0.47503018379211426,1.3658957481384277
1761132560269468400,4.788468505859375,-1.0412731170654297,-0.5415105819702148,1.6280181407928467
1761132560279469300,4.79846923828125,-1.3577313423156738,-0.6601452827453613,1.8819270133972168
1761132560289469400,4.808469482421875,-1.507131576538086,-0.8341889381408691,2.02223801612854
1761132560299469300,4.81846923828125,-1.494913101196289,-0.9472756385803223,2.0526304244995117
1761132560309469400,4.828469482421875,-1.2916321754455566,-1.0435056686401367,2.022885799407959
1761132560319469300,4.83846923828125,-1.1470365524291992,-1.2023487091064453,1.883145809173584
1761132560329469200,4.84846923828125,-0.8376426696777344,-1.3319084644317627,1.7164158821105957
1761132560339469300,4.85846923828125,-0.8481588363647461,-1.3103020191192627,1.6984138488769531
1761132560349469200,4.86846923828125,-0.6041784286499023,-1.3816936016082764,1.5576328039169312
1761132560359469300,4.87846923828125,-0.2277688980102539,-1.4675209522247314,1.5119260549545288
1761132560369469200,4.88846923828125,-0.2358570098876953,-1.4466702938079834,1.5340235233306885
1761132560379468300,4.89846826171875,-0.46377086639404297,-1.5148413181304932,1.3124911785125732
1761132560389468400,4.908468505859375,-0.889094352722168,-1.5547351837158203,1.0572454929351807
1761132560399468300,4.91846826171875,-1.3417401313781738,-1.5836904048919678,0.7968700528144836
1761132560409468400,4.928468505859375,-1.7692742347717285,-1.6705207824707031,0.62293541431427
1761132560419468300,4.93846826171875,-1.74946928024292,-1.7065954208374023,0.6755006909370422
1761132560429468400,4.948468505859375,-2.5620713233947754,-1.71315598487854,0.7349640130996704
1761132560439468300,4.95846826171875,-2.8651881217956543,-1.7158904075622559,0.9409372806549072
1761132560449468400,4.968468505859375,-2.8392586708068848,-1.7628021240234375,0.9885838031768799
1761132560459468300,4.97846826171875,-3.4115657806396484,-1.6821417808532715,1.4988245964050293
1761132560469468400,4.988468505859375,-3.6804237365722656,-1.586855173110962,1.5429167747497559
1761132560479469300,4.99846923828125,-3.8052988052368164,-1.5580637454986572,1.3998271226882935
1761132560489469200,5.00846923828125,-3.929287910461426,-1.5091907978057861,1.1334376335144043
1761132560499469300,5.01846923828125,-4.005152702331543,-1.5316226482391357,0.7713336944580078
1761132560509469200,5.02846923828125,-4.0157246589660645,-1.5096228122711182,0.29187244176864624
1761132560519469300,5.03846923828125,-3.8252663612365723,-1.4465932846069336,-0.18226540088653564
1761132560529469200,5.04846923828125,-3.3569459915161133,-1.4696910381317139,-0.49961233139038086
1761132560539469300,5.05846923828125,-2.739905834197998,-1.4374229907989502,-0.6733150482177734
1761132560549469200,5.06846923828125,-2.092801094055176,-1.3849303722381592,-0.7630608081817627
1761132560559469300,5.07846923828125,-1.3918490409851074,-1.2770469188690186,-0.8615659475326538
1761132560569469200,5.08846923828125,-0.6135416030883789,-1.102698802947998,-1.0541645288467407
1761132560579468300,5.09846826171875,0.08286762237548828,-0.9625563621520996,-1.1798863410949707
1761132560589468400,5.108468505859375,0.7536134719848633,-0.854543924331665,-1.070574164390564
1761132560599468300,5.11846826171875,1.4745330810546875,-0.6528069972991943,-0.6376204490661621
1761132560609468400,5.128468505859375,2.2131423950195312,-0.4743785858154297,-0.14360272884368896
1761132560619468300,5.13846826171875,3.015122413635254,-0.32638096809387207,0.28855079412460327
1761132560629468400,5.148468505859375,3.7381677627563477,-0.15261316299438477,0.49154847860336304
1761132560639468500,5.158468505859375,4.385519027709961,0.026364564895629883,0.6506214141845703
1761132560649468400,5.168468505859375,4.979820251464844,0.059807777404785156,0.8765779137611389
1761132560659468500,5.178468505859375,5.392246246337891,0.032823801040649414,1.052450180053711
1761132560669468400,5.188468505859375,5.507070541381836,-0.050547122955322266,1.134761095046997
1761132560679469300,5.19846923828125,5.310542106628418,-0.0860600471496582,1.0536084175109863
1761132560689469200,5.20846923828125,4.859583854675293,-0.10677790641784668,0.8185590505599976
1761132560699469300,5.21846923828125,4.192319869995117,-0.07485008239746094,0.5294997692108154
1761132560709469200,5.22846923828125,3.2867488861083984,-0.02076864242553711,0.25215479731559753
1761132560719469300,5.23846923828125,2.3579635620117188,0.05168962478637695,0.11648392677307129
1761132560729469200,5.24846923828125,1.359847068786621,0.1594407558441162,-0.010997116565704346
1761132560739469300,5.25846923828125,0.1985454559326172,0.39618492126464844,-0.12029731273651123
1761132560749469200,5.26846923828125,-0.5750751495361328,0.7294290065765381,-0.2771279215812683
1761132560759469300,5.27846923828125,-1.0729856491088867,1.1278038024902344,-0.43581026792526245
1761132560769469200,5.28846923828125,-1.3079867362976074,1.3887453079223633,-0.2823505401611328
1761132560779468500,5.298468505859375,-1.2550816535949707,1.487354040145874,0.07934314012527466
1761132560789468400,5.308468505859375,-0.9542522430419922,1.4063427448272705,0.41411131620407104
1761132560799468500,5.318468505859375,-0.9474973678588867,1.3876147270202637,0.3980902433395386
1761132560809468400,5.328468505859375,0.6437091827392578,0.7025086879730225,0.6832818388938904
1761132560819468500,5.338468505859375,1.8809871673583984,0.19291949272155762,0.7622727155685425
1761132560829468400,5.348468505859375,3.3481006622314453,-0.22579693794250488,0.407580703496933
1761132560839468300,5.35846826171875,4.676331520080566,-0.8761241436004639,-0.18914586305618286
1761132560849468400,5.368468505859375,5.423357963562012,-1.628110408782959,-0.7632615566253662
1761132560859468300,5.37846826171875,5.249612808227539,-1.9436289072036743,-1.475034475326538
1761132560869468400,5.388468505859375,4.383584022521973,-1.7637460231781006,-2.1553115844726562
1761132560879469300,5.39846923828125,3.092635154724121,-1.391608715057373,-2.2578940391540527
1761132560889469200,5.40846923828125,1.6992111206054688,-1.0762383937835693,-2.082263946533203
1761132560899469300,5.41846923828125,1.7524185180664062,-1.1794328689575195,-1.9751908779144287
1761132560909469400,5.428469482421875,-1.0517301559448242,-0.3137929439544678,-1.4509679079055786
1761132560919469300,5.43846923828125,-1.7864031791687012,0.017972230911254883,-0.9858660697937012
1761132560929469400,5.448469482421875,-2.0760388374328613,0.10485267639160156,-0.273736834526062
1761132560939469300,5.45846923828125,-1.9714808464050293,0.05681562423706055,0.5023127198219299
1761132560949469400,5.468469482421875,-1.2830514907836914,-0.058443546295166016,0.9906432032585144
1761132560959469300,5.47846923828125,-0.33602142333984375,-0.3721776008605957,1.0359840393066406
1761132560969469400,5.488469482421875,1.1165132522583008,-1.093257188796997,1.0351059436798096
1761132560979468300,5.49846826171875,2.6724767684936523,-1.6480867862701416,0.9153697490692139
1761132560989468400,5.508468505859375,3.756063461303711,-2.308684825897217,0.8659288287162781
1761132560999468300,5.51846826171875,4.1781005859375,-2.9498026371002197,0.8346951007843018
1761132561009468400,5.528468505859375,4.0419416427612305,-3.2008423805236816,0.5844654440879822
1761132561019468300,5.53846826171875,3.6139049530029297,-2.999878406524658,0.13174861669540405
1761132561029468400,5.548468505859375,2.7448368072509766,-2.6443333625793457,-0.18038088083267212
1761132561039468300,5.55846826171875,1.7100229263305664,-2.6813411712646484,-0.21106356382369995
1761132561049468400,5.568468505859375,0.6811656951904297,-2.786308765411377,-0.12235510349273682
1761132561059468300,5.57846826171875,-0.2859678268432617,-2.735342025756836,-0.06816273927688599
1761132561069468400,5.588468505859375,-1.2168002128601074,-2.6025257110595703,0.009763896465301514
1761132561079469000,5.598468994140625,-2.039741039276123,-2.4549310207366943,0.2323589324951172
1761132561089469200,5.60846923828125,-2.7780699729919434,-2.3849127292633057,0.4525677561759949
1761132561099469300,5.61846923828125,-3.253462791442871,-2.2478082180023193,0.5949782133102417
1761132561109469200,5.62846923828125,-3.5730652809143066,-2.1698501110076904,0.7024815082550049
1761132561119469300,5.63846923828125,-3.7059926986694336,-2.092148780822754,0.7720086574554443
1761132561129469200,5.64846923828125,-3.771599769592285,-1.9781758785247803,0.8455085754394531
1761132561139469300,5.65846923828125,-3.7614126205444336,-1.9029150009155273,0.9239481687545776
1761132561149469200,5.66846923828125,-3.7216897010803223,-1.7816135883331299,0.950980007648468
1761132561159469300,5.67846923828125,-3.636585235595703,-1.615811824798584,1.093855619430542
1761132561169469200,5.68846923828125,-3.3871192932128906,-1.4072365760803223,1.1713123321533203
1761132561179468300,5.69846826171875,-2.9234209060668945,-1.2463135719299316,1.133614182472229
1761132561189468400,5.708468505859375,-2.4551138877868652,-1.1278557777404785,0.981398344039917
1761132561199468300,5.71846826171875,-1.8660588264465332,-1.0871968269348145,0.719728946685791
1761132561209468400,5.728468505859375,-1.403292179107666,-1.0234193801879883,0.6229931116104126
1761132561219468300,5.73846826171875,-0.9083752632141113,-0.9442973136901855,0.5250319242477417
1761132561229468400,5.748468505859375,-0.4800381660461426,-0.8260817527770996,0.46745237708091736
1761132561239468300,5.75846826171875,-0.19296550750732422,-0.6975007057189941,0.4686588644981384
1761132561249468400,5.768468505859375,0.04961538314819336,-0.5629944801330566,0.5051413178443909
1761132561259468300,5.77846826171875,0.19226598739624023,-0.43632984161376953,0.6718134880065918
1761132561269468400,5.788468505859375,0.2864713668823242,-0.35199546813964844,0.8374117612838745
1761132561279469300,5.79846923828125,0.5123434066772461,-0.22138500213623047,0.9024249911308289
1761132561289469200,5.80846923828125,0.9389338493347168,-0.1532444953918457,0.8435794115066528
1761132561299469300,5.81846923828125,1.4749126434326172,-0.21306562423706055,0.6886768341064453
1761132561309469200,5.82846923828125,1.907700538635254,-0.4010472297668457,0.4989413321018219
1761132561319469300,5.83846923828125,2.2966976165771484,-0.48954248428344727,0.20175430178642273
1761132561329469200,5.84846923828125,2.546319007873535,-0.438845157623291,-0.0669897198677063
1761132561339469300,5.85846923828125,2.635960578918457,-0.24661636352539062,-0.19080840051174164
1761132561349469200,5.86846923828125,2.562671661376953,-0.10256433486938477,-0.07026640325784683
1761132561359469300,5.87846923828125,2.3726139068603516,-0.0031490325927734375,0.2788279056549072
1761132561369469200,5.88846923828125,2.419642448425293,0.07259416580200195,0.6446511149406433
1761132561379468500,5.898468505859375,2.6616687774658203,0.06829404830932617,1.0367025136947632
1761132561389468400,5.908468505859375,2.929671287536621,-0.09012985229492188,1.1904466152191162
1761132561399468500,5.918468505859375,3.155702590942383,-0.36667633056640625,1.1170470714569092
1761132561409468400,5.928468505859375,3.2731990814208984,-0.535395622253418,0.9013863801956177
1761132561419468500,5.938468505859375,3.20792293548584,-0.5574769973754883,0.4085486829280853
1761132561429468400,5.948468505859375,3.1416025161743164,-0.55157470703125,-0.20813027024269104
1761132561439468500,5.958468505859375,2.9287071228027344,-0.5411443710327148,-0.651712954044342
1761132561449468400,5.968468505859375,2.5447311401367188,-0.5565280914306641,-0.9412129521369934
1761132561459468500,5.978468505859375,2.026620864868164,-0.5422534942626953,-1.0066940784454346
1761132561469468400,5.988468505859375,1.429295539855957,-0.47182512283325195,-0.9419054985046387
1761132561479469300,5.99846923828125,0.820582389831543,-0.35683679580688477,-0.6631088256835938
1761132561489469200,6.00846923828125,0.23610496520996094,-0.2380218505859375,-0.3854221999645233
1761132561499469300,6.01846923828125,-0.10019969940185547,-0.21934938430786133,-0.18770867586135864
1761132561509469200,6.02846923828125,-0.33464717864990234,-0.36082983016967773,0.027068614959716797
1761132561519469300,6.03846923828125,-0.5720109939575195,-0.5518474578857422,0.17912264168262482
1761132561529469400,6.048469482421875,-0.8250393867492676,-0.6049084663391113,0.2806340754032135
1761132561539469300,6.05846923828125,-1.0813207626342773,-0.5835809707641602,0.09592106938362122
1761132561549469400,6.068469482421875,-1.1871957778930664,-0.5415439605712891,-0.336135596036911
1761132561559469300,6.07846923828125,-1.2299036979675293,-0.6197705268859863,-0.8134813904762268
1761132561569469400,6.088469482421875,-1.2849650382995605,-0.7646675109863281,-1.1571780443191528
1761132561579468500,6.098468505859375,-1.3416948318481445,-0.8484430313110352,-1.4392590522766113
1761132561589468400,6.108468505859375,-1.485264778137207,-0.8509488105773926,-1.6729142665863037
1761132561599468500,6.118468505859375,-1.633650779724121,-0.8113279342651367,-1.8647432327270508
1761132561609468400,6.128468505859375,-1.6911182403564453,-0.7701668739318848,-2.1126010417938232
1761132561619468500,6.138468505859375,-1.6728434562683105,-0.7476668357849121,-2.2602458000183105
1761132561629468400,6.148468505859375,-1.5891156196594238,-0.7856302261352539,-2.4353275299072266
1761132561639468500,6.158468505859375,-1.5049796104431152,-0.8571100234985352,-2.5141425132751465
1761132561649468400,6.168468505859375,-1.4014482498168945,-0.9429020881652832,-2.654015064239502
1761132561659468500,6.178468505859375,-1.1717982292175293,-1.1253619194030762,-2.9561591148376465
1761132561669468400,6.188468505859375,-0.8655691146850586,-1.3971171379089355,-3.4185311794281006
1761132561679469300,6.19846923828125,-0.4170823097229004,-1.6658008098602295,-4.008388996124268
1761132561689469200,6.20846923828125,0.19903182983398438,-1.848280429840088,-4.641441345214844
1761132561699469300,6.21846923828125,0.8888673782348633,-2.0697429180145264,-5.159292697906494
1761132561709469200,6.22846923828125,1.498952865600586,-2.477597236633301,-5.313915252685547
1761132561719469300,6.23846923828125,2.0199031829833984,-3.12981915473938,-5.111629486083984
1761132561729469200,6.24846923828125,2.261201858520508,-3.5679218769073486,-4.874502182006836
1761132561739469000,6.258468994140625,2.295830726623535,-3.5809600353240967,-5.041657447814941
1761132561749469000,6.268468994140625,2.3912410736083984,-3.9282970428466797,-4.605718612670898
1761132561759469000,6.278468994140625,2.486159324645996,-4.09938907623291,-4.4726972579956055
1761132561769469000,6.288468994140625,2.648127555847168,-4.311216831207275,-4.313319683074951
1761132561779468300,6.29846826171875,2.874690055847168,-4.545825004577637,-4.268467903137207
1761132561789468400,6.308468505859375,3.0824670791625977,-4.677483558654785,-4.313503265380859
1761132561799468300,6.31846826171875,3.243560791015625,-4.723983287811279,-4.276204586029053
1761132561809468400,6.328468505859375,3.21051025390625,-4.673418045043945,-4.276233673095703
1761132561819468300,6.33846826171875,3.451793670654297,-4.70949649810791,-3.89579439163208
1761132561829468200,6.34846826171875,3.8267335891723633,-4.71963357925415,-3.4741604328155518
1761132561839468300,6.35846826171875,4.398433685302734,-4.771140098571777,-2.709655284881592
1761132561849468200,6.36846826171875,4.91661262512207,-4.80673885345459,-2.026028633117676
1761132561859468300,6.37846826171875,5.173174858093262,-4.826512336730957,-1.3132445812225342
1761132561869468200,6.38846826171875,5.08857536315918,-4.925630569458008,-0.6224223375320435
1761132561879469000,6.398468994140625,4.734992980957031,-4.940243721008301,-0.19990146160125732
1761132561889469200,6.40846923828125,4.219249725341797,-4.738003253936768,-0.09656906127929688
1761132561899469000,6.418468994140625,3.7389278411865234,-4.442722797393799,-0.49615442752838135
1761132561919469000,6.438468994140625,3.236112594604492,-4.181465148925781,-1.3265397548675537
1761132561929469200,6.44846923828125,3.202564239501953,-4.296144962310791,-1.5156197547912598
1761132561939469000,6.458468994140625,3.2173452377319336,-4.4705352783203125,-1.6630382537841797
1761132561949469200,6.46846923828125,3.288888931274414,-4.551243305206299,-1.8461124897003174
1761132561959469000,6.478468994140625,3.2506628036499023,-4.640899181365967,-2.014697313308716
1761132561969469200,6.48846923828125,3.0415897369384766,-4.818824291229248,-1.925978422164917
1761132561979468300,6.49846826171875,2.6817502975463867,-4.890731334686279,-1.828136682510376
1761132561989468200,6.50846826171875,2.2683353424072266,-4.862290382385254,-1.7346662282943726
1761132561999468300,6.51846826171875,1.747309684753418,-4.775595188140869,-1.6231383085250854
1761132562009468200,6.52846826171875,1.1400985717773438,-4.6568169593811035,-1.3660907745361328
1761132562019468300,6.53846826171875,0.5715904235839844,-4.463383674621582,-1.0898600816726685
1761132562029468200,6.54846826171875,0.05437755584716797,-4.156023025512695,-0.752711296081543
1761132562039468500,6.558468505859375,-0.3567037582397461,-3.798102855682373,-0.42980217933654785
1761132562049468700,6.56846875,-0.5403537750244141,-3.412839412689209,-0.20157694816589355
1761132562059468500,6.578468505859375,-0.4957308769226074,-3.1172566413879395,0.062376976013183594
1761132562069468700,6.58846875,-0.17120933532714844,-2.794597864151001,0.34420132637023926
1761132562079469300,6.59846923828125,0.23608970642089844,-2.4860825538635254,0.53200364112854
1761132562089469200,6.60846923828125,0.5737152099609375,-2.253730058670044,0.7111513614654541
1761132562099469300,6.61846923828125,0.7286090850830078,-2.041882276535034,0.8243896961212158
1761132562109469200,6.62846923828125,0.7248935699462891,-1.7668876647949219,0.7492272853851318
1761132562119469300,6.63846923828125,0.5023765563964844,-1.487868070602417,0.49770689010620117
1761132562129469200,6.64846923828125,0.09220123291015625,-1.2421326637268066,0.1283702850341797
1761132562139469300,6.65846923828125,-0.2750997543334961,-1.0081307888031006,-0.24068892002105713
1761132562149469200,6.66846923828125,-0.6762857437133789,-0.7470340728759766,-0.5856229066848755
1761132562159469300,6.67846923828125,-1.1401176452636719,-0.43920135498046875,-0.8708752393722534
1761132562169469200,6.68846923828125,-1.5326156616210938,-0.04115438461303711,-1.0604381561279297
1761132562179468500,6.698468505859375,-1.7416644096374512,0.420623779296875,-1.0832494497299194
1761132562189468400,6.708468505859375,-1.734837532043457,0.8861865997314453,-1.0769511461257935
1761132562199468500,6.718468505859375,-1.1584501266479492,1.2884321212768555,-1.1592742204666138
1761132562209468400,6.728468505859375,-0.1779165267944336,1.4995274543762207,-1.1913173198699951
1761132562219468300,6.73846826171875,1.2342710494995117,1.3027229309082031,-0.9442499876022339
1761132562229468400,6.748468505859375,2.6400089263916016,0.8247382640838623,-0.38628074526786804
1761132562239468300,6.75846826171875,3.9036483764648438,0.2997283935546875,0.12752819061279297
1761132562249468400,6.768468505859375,4.477887153625488,-0.018944263458251953,0.623316764831543
1761132562259468300,6.77846826171875,4.484549522399902,-0.08417248725891113,1.10219144821167
1761132562269468400,6.788468505859375,4.088860511779785,0.11163067817687988,1.6341811418533325
1761132562279469300,6.79846923828125,3.6497058868408203,0.4164261817932129,1.752951979637146
1761132562289469200,6.80846923828125,3.5012807846069336,0.572887659072876,1.242173194885254
1761132562299469300,6.81846923828125,3.026902198791504,0.5219902992248535,0.36222681403160095
1761132562309469200,6.82846923828125,2.4509639739990234,0.2457566261291504,-0.15817563235759735
1761132562319469300,6.83846923828125,1.871511459350586,-0.008291006088256836,-0.31923744082450867
1761132562329469200,6.84846923828125,1.2739715576171875,-0.02417898178100586,-0.4110051691532135
1761132562339469300,6.85846923828125,0.7632265090942383,0.06355500221252441,-0.4734899401664734
1761132562349469200,6.86846923828125,0.26674556732177734,0.11447691917419434,-0.3792322278022766
1761132562359469300,6.87846923828125,-0.3768501281738281,0.06642293930053711,-0.20059964060783386
1761132562369469200,6.88846923828125,-0.9494647979736328,0.04162025451660156,-0.0868750810623169
1761132562379468300,6.89846826171875,-1.5162711143493652,0.032351016998291016,-0.05656382441520691
1761132562389468400,6.908468505859375,-2.039456844329834,0.0554354190826416,0.033576324582099915
1761132562399468300,6.91846826171875,-2.641815185546875,0.12173104286193848,0.21202078461647034
1761132562409468400,6.928468505859375,-3.0824966430664062,0.24074506759643555,0.4165327847003937
1761132562419468300,6.93846826171875,-3.2765655517578125,0.38645243644714355,0.5383133888244629
1761132562429468400,6.948468505859375,-3.4050917625427246,0.5041375160217285,0.5223909616470337
1761132562439468300,6.95846826171875,-3.428231716156006,0.6608967781066895,0.489203542470932
1761132562449468400,6.968468505859375,-3.3897790908813477,0.8246338367462158,0.4840884506702423
1761132562459468300,6.97846826171875,-3.2519569396972656,1.010585069656372,0.39898309111595154
1761132562469468400,6.988468505859375,-2.967132568359375,1.1570541858673096,0.3400452435016632
1761132562479469300,6.99846923828125,-2.6114816665649414,1.2675590515136719,0.3988792896270752
1761132562489469200,7.00846923828125,-2.148372173309326,1.3448295593261719,0.4428432583808899
1761132562499469300,7.01846923828125,-1.7853150367736816,1.3627879619598389,0.4685613512992859
1761132562509469200,7.02846923828125,-1.4184250831604004,1.3945214748382568,0.42361700534820557
1761132562519469300,7.03846923828125,-1.2600536346435547,1.4245271682739258,0.32846736907958984
1761132562529469200,7.04846923828125,-1.2788515090942383,1.441256046295166,0.18585121631622314
1761132562539469300,7.05846923828125,-1.3794021606445312,1.4894561767578125,0.01254957914352417
1761132562549469200,7.06846923828125,-1.4303359985351562,1.6077649593353271,-0.19774723052978516
1761132562559469300,7.07846923828125,-1.422184944152832,1.6085398197174072,-0.4229225218296051
1761132562569469200,7.08846923828125,-1.2710762023925781,1.5698857307434082,-0.5822015404701233
1761132562579468300,7.09846826171875,-1.1010713577270508,1.537299394607544,-0.6324132084846497
1761132562589468400,7.108468505859375,-0.9022254943847656,1.5154156684875488,-0.7495810985565186
1761132562599468300,7.11846826171875,-0.7245111465454102,1.4957456588745117,-0.8087677955627441
1761132562609468400,7.128468505859375,-0.5990152359008789,1.502978801727295,-0.7887887954711914
1761132562619468300,7.13846826171875,-0.4660043716430664,1.460402488708496,-0.7671014070510864
1761132562629468400,7.148468505859375,-0.1913614273071289,1.4259750843048096,-0.729118287563324
1761132562639468300,7.15846826171875,0.02644824981689453,1.4050419330596924,-0.5481271147727966
1761132562649468400,7.168468505859375,0.12277698516845703,1.3504407405853271,-0.22177475690841675
1761132562659468300,7.17846826171875,0.27678394317626953,1.271043062210083,0.024974822998046875
1761132562669468400,7.188468505859375,0.45442962646484375,1.1286084651947021,0.15121400356292725
1761132562679469300,7.19846923828125,0.7006959915161133,0.970306396484375,0.14988166093826294
1761132562689469200,7.20846923828125,0.9695034027099609,0.8914940357208252,0.129574716091156
1761132562699469300,7.21846923828125,1.2011337280273438,0.8506679534912109,0.17615067958831787
1761132562709469200,7.22846923828125,1.4289522171020508,0.7804499864578247,0.1934295892715454
1761132562719469300,7.23846923828125,1.8033018112182617,0.7478866577148438,-0.0380091667175293
1761132562729469200,7.24846923828125,1.7852554321289062,0.830842137336731,-0.005073130130767822
1761132562739469300,7.25846923828125,2.7976903915405273,0.64314866065979,-0.6707842350006104
1761132562749469200,7.26846923828125,3.317035675048828,0.5741899013519287,-0.7643766403198242
1761132562759469300,7.27846923828125,3.7158470153808594,0.49819517135620117,-0.7645862102508545
1761132562769469200,7.28846923828125,4.00003719329834,0.4595140218734741,-0.7506574392318726
1761132562779468300,7.29846826171875,4.265979766845703,0.482629656791687,-0.6729539036750793
1761132562789468400,7.308468505859375,4.387093544006348,0.4733109474182129,-0.4229307472705841
1761132562799468300,7.31846826171875,4.325035095214844,0.4438774585723877,-0.07821157574653625
1761132562809468400,7.328468505859375,4.0366106033325195,0.4849282503128052,0.3324243128299713
1761132562819468300,7.33846826171875,3.427617073059082,0.6740187406539917,0.7144074440002441
1761132562829468400,7.348468505859375,2.855311393737793,0.8401590585708618,0.9654242992401123
1761132562839468300,7.35846826171875,2.1683473587036133,0.8554447889328003,1.264402151107788
1761132562849468400,7.368468505859375,1.5766916275024414,0.8243803977966309,1.5281033515930176
1761132562859468300,7.37846826171875,1.0002307891845703,0.8837729692459106,1.7057121992111206
1761132562869468200,7.38846826171875,0.6719760894775391,0.9233500957489014,1.7410385608673096
1761132562879469000,7.398468994140625,0.6812257766723633,0.8697700500488281,1.755143642425537
1761132562889469200,7.40846923828125,1.0362787246704102,0.6827675104141235,1.728824257850647
1761132562899469300,7.41846923828125,1.5570745468139648,0.48582732677459717,1.6665250062942505
1761132562909469200,7.42846923828125,2.016693115234375,0.2732393741607666,1.6508500576019287
1761132562919469300,7.43846923828125,2.531291961669922,0.16796302795410156,1.5144166946411133
1761132562929469200,7.44846923828125,2.8892087936401367,0.08658838272094727,1.2923566102981567
1761132562939469300,7.45846923828125,2.94842529296875,0.045052289962768555,1.1934159994125366
1761132562949469200,7.46846923828125,2.8495683670043945,0.08945560455322266,1.1063897609710693
1761132562959469300,7.47846923828125,2.4409236907958984,0.21910417079925537,0.9565989971160889
1761132562969469200,7.48846923828125,2.4462928771972656,0.20209169387817383,1.0444247722625732
1761132562979468300,7.49846826171875,1.5346393585205078,0.39868056774139404,0.6782671213150024
1761132562989468400,7.508468505859375,0.9431667327880859,0.530861496925354,0.7473079562187195
1761132562999468300,7.51846826171875,0.3840465545654297,0.5246533155441284,1.037827968597412
1761132563009468400,7.528468505859375,-0.20246315002441406,0.5784037113189697,1.2986667156219482
1761132563019468300,7.53846826171875,-0.6681985855102539,0.6246416568756104,1.4335429668426514
1761132563029468400,7.548468505859375,-0.8774690628051758,0.6213123798370361,1.523909330368042
1761132563039468300,7.55846826171875,-0.84832763671875,0.6243903636932373,1.5748398303985596
1761132563049468400,7.568468505859375,-0.6741189956665039,0.5530011653900146,1.7315928936004639
1761132563059468300,7.57846826171875,-0.557490348815918,0.5203132629394531,2.0133228302001953
1761132563069468400,7.588468505859375,-0.48353004455566406,0.5155322551727295,2.1210834980010986
1761132563079469300,7.59846923828125,-0.5352077484130859,0.4910390377044678,2.257596015930176
1761132563089469200,7.60846923828125,-0.6492891311645508,0.5010454654693604,2.3391404151916504
1761132563099469300,7.61846923828125,-0.8228359222412109,0.5314548015594482,2.4921000003814697
1761132563109469200,7.62846923828125,-0.981287956237793,0.5570752620697021,2.6154074668884277
1761132563119469300,7.63846923828125,-1.1823158264160156,0.5158286094665527,2.6573448181152344
1761132563129469200,7.64846923828125,-1.4480695724487305,0.3995022773742676,2.727456569671631
1761132563139469300,7.65846923828125,-1.7739567756652832,0.23806309700012207,2.664384365081787
1761132563149469200,7.66846923828125,-1.726987361907959,0.11889386177062988,2.6886115074157715
1761132563159469300,7.67846923828125,-2.4699320793151855,0.07414126396179199,2.242246627807617
1761132563169469200,7.68846923828125,-2.8290152549743652,-0.08880925178527832,2.102353096008301
1761132563179468500,7.698468505859375,-3.274102210998535,-0.3500523567199707,2.000720977783203
1761132563189468400,7.708468505859375,-3.6081128120422363,-0.5913307666778564,2.031949520111084
1761132563199468500,7.718468505859375,-3.9199070930480957,-0.8146257400512695,2.1994142532348633
1761132563209468400,7.728468505859375,-3.8879294395446777,-0.9315445423126221,2.640493392944336
1761132563219468300,7.73846826171875,-3.5972132682800293,-0.9864723682403564,3.035050392150879
1761132563229468400,7.748468505859375,-3.2395386695861816,-1.6713132858276367,2.416041374206543
1761132563239468300,7.75846826171875,-2.502058506011963,-1.5197947025299072,2.497065544128418
1761132563249468400,7.768468505859375,-1.789764404296875,-1.4114136695861816,2.434330463409424
1761132563259468300,7.77846826171875,-1.350989818572998,-1.854848861694336,2.435126543045044
1761132563269468400,7.788468505859375,-1.3362808227539062,-2.465973377227783,2.1663026809692383
1761132563279469300,7.79846923828125,-1.8372511863708496,-2.741868734359741,1.2728804349899292
1761132563289469200,7.80846923828125,-2.362396240234375,-2.5811004638671875,0.3071750998497009
1761132563299469300,7.81846923828125,-2.818221092224121,-2.2572786808013916,-0.5334617495536804
1761132563309469200,7.82846923828125,-3.0715370178222656,-2.0970420837402344,-1.21665358543396
1761132563319469300,7.83846923828125,-3.0184245109558105,-2.1309866905212402,-1.5576807260513306
1761132563329469200,7.84846923828125,-2.6977033615112305,-2.182079792022705,-1.8223748207092285
1761132563339469300,7.85846923828125,-2.047842025756836,-2.2657148838043213,-1.976578712463379
1761132563349469200,7.86846923828125,-1.3406782150268555,-2.452425479888916,-1.873033046722412
1761132563359469300,7.87846923828125,-0.5951385498046875,-2.814754009246826,-1.4231990575790405
1761132563369469200,7.88846923828125,0.23013687133789062,-3.200284957885742,-0.9689851999282837
1761132563379468300,7.89846826171875,1.277547836303711,-3.4069294929504395,-0.8650668263435364
1761132563389468400,7.908468505859375,2.091843605041504,-3.591668128967285,-0.9179555177688599
1761132563399468300,7.91846826171875,2.7068119049072266,-3.551227569580078,-1.3036983013153076
1761132563409468400,7.928468505859375,2.910564422607422,-3.1961429119110107,-2.0905120372772217
1761132563419468300,7.93846826171875,2.7773399353027344,-2.818859815597534,-2.7937843799591064
1761132563429468400,7.948468505859375,2.5141820907592773,-2.5351598262786865,-3.2134547233581543
1761132563439468300,7.95846826171875,2.146451950073242,-2.386103868484497,-3.4342076778411865
1761132563449468400,7.968468505859375,2.0985851287841797,-2.218677520751953,-3.342827558517456
1761132563459468300,7.97846826171875,2.128133773803711,-2.1074130535125732,-3.8428728580474854
1761132563469468400,7.988468505859375,2.322988510131836,-2.032315254211426,-3.925084114074707
1761132563479469300,7.99846923828125,2.4504451751708984,-2.0054404735565186,-3.7729556560516357
1761132563489469200,8.00846923828125,2.431398391723633,-1.9716459512710571,-3.4194164276123047
1761132563499469300,8.01846923828125,2.229466438293457,-1.8884251117706299,-2.7157554626464844
1761132563509469200,8.02846923828125,1.9058866500854492,-1.7337510585784912,-1.731540560722351
1761132563519469300,8.03846923828125,1.8094844818115234,-1.5577870607376099,-1.03911292552948
1761132563529469200,8.04846923828125,2.13533878326416,-1.4243274927139282,-0.6712690591812134
1761132563539469300,8.05846923828125,2.4899072647094727,-1.358051061630249,-0.4649590849876404
1761132563549469200,8.06846923828125,2.5768489837646484,-1.4337104558944702,-0.08736073970794678
1761132563559469300,8.07846923828125,2.4096336364746094,-1.5089088678359985,0.3241003155708313
1761132563569469200,8.08846923828125,1.9318227767944336,-1.377755045890808,0.5153109431266785
1761132563579468300,8.09846826171875,1.4812593460083008,-1.1540662050247192,0.25954943895339966
1761132563589468400,8.108468505859374,0.9833774566650391,-0.9403557777404785,-0.12311011552810669
1761132563599468300,8.11846826171875,0.3852424621582031,-0.8745541572570801,-0.5396302342414856
1761132563609468400,8.128468505859376,-0.29917144775390625,-0.8822585344314575,-0.8330729603767395
1761132563619468300,8.13846826171875,-0.9267959594726562,-0.7942018508911133,-1.0161266326904297
1761132563629468400,8.148468505859375,-1.4388713836669922,-0.5838795304298401,-1.3032138347625732
1761132563639468300,8.15846826171875,-1.5635175704956055,-0.42204880714416504,-1.6207709312438965
1761132563649468400,8.168468505859375,-1.519148826599121,-0.2755143642425537,-1.7704113721847534
1761132563659468300,8.17846826171875,-1.4159069061279297,-0.10371875762939453,-1.941901683807373
1761132563669468400,8.188468505859374,-1.2509870529174805,0.1138991117477417,-2.1592955589294434
1761132563679469300,8.19846923828125,-1.0167007446289062,0.3787802457809448,-2.425785541534424
1761132563689469200,8.20846923828125,-0.6334848403930664,0.5640404224395752,-2.8060946464538574
1761132563699469300,8.21846923828125,-0.1609640121459961,0.7488130331039429,-3.2554852962493896
1761132563709469200,8.22846923828125,0.2738218307495117,0.8550602793693542,-3.7290866374969482
1761132563719469300,8.23846923828125,0.5561933517456055,0.9209836721420288,-3.907724380493164
1761132563729469200,8.24846923828125,0.5999507904052734,1.0154876708984375,-3.8564562797546387
1761132563739469300,8.25846923828125,0.4626350402832031,1.2088221311569214,-3.6870996952056885
1761132563749469200,8.26846923828125,0.2623891830444336,1.2460733652114868,-3.500626802444458
1761132563759469300,8.27846923828125,-0.041602134704589844,1.2180325984954834,-3.3937935829162598
1761132563769469200,8.28846923828125,-0.41571998596191406,1.1871205568313599,-3.281949520111084
1761132563779468300,8.29846826171875,-0.8478899002075195,1.101157784461975,-3.05596661567688
1761132563789468400,8.308468505859375,-1.3045997619628906,0.9498376846313477,-2.8465700149536133
1761132563799468300,8.31846826171875,-1.7000021934509277,0.7701561450958252,-2.816056251525879
1761132563809468400,8.328468505859375,-1.8886895179748535,0.6663246154785156,-2.9636013507843018
1761132563819468300,8.33846826171875,-1.8714241981506348,0.5089037418365479,-3.074817180633545
1761132563829468400,8.348468505859374,-1.6803369522094727,0.4449082612991333,-3.143629550933838
1761132563839468300,8.35846826171875,-1.363511085510254,0.3155362606048584,-3.011148691177368
1761132563849468200,8.36846826171875,-1.0281705856323242,0.11002242565155029,-2.85115385055542
1761132563869468200,8.38846826171875,-0.7250967025756836,0.03505992889404297,-3.0860040187835693
1761132563879469000,8.398468994140625,-0.7800331115722656,0.0183103084564209,-3.1985349655151367
1761132563889469200,8.40846923828125,-0.9674568176269531,0.026381492614746094,-3.2097625732421875
1761132563899469000,8.418468994140625,-1.1515178680419922,-0.011077642440795898,-3.212486743927002
1761132563909469200,8.42846923828125,-1.1369428634643555,-0.06639266014099121,-3.1745035648345947
1761132563919469300,8.43846923828125,-1.2049617767333984,-0.2488933801651001,-2.910759449005127
1761132563929469200,8.44846923828125,-1.1244792938232422,-0.4385359287261963,-2.4665775299072266
1761132563939469300,8.45846923828125,-1.0395135879516602,-0.6527820825576782,-1.8010857105255127
1761132563949469200,8.46846923828125,-1.0500211715698242,-0.7053241729736328,-1.16019606590271
1761132563959469000,8.478468994140625,-1.1268529891967773,-0.7021569013595581,-0.5706695318222046
1761132563969469200,8.48846923828125,-1.4996576309204102,-0.7512550354003906,0.055985093116760254
1761132563979468300,8.49846826171875,-1.715108871459961,-0.7290376424789429,0.4867996275424957
1761132563989468400,8.508468505859375,-1.5846385955810547,-0.6082619428634644,0.6979669332504272
1761132563999468300,8.51846826171875,-0.8801765441894531,-0.4552786350250244,0.6846933364868164
1761132564009468400,8.528468505859376,0.12857913970947266,-0.38912463188171387,0.5645442605018616
1761132564019468300,8.53846826171875,1.1347551345825195,-0.4897662401199341,0.5876177549362183
1761132564029468400,8.548468505859375,1.1129512786865234,-0.4037371873855591,0.5366302132606506
1761132564039468300,8.55846826171875,2.148909568786621,-0.9973074793815613,0.7940720319747925
1761132564049468200,8.56846826171875,2.095937728881836,-0.9656658172607422,0.6730388402938843
1761132564059468300,8.57846826171875,1.8927154541015625,-0.8928004503250122,0.5667371153831482
1761132564069468200,8.58846826171875,1.7920551300048828,-0.9376046657562256,0.3937498927116394
1761132564079469000,8.598468994140624,1.9864826202392578,-1.1438298225402832,0.14649754762649536
1761132564089469200,8.60846923828125,2.3194580078125,-1.2441232204437256,-0.2065916657447815
1761132564099469300,8.61846923828125,2.692415237426758,-1.316010594367981,-0.5201506614685059
1761132564109469200,8.62846923828125,3.0171585083007812,-1.389756679534912,-0.7273136377334595
1761132564119469300,8.63846923828125,3.320646286010742,-1.4275249242782593,-0.9149638414382935
1761132564129469200,8.64846923828125,3.768404960632324,-1.387442946434021,-1.1144928932189941
1761132564139469300,8.65846923828125,3.7570924758911133,-1.3001692295074463,-1.129162073135376
1761132564149469200,8.66846923828125,5.3771514892578125,-1.5610285997390747,-1.1735451221466064
1761132564159469300,8.67846923828125,5.882366180419922,-1.710176706314087,-1.0169663429260254
1761132564169469200,8.68846923828125,6.073558807373047,-1.6989452838897705,-0.8115710020065308
1761132564179468300,8.69846826171875,5.898516654968262,-1.5298936367034912,-0.5400499105453491
1761132564189468400,8.708468505859376,5.32373046875,-1.2293663024902344,-0.17959436774253845
1761132564199468300,8.71846826171875,4.456550598144531,-0.9169173836708069,0.1608305275440216
1761132564209468400,8.728468505859375,3.6694154739379883,-0.6455753445625305,0.3739493191242218
1761132564219468300,8.73846826171875,3.0081682205200195,-0.42029300332069397,0.4055638015270233
1761132564229468400,8.748468505859375,2.323910713195801,-0.28928011655807495,0.364230215549469
1761132564239468300,8.75846826171875,1.5593271255493164,-0.30847108364105225,0.2392827868461609
1761132564249468400,8.768468505859374,0.7268180847167969,-0.2869740128517151,-0.05497777462005615
1761132564259468300,8.77846826171875,-0.3100318908691406,-0.10064232349395752,-0.34668898582458496
1761132564269468400,8.788468505859376,-1.154191017150879,0.07657647132873535,-0.5437172651290894
1761132564279469300,8.79846923828125,-1.8066225051879883,0.25950777530670166,-0.598779022693634
1761132564289469200,8.80846923828125,-2.2087035179138184,0.35987889766693115,-0.5682744383811951
1761132564299469300,8.81846923828125,-2.335416316986084,0.41665029525756836,-0.5725564956665039
1761132564309469200,8.82846923828125,-2.2494072914123535,0.40661823749542236,-0.5374376177787781
1761132564319469300,8.83846923828125,-2.1033568382263184,0.3562101125717163,-0.5174378752708435
1761132564329469200,8.84846923828125,-2.0281848907470703,0.2696981430053711,-0.4375779628753662
1761132564339469300,8.85846923828125,-2.0710153579711914,0.3029252290725708,-0.33692389726638794
1761132564349469200,8.86846923828125,-2.2576522827148438,0.34741783142089844,-0.30061888694763184
1761132564359469300,8.87846923828125,-2.410510540008545,0.41357195377349854,-0.31372660398483276
1761132564369469200,8.88846923828125,-2.565401077270508,0.38681817054748535,-0.3903990387916565
1761132564379468300,8.89846826171875,-2.5571036338806152,0.3867008686065674,-0.47813987731933594
1761132564389468400,8.908468505859375,-2.6106786727905273,0.37663042545318604,-0.5310745239257812
1761132564399468300,8.91846826171875,-2.6781973838806152,0.381677508354187,-0.5881891250610352
1761132564409468400,8.928468505859374,-2.7617316246032715,0.3932912349700928,-0.6457269787788391
1761132564419468300,8.93846826171875,-2.8612632751464844,0.4550657272338867,-0.7554303407669067
1761132564429468400,8.948468505859376,-2.9148497581481934,0.4874323606491089,-0.7221187353134155
1761132564439468300,8.95846826171875,-2.908289909362793,0.553267240524292,-0.5888193845748901
1761132564449468400,8.968468505859375,-2.837296962738037,0.574581503868103,-0.5179998278617859
1761132564459468300,8.97846826171875,-2.6230130195617676,0.5862752199172974,-0.4915880262851715
1761132564469468400,8.988468505859375,-2.4114151000976562,0.5667057037353516,-0.42480388283729553
1761132564479469000,8.998468994140625,-2.1831841468811035,0.4838505983352661,-0.36093035340309143
1761132564489469200,9.00846923828125,-2.1795620918273926,0.4573662281036377,-0.3992442786693573
1761132564499469000,9.018468994140624,-1.8756418228149414,0.39113926887512207,-0.27586066722869873
1761132564509469200,9.02846923828125,-1.841010570526123,0.40122532844543457,-0.29025596380233765
1761132564519469000,9.038468994140626,-1.8074264526367188,0.44640791416168213,-0.2550140619277954
1761132564529469200,9.04846923828125,-1.7056269645690918,0.4655153751373291,-0.22131066024303436
1761132564539469000,9.058468994140625,-1.5598840713500977,0.5561704635620117,-0.252506285905838
1761132564549469200,9.06846923828125,-1.2316408157348633,0.5812480449676514,-0.4168560802936554
1761132564559469000,9.078468994140625,-0.8599462509155273,0.59674072265625,-0.6395490765571594
1761132564569469200,9.08846923828125,-0.5765581130981445,0.583747386932373,-0.8502443432807922
1761132564579468300,9.09846826171875,-0.4026823043823242,0.5000581741333008,-1.0076301097869873
1761132564589468400,9.108468505859374,-0.3213205337524414,0.4165074825286865,-1.1311836242675781
1761132564599468300,9.11846826171875,-0.36608123779296875,0.38614463806152344,-1.1198327541351318
1761132564609468400,9.128468505859376,-0.3198671340942383,0.349945068359375,-0.9775971174240112
1761132564619468300,9.13846826171875,-0.042819976806640625,0.3709437847137451,-0.7187985181808472
1761132564629468400,9.148468505859375,0.45368099212646484,0.29074978828430176,-0.5471266508102417
1761132564639468300,9.15846826171875,0.4576892852783203,0.27503275871276855,-0.5572225451469421
1761132564649468400,9.168468505859375,1.387223243713379,-0.09589743614196777,-0.5203497409820557
1761132564659468300,9.17846826171875,1.704446792602539,-0.1991443634033203,-0.5707105398178101
1761132564669468400,9.188468505859374,1.9608230590820312,-0.17875385284423828,-0.8005894422531128
1761132564679469300,9.19846923828125,1.9201631546020508,-0.09145784378051758,-1.2823899984359741
1761132564689469200,9.20846923828125,1.7602148056030273,0.06887054443359375,-1.8039500713348389
1761132564699469300,9.21846923828125,2.1132869720458984,0.12194108963012695,-2.3158411979675293
1761132564709469200,9.22846923828125,2.503972053527832,0.23526906967163086,-2.338348627090454
1761132564729469200,9.24846923828125,2.619086265563965,0.11612296104431152,-2.23368501663208
1761132564739469300,9.25846923828125,3.362584114074707,-0.8167750835418701,-0.6569675207138062
1761132564749469200,9.26846923828125,3.501692771911621,-0.6173609495162964,-0.7567546963691711
