time,seconds_elapsed,z,y,x
1761134018356202200,0.0812021484375,0.41610359761118887,0.4834185997322201,0.8312465334966779
1761134018376048400,0.10104833984375,-0.7745359274983405,-0.07072378765121103,0.582471386897564
1761134018395895300,0.120895263671875,-1.8395359795510768,-0.08385945581719279,-0.6976281905151903
1761134018415742200,0.1407421875,-1.756149255812168,-0.09610299744904041,-0.8684658186919987
1761134018435588400,0.16058837890625,-0.9029507104873656,-0.12175883223116397,-0.5452173226498067
1761134018455435300,0.180435302734375,0.09842530291676521,-0.23252923745810986,-0.1735837120145559
1761134018475282200,0.2002822265625,1.079842231875658,-0.3189611741118133,0.17058569924235342
1761134018495128000,0.220128173828125,0.8749147025704384,-0.3952109586428851,-0.034818799924850465
1761134018514975200,0.239975341796875,0.7224421676456928,-0.29081089216545225,0.03876344589740038
1761134018534821400,0.2598212890625,0.9317629634737968,-0.14870689878091214,0.21042846480906008
1761134018554668300,0.279668212890625,1.2486989153683186,-0.13057393378429114,0.430660676882416
1761134018574515500,0.299515380859375,1.2278659706979989,-0.14905805030614136,0.9202439367242157
1761134018594361300,0.319361328125,1.2614870852708815,0.022482319312542676,1.268290043283999
1761134018614208300,0.339208251953125,0.5603834737300872,-0.020274434004724024,1.3948907625883817
1761134018634054100,0.35905419921875,-0.7376075880736113,-0.0840039788544178,1.0637070896327494
1761134018653901300,0.3789013671875,-0.7707797898352146,-0.441189523550868,0.960600204771012
1761134018673748200,0.398748291015625,-0.7736205662190914,-0.05880348662436008,0.2360346152305603
1761134018693594000,0.418593994140625,-0.932551483502984,-0.3733747552141547,0.06699439186453819
1761134018713441500,0.438441650390625,-1.4775333899617193,-0.3488391566336155,-0.7328510411962866
1761134018733288000,0.458287841796875,-1.261198915979266,-0.5829945339888334,-0.4207181056693196
1761134018753134800,0.478134765625,-1.1985434301018714,-0.24592297203838823,-0.04735387184917927
1761134018772981800,0.497981689453125,-1.741775862544775,0.3598933423504233,-0.08780687826871872
1761134018792827600,0.51782763671875,-2.070634307423234,0.47540655819028615,-0.0018728081345558165
1761134018812674800,0.5376748046875,-2.0903589985907076,0.29997049630731343,-0.12806933055222033
1761134018832521700,0.557521728515625,-1.8805577257692814,0.21845424261540172,-0.22948884684890508
1761134018852367600,0.57736767578125,-1.0066513234585523,0.22439181597083804,-0.31094284895956514
1761134018872214800,0.59721484375,-0.09857786312997341,-0.1842823622919619,-0.34318843739554283
1761134018892060700,0.617060791015625,0.25702830342054367,0.10627097491584718,-0.7166774666391312
1761134018911907600,0.636907470703125,0.5537210932314396,0.6339801864691078,-0.4585435400642454
1761134018931754800,0.656754638671875,1.431673556062579,-0.06253286414472387,0.04952390936464071
1761134018951601000,0.676600830078125,3.1113842998385426,-0.6003088395463302,0.5987571896575391
1761134018971447800,0.69644775390625,2.3681921896308658,-0.6696101566463708,0.19537585710585118
1761134018991294700,0.716294677734375,0.9135293876469135,-0.35965350571256127,-0.08976005816310643
1761134019011140900,0.736140869140625,-0.07386135502457618,-0.19667806227821855,-0.6687281131148338
1761134019030987800,0.75598779296875,-0.006899111863970756,0.04205006635263562,-0.6539402938276528
1761134019050833700,0.775833740234375,0.5991852058112621,-0.20409648530855773,-0.0850011731982231
1761134019070680600,0.7956806640625,1.1260568705618381,-0.41088520537577566,0.27018508743979036
1761134019090527700,0.81552783203125,0.9649293200165032,-0.5955018411234021,0.489131424421072
1761134019110373600,0.83537353515625,0.5788625487506389,-0.5015502495545894,0.42990057923011477
1761134019130220500,0.855220458984375,0.228601250359416,-0.06139613346606493,-0.05255655505880713
1761134019150066700,0.875066650390625,0.00012099603116512298,-0.08853957645744084,0.2952081772763282
1761134019169913900,0.894913818359375,-0.11729483855962752,0.060384326075017446,0.4994741008676588
1761134019189760800,0.9147607421875,-0.04462006297111511,0.17876783665418625,0.49504707820564503
1761134019209606700,0.934606689453125,-0.03507774312198162,-0.028648440726846455,0.3522700809303671
1761134019229453800,0.954453857421875,-0.008331775015592575,-0.3418777931883931,0.01700797955468297
1761134019249300700,0.97430078125,0.17234920178353785,-0.4091591853007674,-0.25421784910969436
1761134019269146600,0.994146728515625,0.22666823647022247,-0.4187051584117114,-0.3975337755672633
1761134019288993500,1.01399365234375,0.049987727484107014,-0.46856604464575646,-0.617418635507673
1761134019308839700,1.033839599609375,-0.07432604992687701,-0.46137028792276974,-0.8168673680756241
1761134019328686600,1.0536865234375,-0.05084697466194629,-0.4349387925930321,-0.6713826462116093
1761134019348533500,1.073533447265625,0.19253975689709185,-0.3726100544519722,-0.40066644756980235
1761134019368379600,1.093379638671875,0.21950199810266494,-0.4260033525958657,-0.25125695347748694
1761134019388226800,1.113226806640625,-0.1010924762994051,-0.4245100452981889,-0.23306012946441768
1761134019408072700,1.13307275390625,-0.7056354097515344,-0.2876042050786316,-0.4548408861540258
1761134019427919600,1.152919677734375,-0.5980658463925123,-0.25898791305571794,-0.45501295478530224
1761134019447766800,1.172766845703125,-0.19530922161042688,-0.18710253427922724,-0.3623409546982497
1761134019467612700,1.19261279296875,-0.0392132354915142,-0.13099603165388107,-0.15286321474276482
1761134019487459600,1.21245947265625,0.06769698717594147,-0.06768968065232038,-0.06833959592841565
1761134019507306800,1.232306640625,-0.07316635849773884,-0.13909838182777165,-0.06512333729565144
1761134019527153000,1.25215283203125,-0.542181462085247,-0.14117577262371778,-0.19470665260739622
1761134019546999800,1.271999755859375,-0.855856950879097,-0.09325082288831472,-0.3701755207814276
1761134019566845700,1.291845703125,-0.4771083936721086,0.059373541597276924,-0.2187903427019715
1761134019586692900,1.31169287109375,-0.22945757492780683,0.12615166036263106,0.00955211059078574
1761134019606539800,1.331539794921875,0.07104688212573528,0.2275900274902582,0.288909880849719
1761134019626385700,1.3513857421875,0.2692664382249117,0.14197817504778504,0.412604649579525
1761134019646232600,1.371232666015625,0.3120692226409912,-0.08351356498897075,0.19755985008142887
1761134019666078700,1.39107861328125,0.05773030443489551,-0.4109076364032924,-0.2864637298066169
1761134019685925600,1.410925537109375,-0.502592963540554,-0.5459583502754569,-0.5572357502888888
1761134019705772500,1.4307724609375,-1.0956178931564091,-0.47783290855437516,-0.20702457464970647
1761134019725618200,1.4506181640625,-1.1525409728616476,-0.12957637411430478,-0.5978968465011566
1761134019745465000,1.470465087890625,0.09360533541440963,0.40366643310338257,-0.43890181447248905
1761134019765312300,1.490312255859375,1.6609551899015902,0.5277880489431321,0.5758851769076659
1761134019785158100,1.510158203125,1.0659136597663164,0.06437485701590775,0.6545473198100924
1761134019805005000,1.530005126953125,0.4285398853361606,0.036070115160197015,0.20474550553550944
1761134019824851000,1.549850830078125,0.30392858628332614,0.05835252798646688,-0.1676050029311329
1761134019844698000,1.569697998046875,-0.38741175613403317,-0.1580633406691253,-0.35179190549198536
1761134019864545000,1.589544921875,-0.6768798553884029,-0.12292553792297839,-0.3708035164866596
1761134019884391200,1.60939111328125,-0.29392975483834743,-0.1232259821742773,-0.2658944775737822
1761134019904238000,1.629238037109375,0.2730617388546467,-0.02388108019456267,0.15211389421280472
1761134019924084200,1.649084228515625,0.337635041052103,-0.0867380799934268,0.2765521382536739
1761134019943931100,1.66893115234375,0.17802724741995335,-0.16348653476163744,0.11352792377416043
1761134019963778000,1.688778076171875,-0.02535539053082466,-0.17422390961423515,-0.06633110565021634
1761134019983624000,1.7086240234375,0.1325853466719389,-0.027118600811064243,-0.0014032543940469622
1761134020003471000,1.72847119140625,0.16731179213821887,0.06193593943119049,0.22192166299764066
1761134020023318000,1.748318115234375,0.1542529886007309,0.07728592264577747,0.20988854924608022
1761134020043164000,1.768163818359375,0.04390636174380779,-0.0956863794721663,-0.17765081532299518
1761134020063011000,1.788010986328125,-0.0014274024546146393,-0.07832213382571936,-0.25263463503886013
1761134020082857200,1.807857177734375,-0.2138186917692423,-0.021942513347417116,-0.1413771404147148
1761134020102704000,1.8277041015625,-0.27931436950862404,0.09574322422593831,0.05292104098964482
1761134020122551300,1.84755126953125,-0.15892916371822358,0.044185763207077976,-0.02000876880586147
1761134020142397200,1.867397216796875,0.02368307340443134,-0.0021089549779891967,0.004086502128653228
1761134020162244000,1.887244140625,0.04927577982246875,-0.023397680591791866,0.03530128621216863
1761134020182090000,1.907090087890625,-0.0708060591071844,-0.21778204244226215,-0.1328735890287906
1761134020201937200,1.926937255859375,-0.07209376083016396,-0.19149360884502528,-0.12779931797180324
1761134020221784000,1.9467841796875,-0.06556582036614418,-0.18344445016309618,-0.19661676054503768
1761134020241630000,1.9666298828125,-0.24231121128201483,-0.0013579904802143573,-0.16011607194785027
1761134020261477000,1.98647705078125,-0.5403349574357271,0.13365911338329314,0.12367336061559617
1761134020281324000,2.006323974609375,-0.7116232519894838,0.11956000701263546,0.34282296508401633
1761134020301170200,2.026170166015625,-0.8645967221736908,0.22509046575948594,0.3131506246695295
1761134020321017000,2.04601708984375,-0.43123745385706425,-0.06057020403593778,-0.13233875149972735
1761134020340863000,2.065863037109375,-0.6877332578361034,-0.24932072471790015,-0.6882520210132003
1761134020360710100,2.085710205078125,-0.7729203089952469,-0.11086626681685446,-0.4486573021482676
1761134020380557000,2.10555712890625,-0.23485212744772432,0.24445377626866102,0.26048056276626885
1761134020400403000,2.12540283203125,0.0034971944659948346,0.06482183359842747,0.28002313883248714
1761134020420250000,2.14525,-0.6185790575891733,-0.15146131205558777,0.04529745077602565
1761134020440096300,2.16509619140625,-0.7034113039612769,0.05664833158419933,0.16109226003624497
1761134020459943200,2.184943115234375,-0.8729454483240843,0.2970876708799973,0.19630681781303136
1761134020479790000,2.2047900390625,-0.9259545694559812,0.25572061835546045,-0.18987989003807304
1761134020499636200,2.22463623046875,-1.1565484549373388,0.0425481520678848,-0.056643769573513414
1761134020519483100,2.244483154296875,-1.274735273900628,0.20115707085579632,-0.18075685504693537
1761134020539330000,2.264330078125,-2.0423639062285424,0.13706366112977267,-0.04921268799100071
1761134020559176000,2.284176025390625,-0.3508212703615427,0.3499300206102431,1.009741909885034
1761134020579023000,2.304023193359375,0.2714595643550157,0.8332025629352777,1.800228636035323
1761134020598869000,2.323868896484375,-1.3723159426867961,1.5433146066442132,1.1984805209334939
1761134020618716000,2.3437158203125,-2.678292158025503,1.5713789638727902,0.37006409629620607
1761134020638563000,2.36356298828125,-0.7089011335492134,1.4299544771850108,0.4009643345378339
1761134020658409200,2.3834091796875,4.284735421016812,-0.11849442360773682,1.4145761446587741
1761134020678256000,2.403256103515625,14.125883318424224,-0.21333708226475864,1.7623285289689898
1761134020698102000,2.42310205078125,18.169976338154076,-1.4879644753441215,2.5129396832615134
1761134020717949200,2.44294921875,15.559180091774463,-1.673010953876376,2.20460014866814
1761134020737796400,2.46279638671875,13.637134171319007,-1.04761593266204,1.9244244861550628
1761134020757642200,2.482642333984375,12.622916211998461,-0.7507483708061278,1.94382111441195
1761134020777489200,2.5024892578125,10.574653310859203,-0.7240200844869017,0.808521199208498
1761134020797335000,2.5223349609375,6.529584139573574,-1.2347237276382743,-0.19143208791613578
1761134020817182200,2.54218212890625,2.0086405003249643,-1.9483222252234815,-0.25459318522810936
1761134020837029000,2.562029052734375,-1.1874947973430157,-2.974733018901944,-0.1429426361657679
1761134020856875300,2.581875244140625,-3.9062224261313676,-3.6597824444815514,-0.38246567803397774
1761134020876722200,2.60172216796875,-6.739387750482559,-4.38974010232389,-0.7670259902596474
1761134020896569300,2.6215693359375,-9.851662861680984,-4.5909477343231435,-1.2961714451611042
1761134020916415200,2.641415283203125,-13.150873918420075,-3.8921415860697626,-1.598627328543365
1761134020936262100,2.66126220703125,-15.767054780447483,-2.858709515452385,-1.1792605644177645
1761134020956108000,2.68110791015625,-17.385331689095498,-2.1650246557354924,-1.434652718003839
1761134020975955200,2.700955078125,-19.436042567908764,-2.1887661813288926,-1.0213777679473162
1761134020995802000,2.720802001953125,-20.988207712745666,-3.1036285711452365,-0.8968704407256096
1761134021015648000,2.74064794921875,-20.57499282231331,-3.7349516672343013,-1.0331592450253664
1761134021035495200,2.7604951171875,-18.06983254088163,-3.397157928489148,-0.21731888190992174
1761134021055341300,2.78034130859375,-14.927645106500385,-2.952710279925167,0.33725795136801895
1761134021075188200,2.800188232421875,-11.31903726119995,-1.9349718913935123,-0.43866387753076846
1761134021095035400,2.820035400390625,-7.423857038086652,-1.04302531693615,-2.157192354674637
1761134021114881300,2.83988134765625,-5.751389105045795,-1.6674243859156965,-1.594831735652685
1761134021134728200,2.859728271484375,-2.5566081445962188,-2.148993119997531,1.4737418887242675
1761134021154574000,2.879573974609375,6.108290572103858,-4.091168659159541,3.767069683767855
1761134021174421200,2.899421142578125,12.280082433259487,-6.2983110396564,3.145390614336729
1761134021194268200,2.91926806640625,15.851422331917284,-6.4614984453409905,1.4725463953293858
1761134021214114300,2.9391142578125,20.944705255627632,-6.078038057181239,0.45389761395454403
1761134021233961200,2.958961181640625,22.856587509465218,-5.475800478062033,-0.2903862370125949
1761134021253808400,2.978808349609375,19.985027864789963,-4.44275185380429,0.6412970853537321
1761134021273654300,2.998654296875,18.572563451588152,-3.1415120193377137,0.8157957933213561
1761134021293501200,3.018501220703125,16.987598445433377,-1.5289987887829541,1.5359616135329006
1761134021313347000,3.03834716796875,11.424178720629214,0.04858136781752109,2.338988453108817
1761134021333194200,3.0581943359375,4.981861945620179,1.1172472489014267,2.275861696457863
1761134021353041200,3.078041259765625,0.1411848327130079,1.456551099948585,1.0482773922454565
1761134021372887000,3.097886962890625,-2.9039462490171193,1.762040944199264,0.06652706661373377
1761134021392734200,3.117734130859375,-4.096085657295585,2.117613793002069,-0.28916692435070873
1761134021412580400,3.137580322265625,-5.30980327565372,2.0201304471105335,-0.0716026163123548
1761134021432427300,3.15742724609375,-6.5544444400638335,2.2302850634142755,-0.1117812627699226
1761134021452274400,3.1772744140625,-7.159563127577305,2.3705685633733866,-0.03202135122604668
1761134021472120300,3.197120361328125,-7.550957815867662,2.1619030165836213,0.31318945884257554
1761134021491967200,3.21696728515625,-6.721953800600767,1.8490663167014716,0.4473334331333637
1761134021511813000,3.236813232421875,-3.7130151452362536,1.1659741626694797,-0.02018456376418471
1761134021531660300,3.256660400390625,-0.27489596854448317,-0.4663751104727387,-0.5008160169959068
1761134021551507200,3.276507080078125,2.2525427801907063,-2.574191147559881,0.12321838338971138
1761134021571353000,3.29635302734375,3.7780326840698715,-3.04420256870836,-0.687355364434421
1761134021591200000,3.316199951171875,1.4925082562536,-3.533304767034948,-1.8498099746756254
1761134021611047200,3.336047119140625,1.0820552317500114,-1.970859927985072,-2.423723961108178
1761134021630893300,3.355893310546875,0.23713760803639888,0.2949930001556873,-0.7133695111349224
1761134021650740200,3.375740234375,-1.8450006746977567,2.295203233526647,1.2009778176419437
1761134021670586000,3.395586181640625,-3.1675381487369534,3.5059243004173037,1.7844425994910298
1761134021690433300,3.415433349609375,-2.725733708158135,3.4253345139205456,0.2297057044699788
1761134021710280200,3.4352802734375,-2.5295272454470394,2.6942838001444933,-1.0553533950462937
1761134021730125600,3.45512548828125,-3.4710125615119933,1.9462205767691134,-1.5598972003936766
1761134021749972500,3.474972412109375,-3.699657066491246,1.5551292553395033,-1.5290265535727143
1761134021769818600,3.494818603515625,-1.6672206800371407,1.033267235444486,-1.1313687132343648
1761134021789665800,3.514665771484375,1.4733610727131365,0.7267731825873255,-1.0613184409305452
1761134021809512700,3.5345126953125,1.2262094356626272,1.0497545521259308,-0.28561843808889387
1761134021829358600,3.554358642578125,1.2194722363620996,1.762177137799561,0.3353761562094092
1761134021849205800,3.574205810546875,6.354340385392308,1.2577379618704319,1.2719867058448493
1761134021869052700,3.594052734375,12.823093916428089,0.5752502034723759,4.272352032522857
1761134021888898600,3.613898681640625,18.924450305354593,-1.3924977299720047,7.460812265518308
1761134021908745500,3.633745361328125,29.23637037914991,-7.502206936702132,6.385583664917945
1761134021928591600,3.653591552734375,32.11494194841385,-12.394842784905434,5.0896834379136555
1761134021948438500,3.6734384765625,26.382040101695058,-10.530983680480718,4.82899573520273
1761134021968285400,3.693285400390625,20.61255186085701,-9.472012387198209,7.2517375534057615
1761134021988131600,3.713131591796875,14.013351164221763,-10.096928246593475,6.056559800344705
1761134022007978800,3.732978759765625,3.289156695714593,-10.603289038234948,0.5318017050312832
1761134022027824600,3.75282470703125,-7.097928801441192,-9.544749122107028,-2.404286562449485
1761134022047671600,3.772671630859375,-17.2837908845067,-8.682384689030052,-5.037946236413717
1761134022067518700,3.792518798828125,-24.427539187836647,-10.367598121875524,-5.022001648306846
1761134022087364600,3.812364501953125,-23.938553893887995,-10.238716890418528,-2.706895736697316
1761134022107211500,3.83221142578125,-21.34312940416336,-9.829828631013632,-1.3881944798201322
1761134022127058700,3.85205859375,-20.224387240529058,-7.305726917746663,-0.47521582139115776
1761134022146904800,3.87190478515625,-23.4046726426363,-5.695548559880256,-0.5725877062648534
1761134022166751700,3.891751708984375,-24.127204826653003,-5.465114833396673,-0.7136278698101639
1761134022186597600,3.91159765625,-22.164873657560346,-5.778965678757428,-0.779019356522709
1761134022206444800,3.93144482421875,-18.387981960219143,-6.052966159766912,-0.7900525725167244
1761134022226291700,3.951291748046875,-13.814757514113188,-6.153458916607499,0.7531463718585669
1761134022246137600,3.9711376953125,-9.657286537006497,-5.822478657269477,3.279834740617871
1761134022265984500,3.990984619140625,-7.013050962361693,-5.596238875344396,2.9288047959417103
1761134022285830700,4.01083056640625,-5.403974428257346,-5.498592155584693,0.646219051925838
1761134022305677600,4.030677490234375,-4.306040074852109,-5.1138440657019615,-0.8668456701442598
1761134022325524500,4.0505244140625,-2.957248215615749,-3.8813489738985893,-0.2592085700690746
1761134022345370600,4.07037060546875,0.8444786477744579,-2.0909604716151953,0.7783408727392553
1761134022365217800,4.0902177734375,4.590388346874714,-0.43167759883999823,1.148129293899238
1761134022385063700,4.110063720703125,8.917434969398379,-0.2970204143300652,0.6586795973092318
1761134022404910600,4.12991064453125,15.888297479850053,-0.6792737647876143,1.423091751808673
1761134022424757800,4.1497578125,14.095464799284935,-6.349059230118989,5.734442646420002
1761134022444603600,4.169603759765625,12.884924641919135,-8.459066932031511,6.360506506806612
1761134022464450600,4.189450439453125,15.082867232394218,-9.397087202334404,3.48833457545191
1761134022484297500,4.20929736328125,17.999175534856317,-10.061868623650074,3.2181802484765645
1761134022504143600,4.2291435546875,18.460072213917968,-8.235663834837078,3.493131746600568
1761134022523990500,4.248990478515625,15.157539903801679,-4.573392203888297,3.3247669382780787
1761134022543836700,4.268836669921875,8.626499720200895,-1.7656679025247692,3.222642196321487
1761134022563683600,4.28868359375,4.0845168000549075,0.7478264920100569,2.5881182583644984
1761134022583530800,4.30853076171875,1.7267805379867553,2.002124834820628,1.8269541458755731
1761134022603376600,4.328376708984375,0.22503858944177627,2.2222037560284136,0.4491527575150132
1761134022623223600,4.3482236328125,-2.0622259600400925,2.6952126054272054,-0.5059111481778323
1761134022643069700,4.368069580078125,-4.8259419005900615,3.4475703111261127,-0.8489848731525241
1761134022662916600,4.38791650390625,-7.3243445244550704,3.9857498440936205,-0.5915503270186484
1761134022682763500,4.407763427734375,-8.341940435776113,4.6327860576212405,-0.9200608352422713
1761134022702609700,4.427609619140625,-7.331457571330666,4.356875066815316,-1.616438733435422
1761134022722456600,4.44745654296875,-4.934859371426701,3.7299095814138647,-2.1048779378086326
1761134022742303500,4.467303466796875,-1.598487335550785,2.652825416074693,-2.1646717506445943
1761134022762149600,4.487149658203125,0.2793547015190124,1.3985145060434936,-1.6486222164206206
1761134022781996500,4.50699658203125,-1.1666624371945857,-0.6142801913514733,-0.43481034390777346
1761134022801842400,4.526842529296875,-0.9172551301717757,-3.5967882281690833,-0.04495382497012615
1761134022821689600,4.546689697265625,3.6284202147513627,-6.557544159644841,-1.7278209869503973
1761134022841536500,4.56653662109375,3.469686865866184,-7.319601713842153,-1.3772491613052784
1761134022861382400,4.58638232421875,-3.6392689410239454,-4.24093865712732,2.0302260169282556
1761134022881229300,4.606229248046875,-2.8997476282835004,-0.1172521684616804,3.2116566919267178
1761134022901075700,4.62607568359375,-0.17820435755252836,2.088184284900129,3.2296833470046518
1761134022920922600,4.645922607421875,0.697756639200449,3.111204559357464,3.3461090015143156
1761134022940769500,4.66576953125,0.0006494038194417953,3.54457405680716,2.914877392876148
1761134022960615400,4.685615478515625,-0.9556307457953691,3.6573084555834527,2.011169872672111
1761134022980462600,4.705462646484375,-1.3886422235876321,3.2971386343792077,0.7890905225515366
1761134023000309500,4.7253095703125,-0.8660130187124013,3.072097999110818,-0.38967590167373417
1761134023020155400,4.7451552734375,-0.373937357532978,2.8411843801558017,-0.8669444543436169
1761134023040002600,4.76500244140625,-0.32343349722027775,1.9782313335359096,-0.05932078849673271
1761134023059848400,4.784848388671875,0.18543080167472362,1.0800111587017773,0.4569397581294179
1761134023079695400,4.8046953125,1.6589514488637447,0.0935720176666975,0.03490910855680704
1761134023099542500,4.82454248046875,3.5212346822738647,-0.6307306831538677,-0.821603968143463
1761134023119388700,4.844388671875,4.263446549272537,-1.1254817010223865,-1.7386849107921123
1761134023139235600,4.864235595703125,4.115740790358186,-1.1560954504728316,-2.3420132077574727
1761134023159081500,4.88408154296875,3.4799756201684473,-0.8368184884101152,-2.194496541674435
1761134023178928600,4.9039287109375,2.6078718833655117,-0.23883798221349714,-1.5003838119342923
1761134023198775600,4.923775634765625,1.5238567497193813,0.31284254510104653,-0.9813584767699242
1761134023218621400,4.943621337890625,-0.23711948785781858,0.19197861588299273,-0.26635873408466576
1761134023238468400,4.96346826171875,-1.7079700390547512,-0.14001695797741412,0.05189268432259559
1761134023258315500,4.9833154296875,-1.1182435664623975,-0.45004035400450226,0.10190729981362819
1761134023278161400,5.003161376953125,-0.25929741739630696,-1.4019766291961073,0.5871630518451333
1761134023298008300,5.02300830078125,0.288175136834383,-2.54702023203969,1.1011989081591367
1761134023317854500,5.0428544921875,0.5213192913204431,-3.81594214348644,1.6472765009000896
1761134023337701600,5.06270166015625,3.4612674125671385,-6.179762401643395,2.7065429777368903
1761134023357548500,5.082548583984375,10.930715989005565,-6.957560545808076,1.3645686895608902
1761134023377394400,5.10239453125,14.754729503005743,-6.7396589686393735,0.06082227910086512
1761134023397241600,5.12224169921875,15.612425359749793,-7.6612991820275775,0.6318922742791474
1761134023417087500,5.14208740234375,17.031006210005284,-6.8124085630297655,0.9334716670878231
1761134023436934400,5.161934326171875,17.184431515610218,-5.532691409063339,1.7258875346697866
1761134023456781300,5.18178125,15.608691433918475,-4.5126185862347485,3.3465959082484242
1761134023476627700,5.201627685546875,11.411382367420195,-3.6061037535250184,5.403289953124522
1761134023496474600,5.221474609375,5.8363370867520565,-3.4983518193364143,5.8095034403622146
1761134023516321500,5.241321533203125,-1.105784482383728,-4.21344011708796,4.82737193339318
1761134023536167400,5.26116748046875,-7.6135928434789175,-6.566463379159569,3.184309250795841
1761134023556014600,5.2810146484375,-14.118940367418526,-10.029892938196658,-0.4249694795034826
1761134023575860500,5.300860595703125,-18.715171595102547,-12.10538053086996,-4.737659806025028
1761134023595707400,5.320707275390625,-20.779790587759017,-12.367213604223727,-7.232450084611773
1761134023615554600,5.340554443359375,-22.04601463842392,-10.545966145557164,-6.478944670182466
1761134023635400400,5.360400390625,-22.546557099175452,-7.363459560269117,-4.06054614188075
1761134023655247400,5.380247314453125,-22.893454474091527,-4.847246554425358,-2.1501186168961226
1761134023675094500,5.400094482421875,-22.876435534751415,-3.988554087859392,-1.316234428372234
1761134023694940700,5.419940673828125,-22.67282084161043,-4.011546840912104,-1.1075493731644004
1761134023714787600,5.43978759765625,-21.45071416509151,-4.6327471869155765,-1.6899349084094166
1761134023734634200,5.45963427734375,-17.57619211460352,-5.289529133909941,-2.4405942857578395
1761134023754481200,5.479481201171875,-12.48188978471756,-4.676107605214416,-2.83842719040215
1761134023774328300,5.499328369140625,-7.954147571370005,-3.227812292435765,-3.151063399276137
1761134023794174200,5.51917431640625,-4.257482672432065,-2.625438519716263,-0.9306770679332316
1761134023814021000,5.539021240234375,4.879573537534475,-3.5914041970431803,1.1896037523210048
1761134023833867000,5.558866943359375,17.003841139703987,-2.8319559485614296,-0.0750388743713498
1761134023853714200,5.578714111328125,13.374130885142087,-2.529099375423789,-0.06898994959592819
1761134023873561000,5.59856103515625,7.106079959192872,-1.0327684190768749,5.475954207319021
1761134023893407200,5.6184072265625,11.54820842040181,-2.091611629000306,8.269607605493068
1761134023913254100,5.638254150390625,22.45510046622753,-5.406188012653589,7.622691511213779
1761134023933101000,5.65810107421875,29.500616358864306,-6.008258418512344,6.312334888833761
1761134023952948000,5.677947998046875,23.673033656454084,-3.8771746108233924,5.984708031576871
1761134023972795100,5.697795166015625,15.775780523216724,-1.3719380492851136,4.775323181726038
1761134023992641300,5.717641357421875,7.728265516841411,0.4786163140170276,3.2061326678082347
1761134024012488200,5.73748828125,1.2554986585110426,1.4624395734652875,1.8437077122777699
1761134024032335000,5.757335205078125,-2.4959756889790294,1.8606475950323045,-0.12674421942830086
1761134024052181200,5.77718115234375,-5.19420939579308,1.7704343862742185,-1.8854393603309987
1761134024072028200,5.797028076171875,-6.989643198767304,1.5766535432748496,-2.677169291475415
1761134024091874000,5.8168740234375,-7.430844997277855,1.5963102837726473,-2.4394150128453966
1761134024111721000,5.836720947265625,-6.544103663313388,1.6176660832732914,-1.8127239604711531
1761134024131568000,5.856568115234375,-4.17330392153263,1.7548685683518648,-1.0878721013352275
1761134024151414300,5.876414306640625,-2.9969518649727105,1.9793091919004917,-0.10663052894324064
1761134024171261200,5.89626123046875,-1.4764163686305283,1.389485396413505,0.6657248396456241
1761134024191108400,5.9161083984375,0.370336118170619,0.22783187342211603,0.8383803308993577
1761134024210954200,5.935954345703125,2.2636685698390004,-0.6950652081593871,0.5027972539409995
1761134024230801200,5.95580126953125,1.0441939953893422,-1.6915392748661338,-0.21031360625773668
1761134024250647000,5.97564697265625,-0.5670213043093681,-2.0367014965526757,-0.6897840528860688
1761134024270494200,5.995494140625,-0.674546444004774,-1.660092435592413,-0.5629585849151015
1761134024290341000,6.015341064453125,0.056336804249882695,-1.0558714275710284,0.17881313710063695
1761134024310187000,6.03518701171875,0.25090660566985606,-0.6809931359261274,0.8363093698441981
1761134024330034000,6.055033935546875,0.5732008697271347,-0.28493045582473275,0.8059136470586061
1761134024349881000,6.074881103515625,0.4451736247509718,0.48485959232076997,0.5146658247806132
1761134024369727200,6.094727294921875,-0.36480128039717674,1.145141510260105,0.3146690298758447
1761134024389574100,6.11457421875,-1.44345868640244,1.477715906921774,0.5954464576743543
1761134024409420000,6.134419921875,-3.1309821497559547,2.0226582120224834,1.0097434442549944
1761134024429267200,6.15426708984375,-3.200346777883172,2.02718255757913,0.4266067253164947
1761134024449114000,6.174114013671875,-3.6867946623086927,1.6485485666625201,-0.41642362334579225
1761134024468960000,6.1939599609375,-4.007100382897257,1.731296261845529,-0.8252927396588027
1761134024488807200,6.21380712890625,-3.3126211579322815,1.6649918980717657,-0.5613619633734226
1761134024508654000,6.233654052734375,-1.946318191924691,1.4238321949124335,-0.22416078369393944
1761134024528500000,6.2535,-0.5736053588747978,1.3369520760998128,-0.2640779296711087
1761134024548347100,6.27334716796875,0.08383914368152617,1.361336575771868,-0.5265149602673947
1761134024568193300,6.293193359375,-0.6789291891336441,0.46484395538270473,-0.14419249009639024
1761134024588040200,6.313040283203125,-1.1836381219148635,-0.4635810958400368,0.8768253584973513
1761134024607887000,6.33288720703125,0.5350561402499675,-1.3493322497233748,2.0714858096860347
1761134024627733200,6.352733154296875,3.293424874553084,-1.5916189110860228,2.5921359695732593
1761134024647580200,6.372580078125,7.233541386979818,-2.3459824036493897,3.5198677778348326
1761134024667427000,6.392427001953125,11.068618731307982,-2.9434485305830833,4.497491451990604
1761134024687273000,6.41227294921875,14.741539182043075,-4.044248794813454,5.510148737865686
1761134024707120000,6.4321201171875,19.29533879671097,-5.472265874195099,5.591506001603603
1761134024726966000,6.451966064453125,21.92780560762882,-6.6161915789246555,3.8329035074204203
1761134024746813000,6.47181298828125,18.490106117653845,-6.48171764202714,2.730705943612754
1761134024766659800,6.491659912109375,11.282448528993129,-5.16164685036242,2.5995412773936986
1761134024786506000,6.511506103515625,5.033143804568052,-2.8266747932881113,1.5127293526358903
1761134024806353000,6.531352783203125,-0.38198856204152104,-0.9809664087124168,-0.43860235660187896
1761134024826199800,6.55119970703125,-3.7865614429622885,-0.4430817670382559,-1.8039160923764108
1761134024846045700,6.571045654296875,-5.326691866612434,-1.3444511996835469,-1.7818907230511307
1761134024865892900,6.590892822265625,-6.498210511666536,-2.7409540736436844,-1.6525037340290842
1761134024885738800,6.61073876953125,-8.105064693546295,-4.008528077612817,-1.6585956211633979
1761134024905585700,6.630585693359375,-10.060417840319872,-5.099193024536967,-1.1032613936468958
1761134024925432800,6.650432861328125,-11.972076806795597,-5.699652488067746,-1.3011378353968261
1761134024945279000,6.670279052734375,-13.527185603868961,-5.606698894560337,-1.7195140541151166
1761134024965126000,6.6901259765625,-15.17398484264612,-5.194539650660753,-1.1115557592615484
1761134024984973000,6.70997314453125,-16.78594540775418,-4.282113840341568,0.04827748950012028
1761134025004819000,6.72981884765625,-16.897296827739478,-3.99445132920444,-0.3209722582058981
1761134025024665900,6.749665771484375,-15.997398490560053,-4.825598201718926,-1.2399702499896288
1761134025044511700,6.76951171875,-16.099821923202274,-5.236490786683559,-1.2818693635642529
1761134025064359000,6.78935888671875,-16.594797397476434,-5.444609805506468,-1.3650003589764237
1761134025084205800,6.809205810546875,-17.920538635993005,-5.6583723831743,-1.6638579256057737
1761134025104051700,6.8290517578125,-18.129755386924742,-4.955587102156877,-1.6250861502714453
1761134025123898600,6.848898681640625,-15.746217744123935,-3.641701721128821,-1.4533565416909753
1761134025143745800,6.868745849609375,-11.461575262087583,-3.126528092956543,0.7175941430926323
1761134025163592000,6.888592041015625,-2.2357629103034733,-4.013075073392689,4.639976261386275
1761134025183438800,6.90843896484375,8.322313944286108,-7.930236534428596,8.954853138166666
1761134025203284700,6.92828466796875,11.711502793592214,-8.661638253599405,9.213936620551348
1761134025223132000,6.9481318359375,15.105086078464984,-9.0007983122617,7.569591204667091
1761134025242978800,6.967978759765625,20.959318302869796,-10.295689069962501,5.880678917303681
1761134025262824700,6.98782470703125,27.649877432775497,-11.091903745305537,4.087517735436559
1761134025282671900,7.007671875,26.33442962473631,-9.695374567860364,2.619402746683359
1761134025302518000,7.02751806640625,23.13835979351997,-6.266786020579934,1.7104275152094661
1761134025322365000,7.047364990234375,17.507911774581668,-2.751943669691682,0.5097482421226799
1761134025342211800,7.0672119140625,10.62148871179223,-0.14757190340161322,0.46180751029625533
1761134025362058000,7.08705810546875,5.789269630628824,1.9880133073598145,0.35369441464506085
1761134025381905000,7.10690478515625,2.6397762571483847,3.3327474156379697,-0.004155804505199194
1761134025401751800,7.126751708984375,-0.20218904425203799,3.8975188951939344,-0.09142444771137088
1761134025421597700,7.14659765625,-2.803658074837923,4.382555159255862,-0.006679148970358074
1761134025441444900,7.16644482421875,-4.596795875829458,4.4960017979547375,-0.14546607196247205
1761134025461291800,7.186291748046875,-5.835093808692694,3.5460280550077554,-0.5764858096819371
1761134025481137700,7.2061376953125,-5.133321504110097,2.2661925353586674,-1.520463746280223
1761134025500984800,7.22598486328125,-3.9710950035363433,0.896215557013452,-2.6691148720964786
1761134025520831000,7.2458310546875,-3.1944518746256825,-0.15346300726681947,-2.612888250222802
1761134025540678000,7.265677978515625,-0.7614344538629054,-1.0542051017940044,-1.0663483248565346
1761134025560525000,7.285525146484375,1.7235598223745823,-2.3520775056540963,-0.0697589612070471
1761134025580371000,7.305370849609375,2.374790857243538,-3.1868539668425915,-0.13427454186789692
1761134025600217900,7.3252177734375,2.771503525686264,-3.519905479496717,-0.2262919505037367
1761134025620064800,7.345064697265625,0.08074176218807697,-3.1448931862086056,-0.9041069678504019
1761134025639911000,7.364910888671875,-2.7105671186864373,-1.6626859592169523,-0.3022523419004865
1761134025659757800,7.3847578125,-2.602720491951704,-0.09383914417028427,0.20024013867396862
1761134025679603700,7.404603759765625,-1.2462357401251791,0.5857955628842115,0.4677552762521431
1761134025699450600,7.42445068359375,-1.2552554974049328,1.0172121727004646,0.5484774569569155
1761134025719297800,7.4442978515625,-1.6574118182063102,1.2329396207004786,0.44984987293370066
1761134025739144000,7.46414404296875,-1.4850000725805759,1.4117929436810315,-0.1945449957722798
1761134025758991000,7.4839912109375,-1.7914689909964798,1.7154986809939146,-0.49773598849605766
1761134025778838000,7.503838134765625,-2.1177952870488164,2.4252403570204972,-0.5260413148736581
1761134025798684000,7.523683837890625,-2.5570839454144236,2.6739643579542633,-0.26229948528911917
1761134025818531000,7.543531005859375,-2.588257082313299,2.5108847965583205,-0.13308622713247314
1761134025838377000,7.563376953125,-2.5511516327559947,2.332584139024466,-0.810833202477917
1761134025858223900,7.583223876953125,-2.500333299666643,1.7840929092705249,-1.8594807432100176
1761134025878071000,7.603071044921875,-1.9674948354661463,1.5013726768411695,-2.2243200175300237
1761134025897917000,7.6229169921875,2.043322522127628,1.1146665847584605,-0.5593048847131431
1761134025917763800,7.642763916015625,11.837185521268843,-1.5217729291826485,0.9903381943002343
1761134025937610800,7.66261083984375,23.154934496223927,-4.101493946079909,3.4142230450585482
1761134025957457200,7.68245703125,24.253354002797604,-7.425066998398304,4.73212642955631
1761134025977304000,7.702303955078125,17.510459120976925,-9.698243401294945,4.817622400534153
1761134025997150000,7.72214990234375,8.294432250148057,-7.64033238184452,3.9216771848946808
1761134026016996900,7.741996826171875,-0.37257775961756706,-2.909752889469266,3.5665991338714953
1761134026036844000,7.761843994140625,-4.414293528822064,-0.09025609805174171,1.1412851270928979
1761134026056690000,7.78168994140625,-6.4519374207913875,0.5326866346396506,-2.6045558906853197
1761134026076536800,7.801536865234375,-6.164746034297346,-0.11436528791375458,-3.246301888850331
1761134026096384000,7.821384033203125,-4.384388804423809,-0.578271670185402,-1.4343009819567203
1761134026116230000,7.84122998046875,-3.982938001543283,-0.7148021742865442,-0.2539878397461027
1761134026136076800,7.861076904296875,-4.942120886862278,-0.9531502540912479,0.23515138438893482
1761134026155923000,7.8809228515625,-6.311485578528046,-0.8251703553881495,0.606676986338757
1761134026175770000,7.90077001953125,-7.826976066440343,-1.2901464857831597,0.10693451685849577
1761134026195617000,7.920616943359375,-9.08076675198972,-1.610850265778601,-0.1295827307898551
1761134026215463000,7.940462890625,-10.433232915824652,-1.5488580661155282,0.46369427389092743
1761134026235310000,7.96031005859375,-11.937815640753508,-1.6248714846074581,1.5588155426368115
1761134026255157000,7.980156982421875,-13.011653663778304,-1.3703829287976026,1.5108213270574806
1761134026275003000,8.0000029296875,-13.19685591739416,-1.0857550361160189,0.9016551907841116
1761134026294849800,8.019849853515625,-12.40745676728487,-0.5378467208165675,-0.007132869245851179
1761134026314696200,8.0396962890625,-12.142443894851207,0.011365735884010792,-0.21007976096924394
1761134026334543000,8.059543212890626,-12.986322823166846,0.8515623954903334,-0.7083521213643252
1761134026354390000,8.07939013671875,-14.025034587752819,2.5276582367047666,-0.6391891532890498
1761134026374236000,8.09923583984375,-11.20372395184636,1.5476279397986827,0.18034670334346592
1761134026394083000,8.1190830078125,-1.3631933095544575,0.21161321761421859,1.1150187591969967
1761134026413930000,8.138929931640625,3.886297828477621,-2.283914800662547,2.9315236995115876
1761134026433775900,8.15877587890625,7.9311086410880085,-3.792859081801772,7.765636339336633
1761134026453623000,8.178623046875,16.688415592372415,-3.411644719003141,10.397319890922308
1761134026473470000,8.198469970703124,20.784847871148585,-1.9450714067339896,8.187064931362867
1761134026493315800,8.21831591796875,17.145816830533743,-2.062769857658446,5.410714550167322
1761134026513162800,8.238162841796875,15.702890643572806,-0.9457204694166779,3.129373545515537
1761134026533009200,8.258009033203125,15.748284613525867,0.7951055450573563,1.1795394544243811
1761134026552856000,8.27785595703125,12.102991005384922,0.734091542776674,1.0208403000697492
1761134026572703000,8.297702880859376,6.645946081197262,-0.10755685000792145,2.1196078894287345
1761134026592548900,8.317548828125,0.27534605039954185,-0.8813055726513266,2.434755788862705
1761134026612396000,8.33739599609375,-4.270220573452114,-0.2320455821270123,0.473778664727509
1761134026632243000,8.357242919921875,-6.025321781516075,-0.012226225170865654,-2.135332989566028
1761134026652088800,8.3770888671875,-4.275929598748684,-0.18571246816031634,-3.3263284885063764
1761134026671936000,8.39693603515625,-3.377214333873987,-0.734338284079358,-2.601330791158974
1761134026691783000,8.416782958984374,-3.5620541839182374,-0.518050717978552,-0.753184511911869
1761134026711628800,8.43662890625,-3.663685004878044,0.05057440479826182,0.028379414527118205
1761134026731476000,8.45647607421875,-2.061538562297821,-0.15363514896333216,-1.1618860165730118
1761134026751322000,8.476322021484375,0.13244681498408317,-0.4220251331472769,-1.9766561931736766
1761134026771169000,8.4961689453125,0.9745704240649938,0.10585843945904634,-1.4711507031872868
1761134026791016200,8.51601611328125,-0.93213004322052,-0.5713938568377867,0.7804965894684195
1761134026810862000,8.535862060546876,-2.7728216225475073,-1.0265050478331743,2.7606840255081653
1761134026830709000,8.555708984375,-1.3171429215192794,-0.036868535528890786,0.6250467922985553
1761134026850556000,8.575555908203125,1.2098059978723525,-0.9899028716228901,-0.33107787449359893
1761134026870402000,8.595402099609375,2.1474206099838016,-0.8177901089437305,-0.29735958315655586
1761134026890249000,8.6152490234375,1.5365969888269901,-0.17242639520559458,0.3144274762049317
1761134026910095000,8.63509521484375,1.3763345306783914,0.6020366497196257,-0.099566143514961
1761134026929942000,8.65494189453125,1.558743938705325,0.9820028390880674,-0.23157208286374806
1761134026949789000,8.674788818359374,1.0176976181298494,0.7255327540721744,-0.45934521183595056
1761134026969635000,8.694635009765625,-0.0443850851714611,-0.061406654860079284,-0.36709231394380326
1761134026989482000,8.71448193359375,-1.8871318434625863,-0.20841179122440515,0.7201189853951334
1761134027009329200,8.7343291015625,-2.1046394528776404,-0.0573359713550657,1.468629806407541
