time,seconds_elapsed,z,y,x
1761131784171024400,0.0850244140625,-0.03214678168296814,-0.03199406713247299,0.009544769302010536
1761131784201030400,0.115030517578125,-0.03214678168296814,-0.03199406713247299,0.009544769302010536
1761131784211034400,0.125034423828125,-0.03214678168296814,-0.03199406713247299,0.009544769302010536
1761131784221037300,0.135037353515625,-0.03764457255601883,-0.03443752974271774,-0.02038762718439102
1761131784231039700,0.145039794921875,-0.04008803144097328,-0.031383201479911804,-0.022831087931990623
1761131784241037600,0.15503759765625,-0.04314235970377922,-0.03443752974271774,-0.024052819237113
1761131784251039200,0.165039306640625,-0.04619668424129486,-0.04054617881774902,-0.028939740732312202
1761131784261040600,0.17504052734375,-0.04558581858873367,-0.0466548316180706,-0.03871358558535576
1761131784271042000,0.1850419921875,-0.04680754989385605,-0.042989641427993774,-0.05337435007095337
1761131784281043200,0.195043212890625,-0.04558581858873367,-0.027718011289834976,-0.06742425262928009
1761131784291044400,0.20504443359375,-0.04253149405121803,-0.01794416643679142,-0.08758280426263809
1761131784301045200,0.215045166015625,-0.0443640872836113,-0.014278975315392017,-0.0973566472530365
1761131784311046100,0.225046142578125,-0.04558581858873367,-0.008170322515070438,-0.1071304902434349
1761131784321047000,0.235047119140625,-0.044974952936172485,0.00038179077091626823,-0.11079568415880203
1761131784331048000,0.2450478515625,-0.04314235970377922,0.013209961354732513,-0.11140654981136322
1761131784341048600,0.255048583984375,-0.05291620269417763,0.029703322798013687,-0.11446087807416916
1761131784351049500,0.265049560546875,-0.08590292185544968,0.06696610152721405,-0.11690433323383331
1761131784361050000,0.275050048828125,-0.0742964819073677,0.12072224169969559,-0.09674578160047531
1761131784371050800,0.28505078125,-0.06879869848489761,0.20196732878684998,-0.04604396969079971
1761131784381051400,0.295051513671875,-0.07307475805282593,0.3424663245677948,0.013820826075971127
1761131784391052000,0.305052001953125,-0.08895725011825562,0.5049564838409424,0.06207918003201485
1761131784401052700,0.315052734375,-0.07735081017017365,0.6045275330543518,0.09384417533874512
1761131784411053000,0.325052978515625,-0.07063129544258118,0.6979898810386658,0.12438743561506271
1761131784421053400,0.335053466796875,-0.06269004940986633,0.7822893261909485,0.140269935131073
1761131784431054000,0.34505419921875,-0.047418415546417236,0.7780132293701172,0.10422888398170471
1761131784441053400,0.355053466796875,-0.04680754989385605,0.6931029558181763,0.036422841250896454
1761131784451053800,0.3650537109375,-0.059635721147060394,0.5880341529846191,-0.04726569727063179
1761131784461054500,0.375054443359375,-0.0443640872836113,0.47624582052230835,-0.14011721312999725
1761131784471054800,0.385054931640625,-0.036422841250896454,0.3412446081638336,-0.23724478483200073
1761131784481055200,0.39505517578125,-0.018096882849931717,0.19830213487148285,-0.3184898793697357
1761131784491055000,0.40505517578125,-0.023594669997692108,0.08712465316057205,-0.37224599719047546
1761131784501055200,0.41505517578125,0.09613491594791412,0.17264579236507416,-0.3753003478050232
1761131784511055000,0.42505517578125,0.3789655268192291,0.3278055489063263,-0.29710957407951355
1761131784521055200,0.43505517578125,0.5646685361862183,0.5073999166488647,-0.12912164628505707
1761131784531055000,0.44505517578125,0.4357759952545166,0.5135086178779602,-0.004505131393671036
1761131784541056000,0.455055908203125,0.18898643553256989,0.6393468379974365,0.1860848218202591
1761131784551056100,0.46505615234375,0.011835514567792416,0.653396725654602,0.3589596748352051
1761131784561056000,0.475055908203125,-0.10300715267658234,0.5318345427513123,0.47074803709983826
1761131784571056000,0.48505615234375,-0.13660474121570587,0.4340961277484894,0.5416083931922913
1761131784581056000,0.495055908203125,-0.11033753305673599,0.29970577359199524,0.5660430192947388
1761131784591056100,0.50505615234375,-0.06879869848489761,0.1653154045343399,0.5501605272293091
1761131784601056000,0.515055908203125,-0.030925052240490913,0.05291620269417763,0.5177846550941467
1761131784611056000,0.52505615234375,-0.0034361169673502445,-0.03260493278503418,0.4835762083530426
1761131784621056000,0.535055908203125,0.01366810966283083,-0.08575020730495453,0.44631341099739075
1761131784641055200,0.55505517578125,0.022220224142074585,-0.13584116101264954,0.3687335252761841
1761131784651055000,0.56505517578125,-0.00038179077091626823,-0.142560675740242,0.3125339448451996
1761131784661055200,0.57505517578125,-0.04130976274609566,-0.1419498175382614,0.25389087200164795
1761131784671055000,0.58505517578125,-0.10911580175161362,-0.12545645236968994,0.1952477991580963
1761131784681055200,0.59505517578125,-0.18913915753364563,-0.11812606453895569,0.13110695779323578
1761131784691055000,0.60505517578125,-0.2716059684753418,-0.1175151988863945,0.06696610152721405
1761131784701055200,0.61505517578125,-0.34002286195755005,-0.12179125845432281,0.0022143865935504436
1761131784711055000,0.62505517578125,-0.38644862174987793,-0.122402124106884,-0.05642867833375931
1761131784721055200,0.63505517578125,-0.39988765120506287,-0.09552405029535294,-0.0918588638305664
1761131784731055000,0.64505517578125,-0.382172554731369,-0.036880988627672195,-0.09430231899023056
1761131784741056000,0.655055908203125,-0.3461315333843231,0.039477165788412094,-0.06803511828184128
1761131784751056100,0.66505615234375,-0.3058144152164459,0.12744176387786865,0.010155634954571724
1761131784761056000,0.675055908203125,-0.30337095260620117,0.13843733072280884,0.07246389240026474
1761131784771056000,0.68505615234375,-0.3131448030471802,0.10850493609905243,0.1146135926246643
1761131784781056000,0.695055908203125,-0.330859899520874,0.060246583074331284,0.13355042040348053
1761131784791056100,0.70505615234375,-0.3516293168067932,0.011988230049610138,0.13293954730033875
1761131784801056000,0.715055908203125,-0.373009592294693,-0.028939740732312202,0.12622003257274628
1761131784811055900,0.725055908203125,-0.3937790095806122,-0.05642867833375931,0.12072224169969559
1761131784821056000,0.735055908203125,-0.41088324785232544,-0.07108944654464722,0.1146135926246643
1761131784831056000,0.745055908203125,-0.41638103127479553,-0.08452847599983215,0.10911580175161362
1761131784841055200,0.75505517578125,-0.4194353520870209,-0.10590875893831253,0.10850493609905243
1761131784851055000,0.76505517578125,-0.43104177713394165,-0.13339769840240479,0.10850493609905243
1761131784861055200,0.77505517578125,-0.45058947801589966,-0.14989106357097626,0.11705705523490906
1761131784871055000,0.78505517578125,-0.4738023579120636,-0.1474476009607315,0.1359938681125641
1761131784881055200,0.79505517578125,-0.4982369542121887,-0.12606731057167053,0.16409367322921753
1761131784891055000,0.80505517578125,-0.5135086178779602,-0.08452847599983215,0.2062433809041977
1761131784901055200,0.81505517578125,-0.5220606923103333,-0.045433104038238525,0.2563343346118927
1761131784911055000,0.82505517578125,-0.5318345427513123,-0.0264962799847126,0.3009274899959564
1761131784921055200,0.83505517578125,-0.5464953184127808,-0.04360050708055496,0.33513593673706055
1761131784931055000,0.84505517578125,-0.5654321312904358,-0.09857837855815887,0.34490978717803955
1761131784941056000,0.855055908203125,-0.5916993618011475,-0.1786017268896103,0.3278055489063263
1761131784951056000,0.865055908203125,-0.6197991371154785,-0.25129470229148865,0.2868776023387909
1761131784961056000,0.875055908203125,-0.6478989720344543,-0.30688342452049255,0.22823452949523926
1761131784971055900,0.885055908203125,-0.6778313517570496,-0.32765284180641174,0.16470454633235931
1761131784981056000,0.895055908203125,-0.7340309619903564,-0.3038291037082672,0.08834638446569443
1761131784991056000,0.905055908203125,-0.7829001545906067,-0.273285835981369,0.06146831437945366
1761131785001056000,0.915055908203125,-0.8317694067955017,-0.2592359483242035,0.04314235970377922
1761131785011056000,0.92505615234375,-0.8684213161468506,-0.24029912054538727,0.027870727702975273
1761131785021056000,0.935055908203125,-0.8836929202079773,-0.22136229276657104,0.022372938692569733
1761131785031056100,0.94505615234375,-0.8800277709960938,-0.2134210467338562,0.01748601719737053
1761131785041055200,0.95505517578125,-0.8635343909263611,-0.22624921798706055,0.01748601719737053
1761131785051055000,0.96505517578125,-0.8336020112037659,-0.2647337317466736,0.019318614155054092
1761131785061055200,0.97505517578125,-0.796339213848114,-0.32215505838394165,0.02603813074529171
1761131785071055000,0.98505517578125,-0.7560220956802368,-0.38873937726020813,0.038866300135850906
1761131785081055200,0.99505517578125,-0.7144832611083984,-0.4522693455219269,0.0541379339993
1761131785091055000,1.00505517578125,-0.6747770309448242,-0.5035820603370667,0.06574437022209167
1761131785101055200,1.01505517578125,-0.6399577260017395,-0.5341253280639648,0.07612907886505127
1761131785111055000,1.02505517578125,-0.606360137462616,-0.5481752157211304,0.0895681157708168
1761131785121055200,1.03505517578125,-0.5776494741439819,-0.5335144400596619,0.09750936180353165
1761131785131055000,1.04505517578125,-0.5556582808494568,-0.5017494559288025,0.09812022745609283
1761131785141056000,1.055055908203125,-0.5354997515678406,-0.45837801694869995,0.09201157838106155
1761131785151056100,1.06505615234375,-0.5159520506858826,-0.4040110111236572,0.08407033234834671
1761131785161056000,1.075055908203125,-0.49640437960624695,-0.353920042514801,0.07735081017017365
1761131785171056000,1.08505615234375,-0.48174360394477844,-0.29649871587753296,0.06696610152721405
1761131785181056000,1.095055908203125,-0.47685667872428894,-0.24640776216983795,0.056581392884254456
1761131785191056100,1.10505615234375,-0.4793001413345337,-0.20242546498775482,0.05169447138905525
1761131785201056000,1.115055908203125,-0.4841870665550232,-0.16088663041591644,0.05230533704161644
1761131785211056000,1.12505615234375,-0.49212831258773804,-0.09124799817800522,0.05047274008393288
1761131785221056000,1.135055908203125,-0.4896848499774933,-0.04482223838567734,0.056581392884254456
1761131785231056100,1.14505615234375,-0.4799109995365143,-0.0069485921412706375,0.06635523587465286
1761131785241055200,1.15505517578125,-0.4646393656730652,0.014431691728532314,0.06696610152721405
1761131785251055000,1.16505517578125,-0.44020476937294006,0.009544769302010536,0.05719225853681564
1761131785261055200,1.17505517578125,-0.40477457642555237,-0.0069485921412706375,0.04375322163105011
1761131785271055000,1.18505517578125,-0.36567920446395874,-0.024663684889674187,0.02603813074529171
1761131785281055200,1.19505517578125,-0.32963815331459045,-0.04054617881774902,0.009544769302010536
1761131785291055000,1.20505517578125,-0.29970577359199524,-0.05398521572351456,-0.007559457328170538
1761131785301055200,1.21505517578125,-0.27404943108558655,-0.06742425262928009,-0.019165897741913795
1761131785311055000,1.22505517578125,-0.24778221547603607,-0.08819366991519928,-0.028328875079751015
1761131785321055200,1.23505517578125,-0.22273674607276917,-0.11446087807416916,-0.04115704447031021
1761131785331055000,1.24505517578125,-0.1952477991580963,-0.14133894443511963,-0.06314819306135178
1761131785341056000,1.255055908203125,-0.1750892549753189,-0.1633300930261612,-0.07841982692480087
1761131785351056000,1.265055908203125,-0.15737415850162506,-0.19020816683769226,-0.08025242388248444
1761131785361056000,1.275055908203125,-0.14637859165668488,-0.21525363624095917,-0.06864598393440247
1761131785371056000,1.28505615234375,-0.1396590620279312,-0.2293035387992859,-0.05032002553343773
1761131785381056000,1.295055908203125,-0.13171781599521637,-0.23296873271465302,-0.022220224142074585
1761131785391056100,1.30505615234375,-0.12927435338497162,-0.21097758412361145,0.015653422102332115
1761131785401056000,1.315055908203125,-0.13782647252082825,-0.1682170182466507,0.06269004940986633
1761131785411056000,1.32505615234375,-0.17203491926193237,-0.12912164628505707,0.10911580175161362
1761131785421056000,1.335055908203125,-0.23006711900234222,-0.11934779584407806,0.13843733072280884
1761131785431056100,1.34505615234375,-0.301538348197937,-0.14866933226585388,0.13232868909835815
1761131785441055200,1.35505517578125,-0.3766747713088989,-0.20731239020824432,0.08834638446569443
1761131785451055000,1.36505517578125,-0.48113274574279785,-0.2879466116428375,-0.016722436994314194
1761131785461055200,1.37505517578125,-0.5507713556289673,-0.31665727496147156,-0.07964155822992325
1761131785471055000,1.38505517578125,-0.6167448163032532,-0.31787899136543274,-0.122402124106884
1761131785481055200,1.39505517578125,-0.6827182769775391,-0.3001639246940613,-0.14439326524734497
1761131785491055000,1.40505517578125,-0.7334200739860535,-0.273285835981369,-0.15111279487609863
1761131785501055200,1.41505517578125,-0.7621307373046875,-0.24640776216983795,-0.1419498175382614
1761131785511055000,1.42505517578125,-0.7633524537086487,-0.2238057553768158,-0.11140654981136322
1761131785521055200,1.43505517578125,-0.7493025660514832,-0.19937114417552948,-0.054596081376075745
1761131785531055000,1.44505517578125,-0.7242571115493774,-0.182877779006958,0.024816401302814484
1761131785541056000,1.455055908203125,-0.6924921274185181,-0.1932624876499176,0.12255483865737915
1761131785551056100,1.46505615234375,-0.6521750092506409,-0.22624921798706055,0.22884538769721985
1761131785561056000,1.475055908203125,-0.6100252866744995,-0.27695104479789734,0.31497737765312195
1761131785571056000,1.48505615234375,-0.5733733773231506,-0.3337614834308624,0.353461891412735
1761131785581056300,1.49505615234375,-0.5458844304084778,-0.3801872432231903,0.3479641079902649
1761131785591056100,1.50505615234375,-0.5403866767883301,-0.4113413989543915,0.3119230568408966
1761131785601056300,1.51505615234375,-0.5635995268821716,-0.4504367709159851,0.24839307367801666
1761131785611056000,1.52505615234375,-0.6179665327072144,-0.5035820603370667,0.1555415689945221
1761131785621056300,1.53505615234375,-0.6992116570472717,-0.5726097822189331,0.03153591975569725
1761131785631056100,1.54505615234375,-0.7969500422477722,-0.6562983393669128,-0.11568260937929153
1761131785641055200,1.55505517578125,-0.9026297330856323,-0.7412086129188538,-0.27206411957740784
1761131785651055400,1.565055419921875,-1.0199159383773804,-0.7876343727111816,-0.40828704833984375
1761131785661055200,1.57505517578125,-1.1426998376846313,-0.7931321859359741,-0.5078580975532532
1761131785671055400,1.585055419921875,-1.243492603302002,-0.7662540674209595,-0.5506186485290527
1761131785683720000,1.597719970703125,-1.3381767272949219,-0.6556875109672546,-0.5096907019615173
1761131785693720000,1.607719970703125,-1.3607786893844604,-0.5335144400596619,-0.43455424904823303
1761131785703720000,1.617719970703125,-1.3540592193603516,-0.3789655268192291,-0.33681583404541016
1761131785713720000,1.627719970703125,-1.3235158920288086,-0.2238057553768158,-0.23113614320755005
1761131785723720000,1.637719970703125,-1.2709815502166748,-0.08941540122032166,-0.12118039280176163
1761131785733720000,1.647719970703125,-1.2086732387542725,0.01748601719737053,-0.008170322515070438
1761131785743721000,1.657720947265625,-1.1439214944839478,0.09078984707593918,0.10300715267658234
1761131785753720800,1.667720947265625,-1.098717451095581,0.13660474121570587,0.2160172164440155
1761131785763721000,1.677720947265625,-1.0748937129974365,0.1604284793138504,0.3180317282676697
1761131785773720800,1.687720947265625,-1.0736720561981201,0.19341520965099335,0.40110939741134644
1761131785783721000,1.697720947265625,-1.0895545482635498,0.23923009634017944,0.45486554503440857
1761131785793720800,1.707720947265625,-1.1091022491455078,0.2832123935222626,0.47685667872428894
1761131785803721000,1.717720947265625,-1.1188760995864868,0.32047519087791443,0.47074803709983826
1761131785813720800,1.727720947265625,-1.1048262119293213,0.3479641079902649,0.44631341099739075
1761131785823721000,1.737720947265625,-1.062065601348877,0.36995527148246765,0.41088324785232544
1761131785833720800,1.747720947265625,-0.996703028678894,0.38644862174987793,0.38950294256210327
1761131785843720000,1.757719970703125,-0.9209557175636292,0.3833943009376526,0.3815616965293884
1761131785853720000,1.767719970703125,-0.8488736152648926,0.36140313744544983,0.3882812261581421
1761131785863720000,1.777719970703125,-0.7835110425949097,0.32414036989212036,0.4035528600215912
1761131785873720000,1.787719970703125,-0.7248679995536804,0.2771037518978119,0.42982006072998047
1761131785883720000,1.797719970703125,-0.6753878593444824,0.22884538769721985,0.4524220824241638
1761131785893720000,1.807719970703125,-0.6375142335891724,0.18425223231315613,0.4628067910671234
1761131785903720000,1.817719970703125,-0.6081926822662354,0.1396590620279312,0.453643798828125
1761131785913719800,1.8277197265625,-0.577038586139679,0.08040513843297958,0.4041637182235718
1761131785923720000,1.837719970703125,-0.557490885257721,0.056581392884254456,0.3461315333843231
1761131785933719800,1.8477197265625,-0.5422192811965942,0.04864014685153961,0.2862667143344879
1761131785943720700,1.857720703125,-0.5300019383430481,0.05291620269417763,0.23312145471572876
1761131785953720800,1.867720947265625,-0.5135086178779602,0.060246583074331284,0.18975001573562622
1761131785963720700,1.877720703125,-0.4933500289916992,0.07735081017017365,0.1604284793138504
1761131785973720800,1.887720947265625,-0.4683045744895935,0.08651378750801086,0.14454598724842072
1761131785983720700,1.897720703125,-0.4420373737812042,0.07796167582273483,0.13355042040348053
1761131785993720800,1.907720947265625,-0.4243222773075104,0.060246583074331284,0.1256091594696045
1761131786003720700,1.917720703125,-0.4182136058807373,0.03520110994577408,0.11583532392978668
1761131786013720800,1.927720947265625,-0.4243222773075104,0.010766499675810337,0.10239628702402115
1761131786023720700,1.937720703125,-0.44081562757492065,-0.024663684889674187,0.07857254147529602
1761131786033720800,1.947720947265625,-0.45120033621788025,-0.07292203605175018,0.04619668424129486
1761131786043720000,1.957719970703125,-0.4493677318096161,-0.13400855660438538,0.004046982154250145
1761131786053719800,1.9677197265625,-0.43653959035873413,-0.20120373368263245,-0.03199406713247299
1761131786063720000,1.977719970703125,-0.41454842686653137,-0.2653445899486542,-0.05520694702863693
1761131786073719800,1.9877197265625,-0.3888920843601227,-0.31726813316345215,-0.05093089118599892
1761131786083720000,1.997719970703125,-0.36506834626197815,-0.3490331172943115,-0.018555032089352608
1761131786093719800,2.0077197265625,-0.3467423915863037,-0.3557526469230652,0.03764457255601883
1761131786103720000,2.017719970703125,-0.3424663245677948,-0.3740786015987396,0.09323330968618393
1761131786113719800,2.0277197265625,-0.3571271002292633,-0.37285688519477844,0.12194397300481796
1761131786123720000,2.037719970703125,-0.3992767930030823,-0.3807981312274933,0.11339186131954193
1761131786133720000,2.047719970703125,-0.48052188754081726,-0.4009566605091095,0.0645226389169693
1761131786143720700,2.057720703125,-0.6656140685081482,-0.477314829826355,-0.06986771523952484
1761131786153720800,2.067720947265625,-0.8201629519462585,-0.5530621409416199,-0.1938733607530594
1761131786163720700,2.077720703125,-0.9893726110458374,-0.6361398100852966,-0.32704198360443115
1761131786173720800,2.087720947265625,-1.1439214944839478,-0.7320456504821777,-0.4571562707424164
1761131786183720700,2.097720703125,-1.2636511325836182,-0.8273406028747559,-0.5665011405944824
1761131786193720800,2.107720947265625,-1.3381767272949219,-0.868268609046936,-0.6361398100852966
1761131786203720700,2.117720703125,-1.3772720098495483,-0.8420013785362244,-0.6459136605262756
1761131786213720800,2.127720947265625,-1.3992631435394287,-0.7412086129188538,-0.5909357666969299
1761131786223720700,2.137720703125,-1.4084261655807495,-0.5719989538192749,-0.44371724128723145
1761131786233720800,2.147720947265625,-1.412702202796936,-0.38324159383773804,-0.23113614320755005
1761131786243720000,2.157719970703125,-1.4194217920303345,-0.22197316586971283,-0.000839939690195024
1761131786253719800,2.1677197265625,-1.4304172992706299,-0.102243572473526,0.1915826052427292
1761131786263720000,2.177719970703125,-1.4462997913360596,-0.036880988627672195,0.31864258646965027
1761131786273719800,2.1877197265625,-1.459738850593567,-0.011224648915231228,0.38033998012542725
1761131786283720000,2.197719970703125,-1.4805083274841309,-0.07170030474662781,0.39011383056640625
1761131786293719800,2.2077197265625,-1.5177710056304932,-0.22991441190242767,0.33452507853507996
1761131786303720000,2.217719970703125,-1.549536108970642,-0.4504367709159851,0.2056325078010559
1761131786313719800,2.2277197265625,-1.5696946382522583,-0.6630178689956665,0.01687515154480934
1761131786333719800,2.2477197265625,-1.5935183763504028,-0.9354637861251831,-0.40340012311935425
1761131786343720700,2.257720703125,-1.6277267932891846,-0.9629526734352112,-0.5701663494110107
1761131786353720800,2.267720947265625,-1.6753742694854736,-0.9208030104637146,-0.6880633234977722
1761131786363720700,2.277720703125,-1.7175240516662598,-0.8279514908790588,-0.7503715753555298
1761131786373720800,2.287720947265625,-1.6869807243347168,-0.5762749910354614,-0.667904794216156
1761131786383720700,2.297720703125,-1.60084867477417,-0.3655264973640442,-0.49930599331855774
1761131786393720800,2.307720947265625,-1.4841734170913696,-0.1376737505197525,-0.264122873544693
1761131786403720700,2.317720703125,-1.3644438982009888,0.05780312418937683,-0.000839939690195024
1761131786413720800,2.327720947265625,-1.2642619609832764,0.18852828443050385,0.2514474093914032
1761131786423720700,2.337720703125,-1.20622980594635,0.23495404422283173,0.4542546570301056
1761131786433720800,2.347720947265625,-1.1860712766647339,0.21479548513889313,0.5739842653274536
1761131786443720200,2.35772021484375,-1.2037863731384277,0.17875444889068604,0.6130796074867249
1761131786453720000,2.367719970703125,-1.253266453742981,0.1298852264881134,0.5727625489234924
1761131786463720200,2.37772021484375,-1.3155746459960938,0.07368562370538712,0.47563496232032776
1761131786473720000,2.387719970703125,-1.3797155618667603,0.027870727702975273,0.3326924741268158
1761131786483720200,2.39772021484375,-1.4346933364868164,0.0071013085544109344,0.16653713583946228
1761131786493720000,2.407719970703125,-1.4743996858596802,0.013209961354732513,0.004046982154250145
1761131786503720200,2.41772021484375,-1.5079972743988037,0.041920628398656845,-0.13156510889530182
1761131786513720000,2.427719970703125,-1.539762258529663,0.06757696717977524,-0.2238057553768158
1761131786523720200,2.43772021484375,-1.5666402578353882,0.07185302674770355,-0.2745075821876526
1761131786533720000,2.447719970703125,-1.5770249366760254,0.056581392884254456,-0.2879466116428375
1761131786543721000,2.457720947265625,-1.5611424446105957,0.01687515154480934,-0.28061622381210327
1761131786553721000,2.46772119140625,-1.5220471620559692,-0.03627012297511101,-0.26167941093444824
1761131786563721000,2.477720947265625,-1.4762321710586548,-0.09918924421072006,-0.2384665161371231
1761131786573721000,2.48772119140625,-1.4328607320785522,-0.16516269743442535,-0.22258402407169342
1761131786583721000,2.497720947265625,-1.4017066955566406,-0.2293035387992859,-0.2280818074941635
1761131786593721000,2.50772119140625,-1.3821589946746826,-0.28244882822036743,-0.254349023103714
1761131786603721000,2.517720947265625,-1.3571134805679321,-0.33315062522888184,-0.3184898793697357
1761131786613721000,2.52772119140625,-1.3351223468780518,-0.3508657217025757,-0.3453679382801056
1761131786623721000,2.537720947265625,-1.309466004371643,-0.35269832611083984,-0.3508657217025757
1761131786633721000,2.54772119140625,-1.2764792442321777,-0.32643112540245056,-0.3288745880126953
1761131786643720200,2.55772021484375,-1.232496976852417,-0.2751184403896332,-0.273285835981369
1761131786653720300,2.56772021484375,-1.1732430458068848,-0.23174700140953064,-0.18898643553256989
1761131786663720200,2.57772021484375,-1.1060478687286377,-0.23541219532489777,-0.09918924421072006
1761131786673720000,2.587719970703125,-1.041296124458313,-0.29588785767555237,-0.02344195358455181
1761131786683720200,2.59772021484375,-0.9802096486091614,-0.406454473733902,0.021151209250092506
1761131786693720000,2.607719970703125,-0.9301186800003052,-0.5310709476470947,0.036422841250896454
1761131786703720200,2.61772021484375,-0.8946884870529175,-0.6312528848648071,0.0290924571454525
1761131786713720000,2.627719970703125,-0.8781951665878296,-0.686841607093811,0.012599095702171326
1761131786723720200,2.63772021484375,-0.8775842785835266,-0.7021132707595825,-0.007559457328170538
1761131786733720000,2.647719970703125,-0.880638599395752,-0.6837872862815857,-0.027718011289834976
1761131786743720700,2.657720703125,-0.8867472410202026,-0.648357093334198,-0.03565925732254982
1761131786753720800,2.667720947265625,-0.8934667706489563,-0.6367506384849548,-0.042989641427993774
1761131786763720700,2.677720703125,-0.9172905087471008,-0.658130943775177,-0.060093868523836136
1761131786773720800,2.687720947265625,-0.9594402313232422,-0.6905068159103394,-0.09308059513568878
1761131786783720700,2.697720703125,-1.0076985359191895,-0.7350999712944031,-0.14622586965560913
1761131786793720800,2.707720947265625,-1.0614547729492188,-0.7656432390213013,-0.21097758412361145
1761131786803720700,2.717720703125,-1.1231521368026733,-0.7748062014579773,-0.2647337317466736
1761131786813720800,2.727720947265625,-1.1811842918395996,-0.7577019929885864,-0.29161179065704346
1761131786823720700,2.737720703125,-1.225777506828308,-0.7198283076286316,-0.273285835981369
1761131786833720800,2.747720947265625,-1.2569315433502197,-0.6031530499458313,-0.13339769840240479
1761131786843720200,2.75772021484375,-1.2526555061340332,-0.49930599331855774,0.025427265092730522
1761131786853720000,2.767719970703125,-1.2318861484527588,-0.36858081817626953,0.22701279819011688
1761131786863720200,2.77772021484375,-1.196455955505371,-0.20486892759799957,0.4530329406261444
1761131786873720000,2.787719970703125,-1.1372020244598389,-0.02344195358455181,0.6845508813858032
1761131786883720200,2.79772021484375,-1.0645090341567993,0.15187637507915497,0.9032406210899353
1761131786893720000,2.807719970703125,-0.9985355734825134,0.28382325172424316,1.081613302230835
1761131786903720200,2.81772021484375,-0.9514989852905273,0.3565162420272827,1.204397201538086
1761131786913720000,2.827719970703125,-0.9313403964042664,0.3980550765991211,1.2722032070159912
1761131786923720200,2.83772021484375,-0.93805992603302,0.41149410605430603,1.2917509078979492
1761131786933720000,2.847719970703125,-0.9722684025764465,0.3992767930030823,1.2636511325836182
1761131786943721000,2.857720947265625,-1.0321332216262817,0.37606391310691833,1.1976776123046875
1761131786953720800,2.867720947265625,-1.1036044359207153,0.3430771827697754,1.0993283987045288
1761131786963721000,2.877720947265625,-1.1616365909576416,0.2966514229774475,0.9741010069847107
1761131786973721000,2.88772119140625,-1.1824060678482056,0.24411702156066895,0.8336020112037659
1761131786983721000,2.897720947265625,-1.1567497253417969,0.18730655312538147,0.6906595230102539
1761131786993720800,2.907720947265625,-1.0926088094711304,0.130496084690094,0.5526039600372314
1761131787003721000,2.917720947265625,-0.9942595362663269,0.07612907886505127,0.4231005311012268
1761131787013721000,2.92772119140625,-0.8726973533630371,0.03520110994577408,0.30947959423065186
1761131787023721000,2.937720947265625,-0.7450265288352966,0.018707748502492905,0.22518019378185272
1761131787033721000,2.94772119140625,-0.6204100251197815,0.018096882849931717,0.17875444889068604
1761131787043720200,2.95772021484375,-0.5141194462776184,0.02603813074529171,0.16409367322921753
1761131787053720000,2.967719970703125,-0.4279874563217163,0.03214678168296814,0.1653154045343399
1761131787063720200,2.97772021484375,-0.35101842880249023,0.02848159149289131,0.16165021061897278
1761131787073720000,2.987719970703125,-0.2416735589504242,0.02054034359753132,0.130496084690094
1761131787083720200,2.99772021484375,-0.16409367322921753,0.015042556449770927,0.09689849615097046
1761131787093720000,3.007719970703125,-0.08712465316057205,0.007712173741310835,0.05780312418937683
1761131787103720200,3.01772021484375,-0.02054034359753132,-0.00022907447419129312,0.01748601719737053
1761131787113720000,3.027719970703125,0.03504839166998863,-0.014278975315392017,-0.03565925732254982
1761131787123720200,3.03772021484375,0.07964155822992325,-0.01794416643679142,-0.10529789328575134
1761131787133720000,3.047719970703125,0.1175151988863945,-0.012446379289031029,-0.17921258509159088
1761131787143720700,3.057720703125,0.14439326524734497,-0.011835514567792416,-0.2592359483242035
1761131787153720800,3.067720947265625,0.15355625748634338,-0.025274548679590225,-0.33864840865135193
1761131787163720700,3.077720703125,0.15355625748634338,-0.04421137273311615,-0.4143957197666168
1761131787173720800,3.087720947265625,0.14439326524734497,-0.0466548316180706,-0.47487136721611023
1761131787183720700,3.097720703125,0.13645201921463013,-0.01366810966283083,-0.5121341347694397
1761131787193720800,3.107720947265625,0.1321759670972824,0.05719225853681564,-0.5237405896186829
1761131787203720700,3.117720703125,0.12667818367481232,0.1451568603515625,-0.5109124183654785
1761131787213720800,3.127720947265625,0.13400855660438538,0.23923009634017944,-0.47426050901412964
1761131787223720700,3.137720703125,0.15111279487609863,0.3424663245677948,-0.4143957197666168
1761131787233720800,3.147720947265625,0.1786017268896103,0.44570255279541016,-0.33315062522888184
1761131787243720000,3.157719970703125,0.21647536754608154,0.5409975051879883,-0.23541219532489777
1761131787253719800,3.1677197265625,0.26229026913642883,0.60513836145401,-0.132786825299263
1761131787263720000,3.177719970703125,0.32276591658592224,0.6381251215934753,-0.04115704447031021
1761131787273719800,3.1877197265625,0.38873937726020813,0.6515641212463379,0.030925052240490913
1761131787283720000,3.197719970703125,0.4614323377609253,0.6301838755607605,0.0694095641374588
1761131787293719800,3.2077197265625,0.5322927236557007,0.576427698135376,0.06757696717977524
1761131787303720000,3.217719970703125,0.6165921092033386,0.4328743815422058,-0.007559457328170538
1761131787313719800,3.2277197265625,0.6459136605262756,0.30214923620224,-0.09552405029535294
1761131787323720000,3.237719970703125,0.6514114141464233,0.13721559941768646,-0.20547980070114136
1761131787333719800,3.2477197265625,0.6349180936813354,-0.04237877577543259,-0.32215505838394165
1761131787343720700,3.257720703125,0.6019313335418701,-0.20181460678577423,-0.4162282943725586
1761131787353720800,3.267720947265625,0.5567272901535034,-0.3081051707267761,-0.45471280813217163
1761131787363720700,3.277720703125,0.5115233063697815,-0.2934443950653076,-0.39851322770118713
1761131787373720800,3.287720947265625,0.4925864636898041,-0.12606731057167053,-0.22502748668193817
1761131787383720700,3.297720703125,0.4907538592815399,0.15615242719650269,0.036422841250896454
1761131787393720800,3.307720947265625,0.4974733889102936,0.47074803709983826,0.32047519087791443
1761131787403687400,3.3176875,0.5035820603370667,0.6301838755607605,0.5452736020088196
1761131787413654000,3.327654052734375,0.5084689855575562,0.6161339282989502,0.653396725654602
1761131787423620900,3.337620849609375,0.5219079852104187,0.5587126016616821,0.6521750092506409
1761131787433587500,3.34758740234375,0.5133558511734009,0.43104177713394165,0.5397757887840271
1761131787443553300,3.35755322265625,0.45410194993019104,0.1598176211118698,0.3278055489063263
1761131787453520000,3.367519775390625,0.3588069677352905,-0.30199649930000305,0.06085744872689247
1761131787463486500,3.377486572265625,0.26717719435691833,-0.810847282409668,-0.15905404090881348
1761131787473453300,3.387453369140625,0.20242546498775482,-1.1309406757354736,-0.23113614320755005
1761131787483420000,3.397419921875,0.11873693019151688,-1.1883620023727417,-0.12118039280176163
1761131787493386500,3.407386474609375,0.036880988627672195,-0.96173095703125,0.15309810638427734
1761131787503353300,3.417353271484375,0.008170322515070438,-0.5005277395248413,0.5605452060699463
1761131787513320000,3.42731982421875,0.05826127156615257,0.04253149405121803,0.9863182902336121
1761131787523286500,3.43728662109375,0.18226692080497742,0.45669811964035034,1.1469758749008179
1761131787533253000,3.447253173828125,0.2580142021179199,1.1347585916519165,1.4328607320785522
1761131787543220700,3.457220703125,0.23480132222175598,1.225777506828308,1.6063464879989624
1761131787553187300,3.467187255859375,0.15172365307807922,1.0944414138793945,1.631392002105713
1761131787563154200,3.477154296875,0.04970915988087654,0.8500953316688538,1.5165493488311768
1761131787573120800,3.487120849609375,-0.04253149405121803,0.50251305103302,1.2838096618652344
1761131787583087400,3.49708740234375,-0.18669569492340088,-0.10102184116840363,0.8109999895095825
1761131787593054200,3.50705419921875,-0.3168099820613861,-0.4760931134223938,0.4884631335735321
1761131787603020800,3.517020751953125,-0.4695262908935547,-0.7289913296699524,0.2160172164440155
1761131787612987400,3.5269873046875,-0.6130796074867249,-0.8139016032218933,0.025427265092730522
1761131787622954000,3.5369541015625,-0.7321983575820923,-0.7864126563072205,-0.09857837855815887
1761131787632920800,3.5469208984375,-0.8122217059135437,-0.6801220774650574,-0.14133894443511963
1761131787642886700,3.55688671875,-0.8274933099746704,-0.5035820603370667,-0.10041097551584244
1761131787652853200,3.566853271484375,-0.7926740050315857,-0.2940552532672882,-0.005726861767470837
1761131787662819800,3.57681982421875,-0.7248679995536804,-0.07597636431455612,0.12316570430994034
1761131787672786400,3.586786376953125,-0.6387359499931335,0.1097266674041748,0.2508365511894226
1761131787682753300,3.596753173828125,-0.5397757887840271,0.23861923813819885,0.3522401750087738
1761131787692719900,3.606719970703125,-0.4279874563217163,0.31986430287361145,0.4127158224582672
1761131787702719700,3.6167197265625,-0.32047519087791443,0.3369685411453247,0.43531784415245056
1761131787712720000,3.626719970703125,-0.23312145471572876,0.30459266901016235,0.42615485191345215
1761131787722719700,3.6367197265625,-0.17753271758556366,0.22945626080036163,0.3931681513786316
1761131787732719900,3.646719970703125,-0.15615242719650269,0.10789407044649124,0.3216969072818756
1761131787742720800,3.656720703125,-0.15676330029964447,-0.02038762718439102,0.21357376873493195
1761131787752720600,3.666720703125,-0.15676330029964447,-0.13461942970752716,0.08162686973810196
1761131787762720500,3.676720458984375,-0.15676330029964447,-0.223194882273674,-0.060093868523836136
1761131787772720600,3.686720703125,-0.1604284793138504,-0.27572929859161377,-0.1987602859735489
1761131787782720500,3.696720458984375,-0.1799761801958084,-0.29710957407951355,-0.3239876627922058
1761131787792720600,3.706720703125,-0.21357376873493195,-0.29588785767555237,-0.42783474922180176
1761131787802720500,3.716720458984375,-0.25389087200164795,-0.2946661114692688,-0.5084689855575562
1761131787812720600,3.726720703125,-0.301538348197937,-0.3258202373981476,-0.609872579574585
1761131787822720500,3.736720458984375,-0.31436651945114136,-0.3746894598007202,-0.6758460402488708
1761131787832720600,3.746720703125,-0.3119230568408966,-0.43272167444229126,-0.7387651801109314
1761131787842719700,3.7567197265625,-0.3027600944042206,-0.4828126132488251,-0.7925212979316711
1761131787852719900,3.766719970703125,-0.292375385761261,-0.5274057984352112,-0.8255079984664917
1761131787862719700,3.7767197265625,-0.2880993187427521,-0.5518403649330139,-0.829784095287323
1761131787872720000,3.786719970703125,-0.29359710216522217,-0.5322927236557007,-0.7980191111564636
1761131787882719700,3.7967197265625,-0.3064252734184265,-0.4614323377609253,-0.7363216876983643
1761131787892719900,3.806719970703125,-0.32047519087791443,-0.3508657217025757,-0.6495788097381592
1761131787902719700,3.8167197265625,-0.33941200375556946,-0.23235787451267242,-0.5567272901535034
1761131787912720000,3.826719970703125,-0.36445748805999756,-0.14561499655246735,-0.47303876280784607
1761131787922719700,3.8367197265625,-0.39988765120506287,-0.11385001242160797,-0.4101196527481079
1761131787932719900,3.846719970703125,-0.44081562757492065,-0.12545645236968994,-0.3789655268192291
1761131787942720800,3.856720703125,-0.49151745438575745,-0.1627192348241806,-0.3795763850212097
1761131787952720600,3.866720703125,-0.5605452060699463,-0.19509509205818176,-0.39729148149490356
1761131787962720800,3.876720703125,-0.653396725654602,-0.2189188301563263,-0.4296673536300659
1761131787972720600,3.886720703125,-0.7645742297172546,-0.23541219532489777,-0.47914743423461914
1761131787982720800,3.896720703125,-0.8726973533630371,-0.2286926805973053,-0.5432882905006409
1761131787992720600,3.906720703125,-0.9594402313232422,-0.18898643553256989,-0.609872579574585
1761131788002720800,3.916720703125,-1.0009790658950806,-0.14072808623313904,-0.6508005857467651
1761131788012720600,3.926720703125,-0.9985355734825134,-0.08941540122032166,-0.638583242893219
1761131788022720800,3.936720703125,-0.9588293433189392,-0.039324451237916946,-0.5823836326599121
1761131788032720600,3.946720703125,-0.8946884870529175,0.0009926559869199991,-0.49930599331855774
1761131788042719700,3.9567197265625,-0.8122217059135437,0.021762074902653694,-0.3997349441051483
1761131788052719900,3.966719970703125,-0.6662248969078064,-0.0032834007870405912,-0.24090997874736786
1761131788062719700,3.9767197265625,-0.566653847694397,-0.054596081376075745,-0.12851077318191528
1761131788072720000,3.986719970703125,-0.4750240743160248,-0.12423472106456757,-0.0032834007870405912
1761131788082719700,3.9967197265625,-0.40110939741134644,-0.17493653297424316,0.1359938681125641
1761131788092719900,4.006719970703125,-0.353461891412735,-0.20731239020824432,0.27954721450805664
1761131788102719700,4.0167197265625,-0.3424663245677948,-0.22747094929218292,0.40049853920936584
1761131788112720000,4.026719970703125,-0.36079227924346924,-0.2531272768974304,0.473191499710083
1761131788122719700,4.0367197265625,-0.39622247219085693,-0.30199649930000305,0.4945717751979828
1761131788132719900,4.046719970703125,-0.44142648577690125,-0.36186128854751587,0.4799109995365143
1761131788142720800,4.056720703125,-0.4945717751979828,-0.41745004057884216,0.4481460154056549
1761131788152720600,4.066720703125,-0.5611560940742493,-0.44310638308525085,0.4176027476787567
1761131788162720800,4.076720703125,-0.6503424048423767,-0.47364965081214905,0.3931681513786316
1761131788172720600,4.086720703125,-0.767017662525177,-0.5365687608718872,0.3467423915863037
1761131788182720800,4.096720703125,-0.8934667706489563,-0.6324746012687683,0.25816693902015686
1761131788192720600,4.106720703125,-1.026024580001831,-0.7460955381393433,0.12316570430994034
1761131788202720800,4.116720703125,-1.1756864786148071,-0.8126798272132874,-0.03321579843759537
1761131788212720600,4.126720703125,-1.3424527645111084,-0.7961865067481995,-0.16088663041591644
1761131788222720800,4.136720703125,-1.487838625907898,-0.6562983393669128,-0.2244166135787964
1761131788232720600,4.146720703125,-1.5715272426605225,-0.41806089878082275,-0.19631682336330414
1761131788242719700,4.1567197265625,-1.5800793170928955,-0.13645201921463013,-0.07903069257736206
1761131788252719900,4.166719970703125,-1.5226579904556274,0.13232868909835815,0.09750936180353165
1761131788262719700,4.1767197265625,-1.4108695983886719,0.33941200375556946,0.30398181080818176
1761131788272720000,4.186719970703125,-1.1940125226974487,0.49212831258773804,0.5947536826133728
1761131788282719700,4.1967197265625,-1.0382418632507324,0.5092325210571289,0.748691737651825
1761131788302719700,4.2167197265625,-0.7554112076759338,0.4285983145236969,0.9808205366134644
1761131788312720000,4.226719970703125,-0.6460663676261902,0.34552064538002014,1.043739676475525
1761131788322719700,4.2367197265625,-0.5642104148864746,0.263053834438324,1.0596221685409546
1761131788332719900,4.246719970703125,-0.5073999166488647,0.18669569492340088,1.021748423576355
1761131788342720800,4.256720703125,-0.4750240743160248,0.11888964474201202,0.9337838888168335
1761131788352720600,4.266720703125,-0.46708282828330994,0.05230533704161644,0.7951174974441528
1761131788362720800,4.276720703125,-0.4744132161140442,-0.00022907447419129312,0.6161339282989502
1761131788372720600,4.286720703125,-0.4878522455692291,-0.03321579843759537,0.40599632263183594
1761131788382720800,4.296720703125,-0.50251305103302,-0.06864598393440247,0.1757001131772995
1761131788392720600,4.306720703125,-0.5073999166488647,-0.11690433323383331,-0.0619264654815197
1761131788402720800,4.316720703125,-0.5037347674369812,-0.15722143650054932,-0.29222264885902405
1761131788412720600,4.326720703125,-0.4884631335735321,-0.18226692080497742,-0.4956407845020294
1761131788422720800,4.336720703125,-0.4573090076446533,-0.1987602859735489,-0.6544657349586487
1761131788432720600,4.346720703125,-0.41638103127479553,-0.21525363624095917,-0.7540367841720581
1761131788442719700,4.3567197265625,-0.3778965175151825,-0.2238057553768158,-0.7919104099273682
1761131788452719900,4.366719970703125,-0.34918585419654846,-0.19509509205818176,-0.7766388058662415
1761131788462719700,4.3767197265625,-0.3223077654838562,-0.13645201921463013,-0.7204391956329346
1761131788472720000,4.386719970703125,-0.2819906771183014,-0.07597636431455612,-0.6355289220809937
1761131788482719700,4.3967197265625,-0.2154063582420349,-0.036880988627672195,-0.5408447980880737
1761131788502719700,4.4167197265625,0.05032002553343773,-0.0668133869767189,-0.3704134225845337
1761131788512719400,4.42671923828125,0.15172365307807922,-0.11812606453895569,-0.3459787964820862
1761131788522719500,4.436719482421875,0.23235787451267242,-0.16516269743442535,-0.3404810130596161
1761131788532719400,4.44671923828125,0.292833536863327,-0.19204075634479523,-0.344757080078125
1761131788542720300,4.45672021484375,0.3245985209941864,-0.18532124161720276,-0.35697436332702637
1761131788552720400,4.466720458984375,0.32643112540245056,-0.14011721312999725,-0.36674821376800537
1761131788562720300,4.47672021484375,0.3050508201122284,-0.07047858089208603,-0.36674821376800537
1761131788572720400,4.486720458984375,0.27084237337112427,-0.000839939690195024,-0.3655264973640442
1761131788582720300,4.49672021484375,0.24029912054538727,0.06085744872689247,-0.36735907196998596
1761131788592720400,4.506720458984375,0.2085341215133667,0.10606148093938828,-0.3789655268192291
1761131788602720300,4.51672021484375,0.1731039434671402,0.1298852264881134,-0.41317397356033325
1761131788612720400,4.526720458984375,0.13950635492801666,0.1500437706708908,-0.467540979385376
1761131788622720300,4.53672021484375,0.1126282811164856,0.1610393524169922,-0.5341253280639648
1761131788632720400,4.546720458984375,0.09857837855815887,0.16714800894260406,-0.5921574831008911
1761131788642719500,4.556719482421875,0.10163270682096481,0.18303050100803375,-0.6141486167907715
1761131788652719900,4.566719970703125,0.11140654981136322,0.20685423910617828,-0.5891031622886658
1761131788662719700,4.5767197265625,0.12423472106456757,0.22945626080036163,-0.5206862688064575
1761131788672720000,4.586719970703125,0.1431715488433838,0.2606103718280792,-0.4247804284095764
1761131788682719700,4.5967197265625,0.18165604770183563,0.31009048223495483,-0.31299206614494324
1761131788692719900,4.606719970703125,0.24274258315563202,0.3723987340927124,-0.18898643553256989
1761131788702719700,4.6167197265625,0.3184898793697357,0.4224896728992462,-0.06436992436647415
1761131788712720000,4.626719970703125,0.4015675485134125,0.44020476937294006,0.041920628398656845
1761131788752720600,4.666720703125,0.6159812211990356,0.18852828443050385,0.14882203936576843
1761131788762720800,4.676720703125,0.5878814458847046,0.13904820382595062,0.0944550409913063
1761131788772720600,4.686720703125,0.5493969321250916,0.09201157838106155,0.04253149405121803
1761131788782720800,4.696720703125,0.5139667391777039,0.05047274008393288,0.0071013085544109344
1761131788792720600,4.706720703125,0.49319732189178467,0.030314188450574875,0.004657847341150045
1761131788802720800,4.716720703125,0.48403435945510864,0.04558581858873367,0.03459024429321289
1761131788812721200,4.72672119140625,0.48403435945510864,0.11278099566698074,0.09323330968618393
1761131788822721000,4.736720947265625,0.4974733889102936,0.2264019250869751,0.16959145665168762
1761131788832721200,4.74672119140625,0.5267949104309082,0.3626248836517334,0.25999951362609863
1761131788842720300,4.75672021484375,0.5738315582275391,0.47074803709983826,0.35407277941703796
1761131788852720000,4.76672021484375,0.6336963176727295,0.5190063714981079,0.4273765981197357
1761131788862720300,4.77672021484375,0.6984480619430542,0.5269476175308228,0.473191499710083
1761131788872720100,4.78672021484375,0.7589237093925476,0.5122868418693542,0.5000695586204529
1761131788882720300,4.79672021484375,0.810236394405365,0.46586111187934875,0.4951826333999634
1761131788892720000,4.80672021484375,0.8493317365646362,0.382172554731369,0.443869948387146
1761131788902720300,4.81672021484375,0.8621599078178406,0.2679407596588135,0.34552064538002014
1761131788912720100,4.82672021484375,0.8517752289772034,0.15370896458625793,0.20929770171642303
1761131788922720300,4.83672021484375,0.8218428492546082,-0.030161472037434578,-0.0020616701804101467
1761131788932720000,4.84672021484375,0.761978030204773,-0.2848922908306122,-0.33864840865135193
1761131788942721000,4.856720947265625,0.6935611367225647,-0.5426774024963379,-0.7552585005760193
1761131788952720600,4.866720703125,0.638583242893219,-0.761978030204773,-1.0936778783798218
1761131788962720800,4.876720703125,0.5988770127296448,-0.8187885284423828,-1.2054661512374878
1761131788972720600,4.886720703125,0.5524512529373169,-0.506025493144989,-0.8474991917610168
1761131788982720800,4.896720703125,0.5707772374153137,-0.24579690396785736,-0.4718170464038849
1761131788992720600,4.906720703125,0.8255079984664917,0.01992947794497013,-0.47426050901412964
1761131789002720800,4.916720703125,1.1101711988449097,0.8122217059135437,-0.3148246705532074
1761131789012720600,4.926720703125,1.295263409614563,1.250822901725769,-0.11690433323383331
1761131789022720800,4.936720703125,1.3942235708236694,1.5079972743988037,0.08773551881313324
1761131789032720600,4.946720703125,1.349630355834961,1.7370716333389282,0.33513593673706055
1761131789042719700,4.9567197265625,1.2311224937438965,1.7028632164001465,0.6301838755607605
1761131789052719900,4.966719970703125,1.1278862953186035,1.2624293565750122,0.899575412273407
1761131789062719700,4.9767197265625,1.0576368570327759,0.7511351704597473,1.0565677881240845
1761131789072720000,4.986719970703125,0.9794460535049438,0.31986430287361145,1.0675634145736694
1761131789082719700,4.9967197265625,0.8707120418548584,-0.09430231899023056,0.9374490976333618
1761131789092719900,5.006719970703125,0.7149413824081421,-0.4650975167751312,0.7150941491127014
1761131789102719700,5.0167197265625,0.5127450227737427,-0.7955756187438965,0.444480836391449
1761131789112720000,5.026719970703125,0.30077478289604187,-1.0814605951309204,0.14271339774131775
1761131789122719700,5.0367197265625,0.10163270682096481,-1.3215305805206299,-0.17982345819473267
1761131789132719900,5.046719970703125,-0.09017898142337799,-1.4834098815917969,-0.49380818009376526
1761131789142720800,5.056720703125,-0.2606103718280792,-1.474246859550476,-0.7534258961677551
1761131789152720600,5.066720703125,-0.38644862174987793,-1.2861003875732422,-0.9104182720184326
1761131789162720800,5.076720703125,-0.45669811964035034,-0.9055313467979431,-0.9550114274024963
1761131789172720600,5.086720703125,-0.4689154326915741,-0.4559345543384552,-0.8358927369117737
1761131789182720800,5.096720703125,-0.40599632263183594,-0.04421137273311615,-0.6281985640525818
1761131789192720600,5.106720703125,-0.21174116432666779,0.15309810638427734,-0.5787184834480286
1761131789202687500,5.1166875,0.030772335827350616,0.5697082281112671,-0.506636381149292
1761131789212654000,5.126654052734375,0.25251641869544983,0.7749589085578918,-0.40340012311935425
1761131789222620700,5.13662060546875,0.4095087945461273,0.8116108179092407,-0.2702315151691437
1761131789232587300,5.146587158203125,0.4974733889102936,0.7431939244270325,-0.10529789328575134
1761131789242553000,5.156552978515625,0.5200753808021545,0.6430120468139648,0.09934195876121521
1761131789252520000,5.16652001953125,0.45471280813217163,0.46036332845687866,0.4542546570301056
1761131789262486500,5.176486572265625,0.38690677285194397,0.2709950804710388,0.6222426295280457
1761131789272453000,5.186453125,0.3258202373981476,0.0749073475599289,0.7132615447044373
1761131789282419700,5.196419677734375,0.2604576647281647,-0.04421137273311615,0.7315874695777893
1761131789292386600,5.206386474609375,0.18959729373455048,-0.14133894443511963,0.6759987473487854
1761131789302353700,5.216353759765625,0.102243572473526,-0.22136229276657104,0.5550474524497986
1761131789312320300,5.2263203125,0.0069485921412706375,-0.27572929859161377,0.3876703679561615
1761131789322287000,5.236287109375,-0.08773551881313324,-0.2952769994735718,0.19769126176834106
1761131789332253700,5.246253662109375,-0.17631098628044128,-0.28733575344085693,0.010155634954571724
1761131789342221300,5.25622119140625,-0.2618321180343628,-0.2604576647281647,-0.15111279487609863
1761131789352188000,5.26618798828125,-0.34552064538002014,-0.24518603086471558,-0.27206411957740784
1761131789362154500,5.276154541015625,-0.4237114191055298,-0.2653445899486542,-0.35269832611083984
1761131789372121300,5.286121337890625,-0.48601967096328735,-0.3184898793697357,-0.39240455627441406
1761131789382088000,5.296087890625,-0.5251150131225586,-0.3905719518661499,-0.39179369807243347
1761131789392054500,5.306054443359375,-0.5434409976005554,-0.4608214795589447,-0.35330918431282043
1761131789402021400,5.316021484375,-0.5440518856048584,-0.5267949104309082,-0.2885574698448181
1761131789411987500,5.325987548828125,-0.5422192811965942,-0.5799401998519897,-0.22258402407169342
1761131789421954300,5.335954345703125,-0.5501605272293091,-0.6410267353057861,-0.1877647042274475
1761131789431921000,5.3459208984375,-0.5837581157684326,-0.7149413824081421,-0.2134210467338562
1761131789441886700,5.35588671875,-0.6460663676261902,-0.7680866718292236,-0.2897791862487793
1761131789451853300,5.365853271484375,-0.7328092455863953,-0.7668649554252625,-0.38812851905822754
1761131789461820200,5.375820068359375,-0.8268824815750122,-0.6807329654693604,-0.4724279046058655
1761131789471786800,5.385786865234375,-0.9069058299064636,-0.5170210599899292,-0.49869510531425476
1761131789481753300,5.39575341796875,-0.9460011720657349,-0.21952970325946808,-0.3789655268192291
1761131789491720200,5.40572021484375,-0.9038515090942383,-0.06436992436647415,-0.2238057553768158
1761131789501720000,5.415719970703125,-0.8073347806930542,-0.004505131393671036,-0.04909829422831535
1761131789511720000,5.425719970703125,-0.6802747845649719,-0.03504839166998863,0.1152244582772255
1761131789521720000,5.435719970703125,-0.5489387512207031,-0.10651962459087372,0.25450173020362854
1761131789531720000,5.445719970703125,-0.453643798828125,-0.18409951031208038,0.37117698788642883
1761131789541720800,5.455720947265625,-0.4023311138153076,-0.23541219532489777,0.47563496232032776
1761131789551721000,5.465720947265625,-0.39500072598457336,-0.25129470229148865,0.5697082281112671
1761131789561720800,5.475720947265625,-0.40538543462753296,-0.2848922908306122,0.6271295547485352
1761131789571721000,5.485720947265625,-0.42615485191345215,-0.37774381041526794,0.6173557043075562
1761131789581720800,5.495720947265625,-0.4524220824241638,-0.5139667391777039,0.5342780351638794
1761131789591721000,5.505720947265625,-0.49273917078971863,-0.647746205329895,0.39988765120506287
1761131789601720300,5.51572021484375,-0.5593234896659851,-0.7198283076286316,0.23800836503505707
1761131789611720400,5.525720458984375,-0.6582836508750916,-0.7149413824081421,0.07307475805282593
1761131789621720300,5.53572021484375,-0.7804567217826843,-0.6459136605262756,-0.07841982692480087
1761131789631720200,5.54572021484375,-0.9056841135025024,-0.5622251033782959,-0.19509509205818176
1761131789641719800,5.5557197265625,-1.0015898942947388,-0.4712061882019043,-0.254349023103714
1761131789651719700,5.5657197265625,-1.033965826034546,-0.344757080078125,-0.2488512247800827
1761131789661719800,5.5757197265625,-0.9930378198623657,-0.19998200237751007,-0.16943874955177307
1761131789671719700,5.5857197265625,-0.8885798454284668,-0.04054617881774902,-0.012446379289031029
1761131789681719800,5.5957197265625,-0.7315874695777893,0.1048397496342659,0.2007455974817276
1761131789691720000,5.605719970703125,-0.5495496392250061,0.2105194330215454,0.44020476937294006
1761131789701719800,5.6157197265625,-0.3565162420272827,0.2606103718280792,0.6729444265365601
1761131789711720200,5.62572021484375,-0.08834638446569443,0.2612212598323822,0.9343947768211365
1761131789721720300,5.63572021484375,0.05093089118599892,0.23312145471572876,1.0296896696090698
1761131789731720200,5.64572021484375,0.14378240704536438,0.17203491926193237,1.0504591464996338
1761131789741720600,5.655720458984375,0.1877647042274475,0.08651378750801086,0.9912052154541016
1761131789751720700,5.665720703125,0.19020816683769226,-0.019776761531829834,0.8629235029220581
1761131789761720600,5.675720458984375,0.16516269743442535,-0.12301298975944519,0.6876052021980286
1761131789771720700,5.685720703125,0.12362385541200638,-0.21036672592163086,0.49151745438575745
1761131789781720600,5.695720458984375,0.07170030474662781,-0.2580142021179199,0.30398181080818176
1761131789791720700,5.705720703125,0.019165897741913795,-0.2726749777793884,0.14698944985866547
1761131789801720600,5.715720458984375,-0.01748601719737053,-0.24579690396785736,0.0290924571454525
1761131789811720700,5.725720703125,-0.025427265092730522,-0.19692768156528473,-0.04054617881774902
1761131789821720600,5.735720458984375,0.000839939690195024,-0.13889548182487488,-0.0619264654815197
1761131789831720700,5.745720703125,0.05826127156615257,-0.08330674469470978,-0.039324451237916946
1761131789841719800,5.7557197265625,0.1370628923177719,-0.031383201479911804,0.013820826075971127
1761131789851881700,5.7658818359375,0.22136229276657104,0.010155634954571724,0.07796167582273483
1761131789861881600,5.775881591796875,0.3044399619102478,0.025427265092730522,0.12744176387786865
1761131789871881500,5.785881591796875,0.3789655268192291,0.023594669997692108,0.15920674800872803
1761131789881881600,5.795881591796875,0.4455498456954956,0.0016035212902352214,0.16470454633235931
1761131789891881500,5.805881591796875,0.5011385679244995,-0.03565925732254982,0.13171781599521637
1761131789901881600,5.815881591796875,0.5396230816841125,-0.072311170399189,0.07307475805282593
1761131789911881500,5.825881591796875,0.5634468197822571,-0.102243572473526,-0.0020616701804101467
1761131789921881600,5.835881591796875,0.5744423866271973,-0.11568260937929153,-0.08269587904214859
1761131789931881700,5.8458818359375,0.5762749910354614,-0.10957395285367966,-0.15416711568832397
1761131789941882000,5.855882080078125,0.5701663494110107,-0.04604396969079971,-0.22197316586971283
1761131789951882200,5.86588232421875,0.5719989538192749,0.008933904580771923,-0.24090997874736786
1761131789961882000,5.875882080078125,0.5866597294807434,0.044974952936172485,-0.2390773892402649
1761131789971882200,5.88588232421875,0.6135377883911133,0.05780312418937683,-0.22014056146144867
1761131789981882000,5.895882080078125,0.647746205329895,0.05902485549449921,-0.18593211472034454
1761131789991882200,5.90588232421875,0.677678644657135,0.05841398984193802,-0.1480584591627121
1761131790001882000,5.915882080078125,0.6960045695304871,0.048029281198978424,-0.11140654981136322
1761131790011882200,5.92588232421875,0.7021132707595825,0.04069889709353447,-0.08147415518760681
1761131790021882000,5.935882080078125,0.6953937411308289,0.05474879592657089,-0.048487428575754166
1761131790031882200,5.94588232421875,0.6703482270240784,0.08712465316057205,-0.01366810966283083
1761131790041881600,5.955881591796875,0.6324746012687683,0.12683089077472687,0.02054034359753132
1761131790051881700,5.9658818359375,0.590324878692627,0.1653154045343399,0.0443640872836113
1761131790061881600,5.975881591796875,0.5524512529373169,0.20257818698883057,0.06269004940986633
1761131790071881700,5.9858818359375,0.524962306022644,0.2410627007484436,0.08712465316057205
1761131790081881600,5.995881591796875,0.5029711723327637,0.27404943108558655,0.1201113760471344
1761131790091881700,6.0058818359375,0.4767039716243744,0.31436651945114136,0.16836974024772644
1761131790101881600,6.015881591796875,0.4400520622730255,0.353461891412735,0.22701279819011688
1761131790111881700,6.0258818359375,0.3991240859031677,0.3870594799518585,0.2874884605407715
1761131790121881600,6.035881591796875,0.3563635051250458,0.41638103127479553,0.35529449582099915
1761131790131881700,6.0458818359375,0.3136029541492462,0.4273765981197357,0.42554399371147156
1761131790141882600,6.055882568359375,0.27572929859161377,0.4176027476787567,0.48724138736724854
1761131790151882200,6.06588232421875,0.23235787451267242,0.4035528600215912,0.5397757887840271
1761131790161882000,6.075882080078125,0.18898643553256989,0.38461601734161377,0.5752059817314148
1761131790171882200,6.08588232421875,0.12118039280176163,0.3333033621311188,0.596586287021637
1761131790181882000,6.095882080078125,0.0668133869767189,0.27832546830177307,0.5807037949562073
1761131790191882200,6.10588232421875,0.0038942659739404917,0.2105194330215454,0.5385540723800659
1761131790201882400,6.11588232421875,-0.07796167582273483,0.12927435338497162,0.4689154326915741
1761131790211882200,6.12588232421875,-0.190360888838768,0.015042556449770927,0.37056612968444824
1761131790221882400,6.13588232421875,-0.33391422033309937,-0.14866933226585388,0.23861923813819885
1761131790231882200,6.14588232421875,-0.4994587004184723,-0.3704134225845337,0.051083605736494064
1761131790241881300,6.15588134765625,-0.6790530681610107,-0.5927683711051941,-0.20242546498775482
1761131790251881200,6.165881103515625,-0.8598691821098328,-0.7222718000411987,-0.4822017550468445
1761131790261881300,6.17588134765625,-1.031522274017334,-0.7363216876983643,-0.7186065912246704
1761131790271881200,6.185881103515625,-1.1952341794967651,-0.668515682220459,-0.8707120418548584
1761131790281881300,6.19588134765625,-1.3277919292449951,-0.4913647174835205,-0.9128617644309998
1761131790291881200,6.205881103515625,-1.4047609567642212,-0.2439643144607544,-0.8279514908790588
1761131790301881300,6.21588134765625,-1.4102587699890137,0.038866300135850906,-0.629420280456543
1761131790311881200,6.225881103515625,-1.336954951286316,0.29420796036720276,-0.3465896546840668
1761131790321881300,6.23588134765625,-1.20622980594635,0.45608726143836975,-0.022831087931990623
1761131790331881200,6.245881103515625,-1.0584003925323486,0.48174360394477844,0.2880993187427521
1761131790341882000,6.255882080078125,-0.947833776473999,0.3815616965293884,0.5519931316375732
1761131790351882200,6.26588232421875,-0.90018630027771,0.21296289563179016,0.7651850581169128
1761131790361882000,6.275882080078125,-0.9337838888168335,0.018096882849931717,0.9368382096290588
1761131790371882200,6.28588232421875,-1.0529025793075562,-0.18471038341522217,1.0571786165237427
1761131790381882000,6.295882080078125,-1.2373839616775513,-0.37224599719047546,1.1145999431610107
1761131790391882200,6.30588232421875,-1.4542410373687744,-0.5212971568107605,1.1005500555038452
1761131790401882000,6.315882080078125,-1.6674330234527588,-0.6318637132644653,1.022970199584961
1761131790411882200,6.32588232421875,-1.945987582206726,-0.7540367841720581,0.8146651387214661
1761131790421882000,6.335882080078125,-2.112143039703369,-0.8438339829444885,0.6265186667442322
1761131790431882200,6.34588232421875,-2.2636375427246094,-0.9605092406272888,0.40049853920936584
1761131790441881300,6.35588134765625,-2.4035255908966064,-1.0802388191223145,0.14821118116378784
1761131790451881500,6.365881591796875,-2.5318074226379395,-1.1865293979644775,-0.11629346758127213
1761131790461881300,6.37588134765625,-2.650926113128662,-1.259222388267517,-0.37285688519477844
1761131790471881500,6.385881591796875,-2.7743208408355713,-1.2922090291976929,-0.5927683711051941
1761131790481881300,6.39588134765625,-2.890996217727661,-1.2622766494750977,-0.7412086129188538
1761131790491881500,6.405881591796875,-2.9850692749023438,-1.1303297281265259,-0.7955756187438965
1761131790501881300,6.41588134765625,-3.0259974002838135,-0.9030879139900208,-0.7491498589515686
1761131790511881200,6.425881103515625,-3.002173662185669,-0.6165921092033386,-0.6025422215461731
1761131790521881300,6.43588134765625,-2.9093220233917236,-0.3490331172943115,-0.38385245203971863
1761131790531881200,6.445881103515625,-2.7547731399536133,-0.20731239020824432,-0.15722143650054932
1761131790541882000,6.455882080078125,-2.5348618030548096,-0.17432567477226257,-0.06620252132415771
1761131790551882200,6.46588232421875,-2.346715211868286,-0.02955060638487339,0.08407033234834671
1761131790561882000,6.475882080078125,-2.2385921478271484,-0.11507174372673035,0.25816693902015686
1761131790571882200,6.48588232421875,-2.2062160968780518,-0.34842225909233093,0.38583776354789734
1761131790581882000,6.495882080078125,-2.223320484161377,-0.5848271250724792,0.46158504486083984
1761131790591882200,6.50588232421875,-2.2611939907073975,-0.7509824633598328,0.4786892831325531
1761131790601882000,6.515882080078125,-2.2978460788726807,-0.8554404377937317,0.4340961277484894
1761131790611882200,6.52588232421875,-2.324723958969116,-0.8847619295120239,0.3528510332107544
1761131790621882000,6.535882080078125,-2.3344979286193848,-0.8426122665405273,0.25999951362609863
1761131790631882200,6.54588232421875,-2.3235023021698,-0.7601454257965088,0.17325665056705475
1761131790641881300,6.55588134765625,-2.268524408340454,-0.6227007508277893,0.0797942727804184
1761131790651881200,6.565881103515625,-2.2172117233276367,-0.5377904772758484,0.053527068346738815
1761131790661881300,6.57588134765625,-2.1695642471313477,-0.46387580037117004,0.05047274008393288
1761131790671881200,6.585881103515625,-2.1292471885681152,-0.41317397356033325,0.05597052723169327
1761131790681881300,6.59588134765625,-2.0932061672210693,-0.3814089894294739,0.07002042979001999
1761131790691881500,6.605881591796875,-2.06144118309021,-0.3716351389884949,0.0895681157708168
1761131790701881300,6.61588134765625,-2.0272326469421387,-0.36247217655181885,0.12316570430994034
1761131790711881200,6.625881103515625,-1.9954676628112793,-0.33315062522888184,0.16348281502723694
1761131790721881300,6.63588134765625,-1.96370267868042,-0.2946661114692688,0.1958586722612381
1761131790731881200,6.645881103515625,-1.9294942617416382,-0.26656633615493774,0.20502164959907532
1761131790741882000,6.655882080078125,-1.888566255569458,-0.26106852293014526,0.18791742622852325
1761131790751882000,6.665882080078125,-1.8445839881896973,-0.2690097689628601,0.14882203936576843
1761131790761882000,6.675882080078125,-1.8091537952423096,-0.24762949347496033,0.11033753305673599
1761131790771882000,6.685882080078125,-1.7926604747772217,-0.1779908537864685,0.09323330968618393
1761131790781882000,6.695882080078125,-1.7792214155197144,-0.08636107295751572,0.10361801832914352
1761131790791882000,6.705882080078125,-1.757230281829834,0.0034361169673502445,0.14149166643619537
1761131790801882000,6.715882080078125,-1.7150804996490479,0.0541379339993,0.18791742622852325
1761131790811882000,6.725882080078125,-1.649717926979065,0.048029281198978424,0.22701279819011688
1761131790821882000,6.735882080078125,-1.5739706754684448,-0.008170322515070438,0.2416735589504242
1761131790831882000,6.745882080078125,-1.498834252357483,-0.11568260937929153,0.21968241035938263
1761131790841881300,6.75588134765625,-1.450575828552246,-0.2793944776058197,0.15248723328113556
1761131790851881200,6.765881103515625,-1.4493541717529297,-0.47853657603263855,0.04253149405121803
1761131790861881300,6.77588134765625,-1.4921146631240845,-0.6624069809913635,-0.09613491594791412
1761131790871881200,6.785881103515625,-1.614898681640625,-0.7540367841720581,-0.23235787451267242
1761131790881881300,6.79588134765625,-1.7199674844741821,-0.677067756652832,-0.22747094929218292
1761131790891881200,6.805881103515625,-1.8219819068908691,-0.5243514776229858,-0.14928019046783447
1761131790901881300,6.81588134765625,-1.8879554271697998,-0.354530930519104,-0.03749185428023338
1761131790911881200,6.825881103515625,-1.8989509344100952,-0.2244166135787964,0.0749073475599289
1761131790921881300,6.83588134765625,-1.8720729351043701,-0.15111279487609863,0.16470454633235931
1761131790931881200,6.845881103515625,-1.840918779373169,-0.12484558671712875,0.21846067905426025
1761131790941882000,6.855882080078125,-1.8354209661483765,-0.11507174372673035,0.21723894774913788
1761131790951882200,6.86588232421875,-1.8598556518554688,-0.10651962459087372,0.16714800894260406
1761131790961882000,6.875882080078125,-1.908113956451416,-0.10163270682096481,0.08712465316057205
1761131790971882200,6.88588232421875,-1.9716439247131348,-0.11934779584407806,-0.004505131393671036
1761131790981882000,6.895882080078125,-2.0400607585906982,-0.17004960775375366,-0.09613491594791412
1761131790991882000,6.905882080078125,-2.1103103160858154,-0.2439643144607544,-0.18043431639671326
1761131791001882000,6.915882080078125,-2.1799490451812744,-0.3343723714351654,-0.24579690396785736
1761131791011882200,6.92588232421875,-2.2422573566436768,-0.43821945786476135,-0.29649871587753296
1761131791021882000,6.935882080078125,-2.296624183654785,-0.5432882905006409,-0.3404810130596161
1761131791031882200,6.94588232421875,-2.3479368686676025,-0.6269767880439758,-0.3856850564479828
1761131791041881300,6.95588134765625,-2.39619517326355,-0.6886742115020752,-0.43821945786476135
1761131791051881200,6.965881103515625,-2.4432318210601807,-0.7308239340782166,-0.4864778220653534
1761131791061881300,6.97588134765625,-2.479883909225464,-0.752204179763794,-0.5194645524024963
1761131791071881200,6.985881103515625,-2.4951553344726562,-0.771751880645752,-0.5298492312431335
1761131791081881300,6.99588134765625,-2.4847707748413086,-0.7833583354949951,-0.505414605140686
1761131791091881200,7.005881103515625,-2.453005790710449,-0.7668649554252625,-0.44371724128723145
1761131791101881300,7.01588134765625,-2.3815345764160156,-0.6990588903427124,-0.283059686422348
1761131791111881200,7.025881103515625,-2.3289999961853027,-0.6410267353057861,-0.13950635492801666
1761131791121881300,7.03588134765625,-2.278909206390381,-0.6019313335418701,0.018096882849931717
1761131791131881200,7.045881103515625,-2.2471442222595215,-0.6220899224281311,0.16959145665168762
1761131791141882000,7.055882080078125,-2.2392029762268066,-0.6856198906898499,0.28993192315101624
1761131791151882200,7.06588232421875,-2.2666919231414795,-0.780914843082428,0.3571271002292633
1761131791161882000,7.075882080078125,-2.3393847942352295,-0.8731555342674255,0.36445748805999756
1761131791171882200,7.08588232421875,-2.4395666122436523,-0.9104182720184326,0.2929862439632416
1761131791181882000,7.095882080078125,-2.5373051166534424,-0.9281333684921265,0.1457677185535431
1761131791191882200,7.10588232421875,-2.6319892406463623,-0.8426122665405273,-0.016722436994314194
1761131791201882000,7.115882080078125,-2.698573589324951,-0.6605743765830994,-0.13645201921463013
1761131791211882200,7.12588232421875,-2.7474427223205566,-0.5286275148391724,-0.19081902503967285
1761131791221882000,7.135882080078125,-2.8048641681671143,-0.4876995384693146,-0.17188221216201782
1761131791231882200,7.14588232421875,-2.848235607147217,-0.4876995384693146,-0.082085020840168
1761131791241881300,7.15588134765625,-2.8665614128112793,-0.5408447980880737,0.016264287754893303
1761131791251881200,7.165881103515625,-2.8671724796295166,-0.6465244889259338,0.0541379339993
1761131791261881300,7.17588134765625,-2.8525116443634033,-0.7693084478378296,0.018096882849931717
1761131791271881200,7.185881103515625,-2.84090518951416,-0.8872054219245911,-0.07108944654464722
1761131791281881300,7.19588134765625,-2.843348741531372,-0.9598983526229858,-0.1724930703639984
1761131791291881200,7.205881103515625,-2.848235607147217,-0.9379072189331055,-0.24274258315563202
1761131791301881300,7.21588134765625,-2.83479642868042,-0.9537897109985352,-0.27634015679359436
1761131791311881200,7.225881103515625,-2.7950901985168457,-1.0130436420440674,-0.27206411957740784
1761131791321881300,7.23588134765625,-2.7278950214385986,-1.0729084014892578,-0.24762949347496033
1761131791331881200,7.245881103515625,-2.600835084915161,-1.2146291732788086,-0.22258402407169342
1761131791341882000,7.255882080078125,-2.527531385421753,-1.401553988456726,-0.2482403665781021
1761131791351882200,7.26588232421875,-2.497598886489868,-1.4027756452560425,-0.2940552532672882
1761131791361882000,7.275882080078125,-2.4933228492736816,-1.3758976459503174,-0.3759112060070038
1761131791371882200,7.28588232421875,-2.494544506072998,-1.3740650415420532,-0.42416954040527344
1761131791381882000,7.295882080078125,-2.5006532669067383,-1.2250138521194458,-0.39729148149490356
1761131791391882200,7.30588232421875,-2.5293638706207275,-1.1883620023727417,-0.3795763850212097
1761131791401882000,7.315882080078125,-2.5605180263519287,-1.1584296226501465,-0.3239876627922058
1761131791411882200,7.32588232421875,-2.583120107650757,-1.0393108129501343,-0.2384665161371231
1761131791421882000,7.335882080078125,-2.5990025997161865,-0.9568440318107605,-0.1676061451435089
1761131791431882200,7.34588232421875,-2.583730936050415,-0.8658251166343689,-0.13523028790950775
1761131791441881300,7.35588134765625,-2.522644281387329,-0.7100545167922974,-0.15355625748634338
1761131791451881500,7.365881591796875,-2.430403709411621,-0.6471353769302368,-0.1682170182466507
1761131791461881300,7.37588134765625,-2.290515661239624,-0.5182427763938904,-0.17127133905887604
1761131791471881500,7.385881591796875,-2.0999257564544678,-0.29161179065704346,-0.1786017268896103
1761131791481881300,7.39588134765625,-1.8891770839691162,-0.15966489911079407,-0.16699528694152832
1761131791491881200,7.405881103515625,-1.6637678146362305,-0.07414376735687256,-0.122402124106884
1761131791501881300,7.41588134765625,-1.4487433433532715,0.033368512988090515,-0.04482223838567734
1761131791511881200,7.425881103515625,-1.3119094371795654,0.11766792088747025,0.035811975598335266
1761131791521881300,7.43588134765625,-1.2245557308197021,0.06146831437945366,0.1146135926246643
1761131791531881200,7.445881103515625,-1.1860712766647339,0.01687515154480934,0.20441077649593353
1761131791541882000,7.455882080078125,-1.2178362607955933,-0.011835514567792416,0.28932106494903564
1761131791551882200,7.46588232421875,-1.2856422662734985,-0.06803511828184128,0.3778965175151825
1761131791561882000,7.475882080078125,-1.3772720098495483,-0.06436992436647415,0.5403866767883301
1761131791571882200,7.48588232421875,-1.4163674116134644,0.02298380434513092,0.6607271432876587
1761131791581882000,7.495882080078125,-1.4255304336547852,0.10667234659194946,0.7688502669334412
1761131791591882200,7.50588232421875,-1.4059827327728271,0.14210252463817596,0.8433758020401001
1761131791601882000,7.515882080078125,-1.3711633682250977,0.10911580175161362,0.8696430325508118
1761131791611882200,7.52588232421875,-1.325959324836731,0.013209961354732513,0.8384889364242554
1761131791621882000,7.535882080078125,-1.2905291318893433,-0.11446087807416916,0.747469961643219
1761131791631882200,7.54588232421875,-1.2886966466903687,-0.23052527010440826,0.60513836145401
1761131791641881300,7.55588134765625,-1.3229050636291504,-0.29100093245506287,0.45181119441986084
1761131791651881500,7.565881591796875,-1.3674981594085693,-0.2793944776058197,0.3082578778266907
1761131791661881300,7.57588134765625,-1.4084261655807495,-0.19570595026016235,0.18791742622852325
1761131791671881500,7.585881591796875,-1.4346933364868164,-0.07292203605175018,0.0944550409913063
1761131791681881300,7.59588134765625,-1.4469107389450073,0.0797942727804184,0.030925052240490913
1761131791691881500,7.605881591796875,-1.4334716796875,0.23739750683307648,-0.004505131393671036
1761131791701881300,7.61588134765625,-1.4047609567642212,0.34552064538002014,-0.011835514567792416
1761131791711881200,7.625881103515625,-1.3699417114257812,0.39133554697036743,0.0022143865935504436
1761131791721881300,7.63588134765625,-1.3222942352294922,0.38583776354789734,0.033368512988090515
1761131791731881200,7.645881103515625,-1.2557098865509033,0.3161991238594055,0.0797942727804184
1761131791741882000,7.655882080078125,-1.16835618019104,0.2105194330215454,0.1347721517086029
1761131791751882200,7.66588232421875,-1.0748937129974365,0.10911580175161362,0.18425223231315613
1761131791761882000,7.675882080078125,-0.9844856858253479,0.024816401302814484,0.20929770171642303
1761131791771882200,7.68588232421875,-0.9075166583061218,-0.042989641427993774,0.20318904519081116
1761131791781882000,7.695882080078125,-0.8433758020401001,-0.08575020730495453,0.17264579236507416
1761131791791882200,7.70588232421875,-0.7902305722236633,-0.102243572473526,0.12622003257274628
1761131791801882000,7.715882080078125,-0.7395287156105042,-0.102243572473526,0.03214678168296814
1761131791811882200,7.72588232421875,-0.7218136191368103,-0.09124799817800522,-0.04421137273311615
1761131791821882000,7.735882080078125,-0.7108180522918701,-0.07841982692480087,-0.1126282811164856
1761131791831882200,7.74588232421875,-0.6998224854469299,-0.060704734176397324,-0.16210836172103882
1761131791841881300,7.75588134765625,-0.6931029558181763,-0.03443752974271774,-0.20670153200626373
1761131791851881200,7.765881103515625,-0.6845508813858032,-0.0069485921412706375,-0.24518603086471558
1761131791861881300,7.77588134765625,-0.6674466133117676,0.022372938692569733,-0.2738966941833496
1761131791871881200,7.785881103515625,-0.6405685544013977,0.04253149405121803,-0.2934443950653076
1761131791881881300,7.79588134765625,-0.6026949286460876,0.07124216109514236,-0.3050508201122284
1761131791901881300,7.81588134765625,-0.4933500289916992,0.12866349518299103,-0.27084237337112427
1761131791911881200,7.825881103515625,-0.4285983145236969,0.15370896458625793,-0.21158844232559204
1761131791921881300,7.83588134765625,-0.36445748805999756,0.1750892549753189,-0.13645201921463013
1761131791931881200,7.845881103515625,-0.311312198638916,0.18364135921001434,-0.07170030474662781
1761131791941882000,7.855882080078125,-0.26488643884658813,0.17753271758556366,-0.027718011289834976
1761131791951882200,7.86588232421875,-0.2257910668849945,0.14943291246891022,-0.01061378326267004
1761131791961882000,7.875882080078125,-0.19341520965099335,0.11644618958234787,-0.013057244941592216
1761131791971882200,7.88588232421875,-0.17386752367019653,0.08407033234834671,-0.02099849283695221
1761131791981882000,7.895882080078125,-0.16653713583946228,0.08040513843297958,-0.016722436994314194
1761131791991882200,7.90588232421875,-0.15370896458625793,0.10545061528682709,0.0016035212902352214
1761131792001882000,7.915882080078125,-0.12316570430994034,0.1256091594696045,0.023594669997692108
1761131792011882200,7.92588232421875,-0.08223773539066315,0.14698944985866547,0.036422841250896454
1761131792021882000,7.935882080078125,-0.035811975598335266,0.15126550197601318,0.03459024429321289
1761131792031882200,7.94588232421875,0.02710714563727379,0.12683089077472687,-0.002672535367310047
1761131792041881300,7.95588134765625,0.05398521572351456,0.14149166643619537,-0.03443752974271774
1761131792051881200,7.965881103515625,0.06925684958696365,0.17081318795681,-0.03749185428023338
1761131792061881300,7.97588134765625,0.08819366991519928,0.17325665056705475,0.013209961354732513
1761131792071881200,7.985881103515625,0.0924697294831276,0.30214923620224,0.3125339448451996
1761131792081881300,7.99588134765625,0.1077413558959961,0.25877779722213745,0.6026949286460876
1761131792091881200,8.005881103515625,0.2140319049358368,0.34918585419654846,0.787176251411438
1761131792101881300,8.01588134765625,0.3557526469230652,0.3876703679561615,0.806113064289093
1761131792111881200,8.025881103515625,0.4516584873199463,0.363235741853714,0.7364743947982788
1761131792121881300,8.03588134765625,0.5005277395248413,0.38950294256210327,0.6112470626831055
1761131792131881200,8.045881103515624,0.5115233063697815,0.47624582052230835,0.4493677318096161
1761131792141882000,8.055882080078124,0.5084689855575562,0.5043455958366394,0.25511258840560913
1761131792151882200,8.06588232421875,0.5121341347694397,0.3986659348011017,0.030314188450574875
1761131792161882000,8.075882080078125,0.5035820603370667,0.20318904519081116,-0.1981494128704071
1761131792171882200,8.08588232421875,0.4809800088405609,0.011377365328371525,-0.36369389295578003
