time,seconds_elapsed,z,y,x
1761132545758943000,0.08894287109375,0.7632246017456055,-1.5855497121810913,-1.4188412427902222
1761132545788918000,0.11891796875,0.7438411712646484,-1.46586012840271,-1.36844003200531
1761132545798918000,0.12891796875,0.7380170822143555,-1.427802562713623,-1.353790521621704
1761132545808918000,0.13891796875,0.7382526397705078,-1.426040530204773,-1.3342745304107666
1761132545818918000,0.14891796875,0.7398567199707031,-1.434182047843933,-1.3238295316696167
1761132545828918000,0.15891796875,0.743504524230957,-1.4552017450332642,-1.3158249855041504
1761132545838918100,0.168918212890625,0.7494955062866211,-1.4894639253616333,-1.305041790008545
1761132545848918000,0.17891796875,0.7573490142822266,-1.5331987142562866,-1.2910314798355103
1761132545858918100,0.188918212890625,0.7662229537963867,-1.580905795097351,-1.2742807865142822
1761132545868918000,0.19891796875,0.77423095703125,-1.6226584911346436,-1.2591122388839722
1761132545878918100,0.208918212890625,0.7801122665405273,-1.6529674530029297,-1.2498728036880493
1761132545888918000,0.21891796875,0.7830171585083008,-1.6683964729309082,-1.2486989498138428
1761132545898918100,0.228918212890625,0.782862663269043,-1.6688518524169922,-1.2552727460861206
1761132545908918000,0.23891796875,0.7800312042236328,-1.6558586359024048,-1.2671422958374023
1761132545918918100,0.248918212890625,0.7750329971313477,-1.631331205368042,-1.2816654443740845
1761132545928918000,0.25891796875,0.7685918807983398,-1.598040223121643,-1.2949128150939941
1761132545938918100,0.268918212890625,0.7613067626953125,-1.558585286140442,-1.3049885034561157
1761132545948862500,0.278862548828125,0.7537307739257812,-1.5161278247833252,-1.31361985206604
1761132545958809900,0.288809814453125,0.7469625473022461,-1.4763481616973877,-1.3166170120239258
1761132545968759800,0.298759765625,0.7416772842407227,-1.443702220916748,-1.3142762184143066
1761132545978711000,0.3087109375,0.738032341003418,-1.4206651449203491,-1.3120416402816772
1761132545988665600,0.31866552734375,-0.6669731140136719,2.2140097618103027,-0.3010972738265991
1761132545998622200,0.328622314453125,-0.5045328140258789,2.1283984184265137,-0.5043643116950989
1761132546008580400,0.338580322265625,-0.41951847076416016,2.053083896636963,-0.6867375373840332
1761132546018540300,0.348540283203125,-0.4217376708984375,2.0020856857299805,-0.8451041579246521
1761132546028502000,0.358501953125,-0.4614572525024414,1.9699467420578003,-0.9830263257026672
1761132546038465000,0.368465087890625,-0.5106954574584961,1.935514211654663,-1.0850203037261963
1761132546048429300,0.37842919921875,-0.5388240814208984,1.8926265239715576,-1.1342880725860596
1761132546058395000,0.388394775390625,-0.5434103012084961,1.8580433130264282,-1.1633774042129517
1761132546068361500,0.398361572265625,-0.5503959655761719,1.85096275806427,-1.1933507919311523
1761132546078328800,0.408328857421875,-0.5591640472412109,1.8772547245025635,-1.222703218460083
1761132546088295700,0.418295654296875,-0.5547380447387695,1.8518776893615723,-1.2360178232192993
1761132546098262300,0.42826220703125,-0.7449722290039062,1.9543671607971191,-1.293664574623108
1761132546108228900,0.438228759765625,-0.9525222778320312,2.019059658050537,-1.3604369163513184
1761132546118195700,0.44819580078125,-1.1897735595703125,2.1133880615234375,-1.4412713050842285
1761132546128162300,0.458162353515625,-1.4264583587646484,2.22055983543396,-1.5241796970367432
1761132546138129000,0.46812890625,-1.4174890518188477,2.175386667251587,-1.52870512008667
1761132546148095500,0.478095458984375,-1.7645010948181152,2.433467388153076,-1.7124848365783691
1761132546158062300,0.488062255859375,-1.8551816940307617,2.5091605186462402,-1.7807245254516602
1761132546168029000,0.49802880859375,-1.917208194732666,2.535348892211914,-1.809746503829956
1761132546177994800,0.507994873046875,-1.9223437309265137,2.5479423999786377,-1.8273550271987915
1761132546187961300,0.51796142578125,-1.8090777397155762,2.5337462425231934,-1.850678563117981
1761132546197928200,0.52792822265625,-1.5942277908325195,2.4909682273864746,-1.881941795349121
1761132546207894800,0.537894775390625,-1.605147361755371,2.548720359802246,-1.9133591651916504
1761132546217861400,0.547861328125,-0.9333944320678711,2.36971378326416,-1.9786583185195923
1761132546227828000,0.557827880859375,-0.5068235397338867,2.305643081665039,-2.043433904647827
1761132546237794800,0.567794921875,-0.06797981262207031,2.2418580055236816,-2.0959222316741943
1761132546247794700,0.577794677734375,0.32459354400634766,2.144033908843994,-2.1309897899627686
1761132546257794800,0.587794921875,0.6215944290161133,2.0434889793395996,-2.1531200408935547
1761132546267794700,0.597794677734375,0.7969388961791992,1.954716444015503,-2.1584737300872803
1761132546277795600,0.607795654296875,0.81036376953125,1.8839390277862549,-2.1303870677948
1761132546287795700,0.617795654296875,0.6620626449584961,1.8299914598464966,-2.0788652896881104
1761132546297795600,0.627795654296875,0.3781728744506836,1.7969658374786377,-2.0092945098876953
1761132546307795700,0.637795654296875,-0.027544021606445312,1.7724921703338623,-1.9424420595169067
1761132546317795600,0.647795654296875,-0.48648738861083984,1.733500361442566,-1.836049199104309
1761132546327795700,0.657795654296875,-0.9516239166259766,1.6997931003570557,-1.7493181228637695
1761132546337795800,0.6677958984375,-1.3903045654296875,1.7363369464874268,-1.7256816625595093
1761132546347796000,0.6777958984375,-1.793459415435791,1.7812509536743164,-1.7105175256729126
1761132546357795800,0.6877958984375,-2.1493539810180664,1.8069233894348145,-1.6738276481628418
1761132546367796000,0.6977958984375,-2.445922374725342,1.8346368074417114,-1.6216918230056763
1761132546377795000,0.707795166015625,-2.4434847831726074,1.821661114692688,-1.6361390352249146
1761132546387795000,0.717794921875,-2.8889646530151367,1.8895173072814941,-1.4786572456359863
1761132546397795000,0.727795166015625,-3.0281777381896973,1.940006136894226,-1.38240647315979
1761132546407795000,0.737794921875,-3.0909037590026855,2.013833999633789,-1.291168212890625
1761132546417794600,0.747794677734375,-3.0671873092651367,2.0833301544189453,-1.1881918907165527
1761132546427794700,0.757794677734375,-2.9828391075134277,2.1321635246276855,-1.092970848083496
1761132546437794600,0.767794677734375,-2.8706865310668945,2.1764326095581055,-1.011151909828186
1761132546447794700,0.777794677734375,-2.7420620918273926,2.2251086235046387,-0.9452401995658875
1761132546457794600,0.787794677734375,-2.57741641998291,2.2906715869903564,-0.9172899723052979
1761132546467794700,0.797794677734375,-2.3574891090393066,2.354081630706787,-0.9041197896003723
1761132546477795300,0.80779541015625,-2.0797572135925293,2.3991923332214355,-0.8872268199920654
1761132546487795500,0.81779541015625,-1.7869129180908203,2.4150805473327637,-0.876782238483429
1761132546497795300,0.82779541015625,-1.473855972290039,2.4214553833007812,-0.8853792548179626
1761132546507795500,0.83779541015625,-1.173975944519043,2.428933620452881,-0.9017962217330933
1761132546517795300,0.84779541015625,-0.9111728668212891,2.4289870262145996,-0.923141598701477
1761132546527795500,0.85779541015625,-0.7119054794311523,2.4249937534332275,-0.930879533290863
1761132546537795300,0.86779541015625,-0.5740957260131836,2.4425978660583496,-0.9329633712768555
1761132546547795500,0.87779541015625,-0.4884176254272461,2.4769127368927,-0.931015133857727
1761132546557795600,0.887795654296875,-0.4550457000732422,2.5126771926879883,-0.9250256419181824
1761132546567795500,0.89779541015625,-0.4478111267089844,2.558137893676758,-0.9083912968635559
1761132546577794600,0.907794677734375,-0.4596548080444336,2.6016674041748047,-0.8906023502349854
1761132546587794700,0.917794677734375,-0.49289512634277344,2.6430749893188477,-0.8686823844909668
1761132546597794600,0.927794677734375,-0.5475578308105469,2.6811323165893555,-0.8466847538948059
1761132546607794700,0.937794677734375,-0.611659049987793,2.710430860519409,-0.8415671586990356
1761132546617794600,0.947794677734375,-0.6757059097290039,2.728196620941162,-0.8517680168151855
1761132546627794700,0.957794677734375,-0.7086954116821289,2.741058111190796,-0.8841769099235535
1761132546637794300,0.967794189453125,-0.6988382339477539,2.7648205757141113,-0.9298469424247742
1761132546647794400,0.97779443359375,-0.6436805725097656,2.798287868499756,-0.9800256490707397
1761132546657794300,0.987794189453125,-0.5023183822631836,2.8203277587890625,-0.9790905714035034
1761132546667794400,0.99779443359375,-0.26267242431640625,2.8339107036590576,-0.9384279847145081
1761132546677795300,1.00779541015625,0.15426349639892578,2.849841356277466,-0.8368061780929565
1761132546687795200,1.017795166015625,0.6147241592407227,2.8383030891418457,-0.6605886816978455
1761132546697795300,1.02779541015625,1.0226268768310547,2.836935520172119,-0.4752773940563202
1761132546707795200,1.037795166015625,1.4156360626220703,2.90468692779541,-0.3522809147834778
1761132546717795600,1.047795654296875,1.7795886993408203,2.978084087371826,-0.33134615421295166
1761132546727795700,1.057795654296875,2.138918876647949,3.0086066722869873,-0.41437745094299316
1761132546737794800,1.067794921875,2.5226612091064453,2.9758994579315186,-0.5830333828926086
1761132546747794700,1.077794677734375,2.947943687438965,2.955324649810791,-0.9270941615104675
1761132546757794800,1.087794921875,3.3909130096435547,2.946406841278076,-1.3880786895751953
1761132546767794700,1.097794677734375,3.843541145324707,2.885427951812744,-1.8578130006790161
1761132546777794000,1.1077939453125,4.24069881439209,2.759718894958496,-2.2271270751953125
1761132546787794000,1.1177939453125,4.5197601318359375,2.5780913829803467,-2.4495818614959717
1761132546797794000,1.1277939453125,4.59190559387207,2.3815979957580566,-2.5257833003997803
1761132546807794000,1.1377939453125,4.435910224914551,2.2092995643615723,-2.4873464107513428
1761132546817794000,1.1477939453125,4.074297904968262,2.0938689708709717,-2.3747034072875977
1761132546827794000,1.1577939453125,3.5441036224365234,2.0423622131347656,-2.24173641204834
1761132546837794000,1.1677939453125,2.9531965255737305,1.9972392320632935,-2.105717420578003
1761132546847794000,1.1777939453125,2.3445911407470703,1.935220718383789,-1.975995421409607
1761132546857794000,1.1877939453125,1.7630205154418945,1.864078164100647,-1.8638520240783691
1761132546867794000,1.1977939453125,1.2389497756958008,1.78285551071167,-1.7832679748535156
1761132546877794800,1.207794921875,0.7815799713134766,1.678868293762207,-1.7233757972717285
1761132546897794600,1.227794677734375,0.1054544448852539,1.432650089263916,-1.4885587692260742
1761132546907794700,1.237794677734375,0.10727691650390625,1.4055582284927368,-1.4589028358459473
1761132546917794600,1.247794677734375,-0.13980674743652344,1.267364740371704,-1.243619441986084
1761132546927794700,1.257794677734375,-0.5854291915893555,1.0391110181808472,-0.7190425992012024
1761132546937794600,1.267794677734375,-0.8488731384277344,0.943670392036438,-0.4307803511619568
1761132546947794700,1.277794677734375,-1.1455755233764648,0.868587851524353,-0.18023014068603516
1761132546957794600,1.287794677734375,-1.391739845275879,0.828179121017456,0.034167349338531494
1761132546967794700,1.297794677734375,-1.6185798645019531,0.7754276990890503,0.25137561559677124
1761132546977793800,1.307793701171875,-1.6154603958129883,0.7228930592536926,0.2763734459877014
1761132546987794000,1.3177939453125,-2.1103506088256836,0.6463630199432373,0.6806060671806335
1761132546997793800,1.327793701171875,-2.37542724609375,0.6118951439857483,0.8636434078216553
1761132547007793700,1.337793701171875,-2.6214699745178223,0.6074419021606445,1.0173468589782715
1761132547017793800,1.347793701171875,-2.8482680320739746,0.6089664697647095,1.1444544792175293
1761132547027793700,1.357793701171875,-3.079683303833008,0.6001937389373779,1.2416884899139404
1761132547037794600,1.367794677734375,-3.3183159828186035,0.5897927284240723,1.2985305786132812
1761132547047794700,1.377794677734375,-3.559576988220215,0.591262698173523,1.3048057556152344
1761132547057794600,1.387794677734375,-3.729583740234375,0.6240341663360596,1.2567716836929321
1761132547067794700,1.397794677734375,-3.781614303588867,0.6798954606056213,1.2020630836486816
1761132547077795600,1.407795654296875,-3.7272772789001465,0.7147533893585205,1.1605628728866577
1761132547087795200,1.417795166015625,-3.592630386352539,0.7340347766876221,1.1118184328079224
1761132547101016000,1.43101611328125,-3.3916501998901367,0.758962869644165,1.0260717868804932
1761132547111016200,1.44101611328125,-3.136258125305176,0.8117008805274963,0.9066270589828491
1761132547121016000,1.45101611328125,-2.8120479583740234,0.8713088035583496,0.7638540267944336
1761132547131016200,1.46101611328125,-2.4162750244140625,0.939703106880188,0.6396744251251221
1761132547141016000,1.47101611328125,-1.9796514511108398,1.0174967050552368,0.5627437829971313
1761132547151016200,1.48101611328125,-1.545166015625,1.11518132686615,0.531080961227417
1761132547161016000,1.49101611328125,-1.1269512176513672,1.268890142440796,0.5235004425048828
1761132547171016200,1.50101611328125,-0.7538566589355469,1.48904287815094,0.5113160610198975
1761132547181015300,1.511015380859375,-0.4380340576171875,1.7767935991287231,0.5034438371658325
1761132547191015700,1.521015625,-0.17442989349365234,2.104606866836548,0.513516366481781
1761132547201015000,1.53101513671875,0.04448699951171875,2.4462313652038574,0.520423412322998
1761132547211015000,1.541014892578125,0.24505996704101562,2.796968460083008,0.49144357442855835
1761132547221015000,1.55101513671875,0.24505615234375,2.808774471282959,0.49054640531539917
1761132547231015000,1.561014892578125,0.5922069549560547,3.4366042613983154,0.2743171453475952
1761132547241015000,1.57101513671875,0.7331552505493164,3.6945762634277344,0.11465412378311157
1761132547251015000,1.581014892578125,0.8496417999267578,3.924396514892578,-0.07014423608779907
1761132547261015000,1.59101513671875,0.9606990814208984,4.1582159996032715,-0.2966541051864624
1761132547271015000,1.601014892578125,1.0950660705566406,4.391596794128418,-0.5562923550605774
1761132547281015800,1.611015869140625,1.286219596862793,4.610790252685547,-0.8341348171234131
1761132547291016000,1.621015869140625,1.558405876159668,4.768773078918457,-1.079686164855957
1761132547301015800,1.631015869140625,1.8501148223876953,4.828464031219482,-1.2396317720413208
1761132547311016000,1.641015869140625,2.097466468811035,4.829953670501709,-1.3378854990005493
1761132547321015800,1.651015869140625,2.2625694274902344,4.822890758514404,-1.4172210693359375
1761132547331016000,1.661015869140625,2.3479909896850586,4.813357353210449,-1.4792757034301758
1761132547341016000,1.67101611328125,2.3894519805908203,4.831613540649414,-1.5623724460601807
1761132547351016000,1.681015869140625,2.4489402770996094,4.809739589691162,-1.687515377998352
1761132547361015800,1.691015869140625,2.595414161682129,4.6931586265563965,-1.8458770513534546
1761132547371016000,1.701015869140625,2.8880481719970703,4.457658290863037,-2.0112946033477783
1761132547381015000,1.71101513671875,3.309441566467285,4.119385719299316,-2.1608238220214844
1761132547391015400,1.721015380859375,3.782745361328125,3.707876443862915,-2.2875754833221436
1761132547401015600,1.731015625,4.214872360229492,3.239231824874878,-2.363389492034912
1761132547421015600,1.751015625,4.573116302490234,2.245673179626465,-2.2616610527038574
1761132547431015400,1.761015380859375,4.419238090515137,1.7801735401153564,-2.1079282760620117
1761132547441015600,1.771015625,4.051908493041992,1.3534106016159058,-1.8847732543945312
1761132547451015400,1.781015380859375,4.062321662902832,1.2122948169708252,-1.8067430257797241
1761132547461015600,1.791015625,2.9249677658081055,0.6192872524261475,-1.3855301141738892
1761132547471015400,1.801015380859375,2.300535202026367,0.31846514344215393,-1.1599340438842773
1761132547481016300,1.811016357421875,1.732996940612793,0.0460892915725708,-0.9934234619140625
1761132547491016200,1.82101611328125,1.2713565826416016,-0.20017170906066895,-0.8918702602386475
1761132547501016600,1.8310166015625,0.9388284683227539,-0.4355085492134094,-0.8434603214263916
1761132547511016700,1.8410166015625,0.7211713790893555,-0.668563187122345,-0.818294882774353
1761132547521016600,1.8510166015625,0.5932350158691406,-0.9095640182495117,-0.8042302131652832
1761132547531016700,1.8610166015625,0.518580436706543,-1.1242860555648804,-0.7987880706787109
1761132547541016600,1.8710166015625,0.4533729553222656,-1.31307053565979,-0.7779498100280762
1761132547551016700,1.8810166015625,0.32196903228759766,-1.4787569046020508,-0.7363917827606201
1761132547561016800,1.891016845703125,0.09645652770996094,-1.6174628734588623,-0.6795456409454346
1761132547571016700,1.9010166015625,-0.22285079956054688,-1.7220003604888916,-0.6197817325592041
1761132547581015800,1.911015869140625,-0.6382293701171875,-1.7862317562103271,-0.5583276748657227
1761132547591016000,1.921015869140625,-1.152806282043457,-1.823019027709961,-0.4973396062850952
1761132547601015800,1.931015869140625,-1.7079291343688965,-1.830737590789795,-0.4377099275588989
1761132547611016000,1.941015869140625,-2.2834272384643555,-1.8146822452545166,-0.3816412687301636
1761132547621015800,1.951015869140625,-2.8483657836914062,-1.7849431037902832,-0.3352581262588501
1761132547631016000,1.961015869140625,-3.3841991424560547,-1.7425456047058105,-0.2933303117752075
1761132547641015800,1.971015869140625,-3.872640609741211,-1.6709321737289429,-0.25537097454071045
1761132547651015700,1.981015625,-4.283947467803955,-1.5688073635101318,-0.20877230167388916
1761132547661015800,1.991015869140625,-4.585700035095215,-1.4358747005462646,-0.17427527904510498
1761132547671015700,2.001015625,-4.776152610778809,-1.2735306024551392,-0.12089967727661133
1761132547681016600,2.0110166015625,-4.8636274337768555,-1.097525954246521,-0.025560855865478516
1761132547691016700,2.0210166015625,-4.871159553527832,-0.9011038541793823,0.10314381122589111
1761132547701016600,2.0310166015625,-4.806942939758301,-0.6596115827560425,0.2802025079727173
1761132547711016700,2.0410166015625,-4.687854766845703,-0.3729817867279053,0.4904325008392334
1761132547721016600,2.0510166015625,-4.496503829956055,-0.06328868865966797,0.7081831693649292
1761132547731016700,2.0610166015625,-4.205724239349365,0.23108983039855957,0.9009142518043518
1761132547741016600,2.0710166015625,-3.819714069366455,0.5008580684661865,1.0246391296386719
1761132547751016700,2.0810166015625,-3.4042696952819824,0.7276389598846436,1.0429279804229736
1761132547761016600,2.0910166015625,-3.0481863021850586,0.8973298072814941,0.9435585141181946
1761132547771016700,2.1010166015625,-2.801713466644287,1.0366477966308594,0.7685877084732056
1761132547781015800,2.111015869140625,-2.7919888496398926,0.9931402206420898,0.7496083974838257
1761132547791015700,2.121015625,-2.6424059867858887,1.1426560878753662,0.5566532611846924
1761132547801015800,2.131015869140625,-2.5110225677490234,1.5341989994049072,0.2983897924423218
1761132547811015700,2.141015625,-2.4692769050598145,1.708726406097412,0.19094443321228027
1761132547821015800,2.151015869140625,-2.469237804412842,1.6858162879943848,0.14641690254211426
1761132547831015700,2.161015625,-2.321415424346924,2.080977439880371,-0.037892937660217285
1761132547841015800,2.171015869140625,-2.204123020172119,2.248363733291626,-0.13656282424926758
1761132547851015700,2.181015625,-2.050384521484375,2.399078845977783,-0.20610272884368896
1761132547861015800,2.191015869140625,-1.7925810813903809,2.5387494564056396,-0.2625274658203125
1761132547871015700,2.201015625,-1.3407859802246094,2.645214080810547,-0.3128345012664795
1761132547881016600,2.2110166015625,-0.7283182144165039,2.6974642276763916,-0.37113380432128906
1761132547891016700,2.2210166015625,-0.020708084106445312,2.704895496368408,-0.4998924136161804
1761132547901016600,2.2310166015625,0.7046394348144531,2.6883366107940674,-0.7124256491661072
1761132547911016700,2.2410166015625,1.3762664794921875,2.6882693767547607,-0.9939324259757996
1761132547921016600,2.2510166015625,1.9685134887695312,2.738690137863159,-1.3196094036102295
1761132547931016700,2.2610166015625,2.4813966751098633,2.856459856033325,-1.6384896039962769
1761132547941016600,2.2710166015625,2.9407730102539062,2.994109630584717,-1.8833343982696533
1761132547951016700,2.2810166015625,3.368734359741211,3.1171109676361084,-2.072566032409668
1761132547961016600,2.2910166015625,3.7668628692626953,3.1953554153442383,-2.2202208042144775
1761132547971016700,2.3010166015625,4.112679481506348,3.227947950363159,-2.321631908416748
1761132547981015800,2.311015869140625,4.363114356994629,3.2121505737304688,-2.3647308349609375
1761132547991015700,2.321015625,4.432269096374512,3.1382312774658203,-2.2749319076538086
1761132548001015800,2.331015869140625,4.3582763671875,3.019163131713867,-2.071415901184082
1761132548011015700,2.341015625,4.256352424621582,2.9340219497680664,-1.868631362915039
1761132548021015800,2.351015869140625,4.253787040710449,2.863861560821533,-1.779123067855835
1761132548031015700,2.361015625,4.328916549682617,2.7221922874450684,-1.713095784187317
1761132548041015600,2.371015625,4.388063430786133,2.470480442047119,-1.5616681575775146
1761132548051015700,2.381015625,4.318276405334473,2.1919422149658203,-1.3461943864822388
1761132548060982500,2.390982421875,4.0873918533325195,1.9426406621932983,-1.0653091669082642
1761132548070949000,2.40094921875,3.641106605529785,1.7220351696014404,-0.6963785886764526
1761132548080916700,2.410916748046875,3.0028791427612305,1.5454027652740479,-0.2803204655647278
1761132548090883300,2.42088330078125,2.206937789916992,1.3868529796600342,0.11476075649261475
1761132548100850000,2.430849853515625,1.391977310180664,1.232238531112671,0.44885608553886414
1761132548110816800,2.440816650390625,0.7135801315307617,1.089853048324585,0.6991201043128967
1761132548120783400,2.450783447265625,0.7304582595825195,1.004669189453125,0.6606563925743103
1761132548130750000,2.46075,-0.17103290557861328,0.6646053791046143,0.9391111135482788
1761132548140716500,2.470716552734375,-0.549138069152832,0.3091006278991699,0.9944899082183838
1761132548150683400,2.480683349609375,-0.9715061187744141,-0.07693147659301758,0.9935877323150635
1761132548160650000,2.49064990234375,-1.415513038635254,-0.41063857078552246,0.9140927791595459
1761132548170616600,2.500616455078125,-1.8738393783569336,-0.6735970973968506,0.7691225409507751
1761132548180582400,2.51058251953125,-2.32534122467041,-0.882111668586731,0.599327564239502
1761132548190549200,2.52054931640625,-2.756594657897949,-1.029444694519043,0.38674014806747437
1761132548200515800,2.530515869140625,-3.1538772583007812,-1.154902458190918,0.19790737330913544
1761132548210482400,2.540482421875,-3.488593578338623,-1.2798305749893188,0.07657289505004883
1761132548220449000,2.550448974609375,-3.769184112548828,-1.350889801979065,-0.029855698347091675
1761132548230416000,2.560415771484375,-4.010424613952637,-1.402652382850647,-0.11400654911994934
1761132548240382500,2.570382568359375,-4.249560356140137,-1.4419221878051758,-0.16491028666496277
1761132548250349000,2.58034912109375,-4.486242771148682,-1.4557721614837646,-0.19663295149803162
1761132548260316000,2.59031591796875,-4.677252769470215,-1.3927305936813354,-0.24082602560520172
1761132548270282500,2.600282470703125,-4.799274444580078,-1.252472162246704,-0.3067215085029602
1761132548280250000,2.61025,-4.8689799308776855,-1.0985972881317139,-0.40362411737442017
1761132548290216700,2.620216796875,-4.917099952697754,-0.9562945365905762,-0.5376780033111572
1761132548300183300,2.630183349609375,-4.928940296173096,-0.8074948787689209,-0.7320050597190857
1761132548310150100,2.640150146484375,-4.917177677154541,-0.7443108558654785,-0.680668830871582
1761132548320116700,2.65011669921875,-4.85401725769043,-0.6070270538330078,-0.9102985858917236
1761132548330083300,2.660083251953125,-4.764427185058594,-0.2546679973602295,-1.4266294240951538
1761132548340050000,2.6700498046875,-4.617151737213135,0.08011317253112793,-1.8335086107254028
1761132548350016800,2.680016845703125,-4.421288013458252,0.26346707344055176,-2.045966863632202
1761132548360016600,2.6900166015625,-4.116052150726318,0.3847367763519287,-2.136523962020874
1761132548370016500,2.7000166015625,-3.6583895683288574,0.5349345207214355,-2.186690330505371
1761132548380015900,2.710015869140625,-3.057283878326416,0.7278220653533936,-2.188983201980591
1761132548390015700,2.720015625,-2.4036173820495605,0.9191732406616211,-2.140045642852783
1761132548400015600,2.730015625,-1.7234911918640137,1.1042485237121582,-2.039294481277466
1761132548410015700,2.740015625,-1.0560054779052734,1.287557601928711,-1.896844506263733
1761132548420015900,2.750015869140625,-0.40048694610595703,1.471254587173462,-1.7395775318145752
1761132548430015700,2.760015625,0.2265939712524414,1.613293170928955,-1.591421127319336
1761132548440016000,2.770015869140625,0.7989826202392578,1.6986587047576904,-1.4849340915679932
1761132548450015700,2.780015625,1.2597370147705078,1.7484958171844482,-1.4620249271392822
1761132548460015600,2.790015625,1.552581787109375,1.7657887935638428,-1.529153823852539
1761132548470015700,2.800015625,1.6804428100585938,1.7824339866638184,-1.6397838592529297
1761132548480016600,2.8100166015625,1.680069923400879,1.8096890449523926,-1.7800679206848145
1761132548490016500,2.8200166015625,1.6105966567993164,1.8538460731506348,-1.9364811182022095
1761132548500016600,2.8300166015625,1.5549945831298828,1.8820371627807617,-2.106001138687134
1761132548510016500,2.8400166015625,1.585221290588379,1.876849889755249,-2.2496449947357178
1761132548520016600,2.8500166015625,1.711503028869629,1.8305795192718506,-2.3498268127441406
1761132548530016500,2.8600166015625,1.9085378646850586,1.7600374221801758,-2.4092535972595215
1761132548540016600,2.8700166015625,2.1134300231933594,1.6819536685943604,-2.438772439956665
1761132548550016500,2.8800166015625,2.2655858993530273,1.5993497371673584,-2.4349706172943115
1761132548560016600,2.8900166015625,2.258185386657715,1.63057279586792,-2.4706313610076904
1761132548570016500,2.9000166015625,2.3136396408081055,1.5537314414978027,-2.425368309020996
1761132548580015900,2.910015869140625,2.1865711212158203,1.4932401180267334,-2.178954839706421
1761132548590015700,2.920015625,2.0428895950317383,1.4970271587371826,-2.027914524078369
1761132548600016000,2.930015869140625,1.8978185653686523,1.4929420948028564,-1.8862390518188477
1761132548610015700,2.940015625,1.8193092346191406,1.4569239616394043,-1.7781742811203003
1761132548620015600,2.950015625,1.8139142990112305,1.3832333087921143,-1.6667035818099976
1761132548630015700,2.960015625,1.88226318359375,1.2825376987457275,-1.557820439338684
1761132548640015600,2.970015625,2.0256786346435547,1.1838786602020264,-1.4446386098861694
1761132548650015700,2.980015625,2.214531898498535,1.0884227752685547,-1.334463357925415
1761132548660015900,2.990015869140625,2.34493350982666,0.983578085899353,-1.200636625289917
1761132548670015700,3.000015625,2.3461313247680664,0.8650331497192383,-1.056164264678955
1761132548680016600,3.0100166015625,2.177931785583496,0.7605910301208496,-0.9337199926376343
1761132548690016500,3.0200166015625,1.8500261306762695,0.6878248453140259,-0.8437681198120117
1761132548700016600,3.0300166015625,1.3887948989868164,0.632597804069519,-0.7790194749832153
1761132548710016500,3.0400166015625,0.8303918838500977,0.5771627426147461,-0.7121530771255493
1761132548720016600,3.0500166015625,0.21096038818359375,0.5235615968704224,-0.6563349366188049
1761132548730016500,3.0600166015625,-0.4585247039794922,0.4666339159011841,-0.627663254737854
1761132548740016600,3.0700166015625,-1.134500503540039,0.42117011547088623,-0.6049513220787048
1761132548750016500,3.0800166015625,-1.8152012825012207,0.3767763376235962,-0.572526752948761
1761132548760016600,3.0900166015625,-1.7972159385681152,0.2861464023590088,-0.5704014897346497
1761132548770016800,3.100016845703125,-3.0689444541931152,0.31612086296081543,-0.5298427939414978
1761132548780015900,3.110015869140625,-3.597212791442871,0.3008854389190674,-0.5491944551467896
1761132548790015700,3.120015625,-4.0270304679870605,0.27547287940979004,-0.5640085339546204
1761132548800016000,3.130015869140625,-4.365940570831299,0.25009799003601074,-0.5552808046340942
1761132548810015700,3.140015625,-4.604786396026611,0.24948859214782715,-0.5396184921264648
1761132548820015900,3.150015869140625,-4.5977349281311035,0.2280879020690918,-0.6027387976646423
1761132548830015700,3.160015625,-4.7426934242248535,0.26976990699768066,-0.5808059573173523
1761132548840016000,3.170015869140625,-4.758706092834473,0.34940004348754883,-0.4931831359863281
1761132548850015700,3.180015625,-4.6337504386901855,0.36975526809692383,-0.516792893409729
1761132548860015900,3.190015869140625,-4.445999622344971,0.39796018600463867,-0.5882556438446045
1761132548870015700,3.200015625,-4.20991325378418,0.4458928108215332,-0.6936480402946472
1761132548880016600,3.2100166015625,-3.9008936882019043,0.5063571929931641,-0.8298032283782959
1761132548890016500,3.2200166015625,-3.504483699798584,0.5780870914459229,-0.9778386354446411
1761132548900016600,3.2300166015625,-3.046569347381592,0.6594369411468506,-1.1347777843475342
1761132548910016800,3.240016845703125,-2.581432342529297,0.7376823425292969,-1.271427869796753
1761132548920016600,3.2500166015625,-2.1300225257873535,0.811604380607605,-1.3856172561645508
1761132548930016800,3.260016845703125,-1.682234764099121,0.8794021606445312,-1.459336280822754
1761132548940016600,3.2700166015625,-1.259455680847168,0.9305274486541748,-1.4756393432617188
1761132548950016800,3.280016845703125,-0.8785324096679688,0.9573535919189453,-1.4405728578567505
1761132548960016600,3.2900166015625,-0.5329914093017578,0.961181640625,-1.3600594997406006
1761132548970016800,3.300016845703125,-0.21672630310058594,0.9614467620849609,-1.273299217224121
1761132548980015900,3.310015869140625,0.10999774932861328,0.980904221534729,-1.1866614818572998
1761132548990015700,3.320015625,0.4707307815551758,1.0044455528259277,-1.1262928247451782
1761132549000016000,3.330015869140625,0.8897056579589844,1.0360687971115112,-1.1240543127059937
1761132549010015700,3.340015625,1.3578929901123047,1.0545291900634766,-1.1785852909088135
1761132549020015900,3.350015869140625,1.8180780410766602,1.061286449432373,-1.2764244079589844
1761132549030015700,3.360015625,2.2444658279418945,1.0704922676086426,-1.3710023164749146
1761132549040016000,3.370015869140625,2.5897216796875,1.079559326171875,-1.4627996683120728
1761132549050015700,3.380015625,2.8349075317382812,1.0950748920440674,-1.546027660369873
1761132549060015900,3.390015869140625,2.979863166809082,1.1283646821975708,-1.6268069744110107
1761132549070015700,3.400015625,3.0558252334594727,1.1839451789855957,-1.6928153038024902
1761132549080016600,3.4100166015625,3.1305084228515625,1.2444427013397217,-1.7241079807281494
1761132549090016800,3.420016845703125,3.209749221801758,1.2760803699493408,-1.6999685764312744
1761132549100016600,3.4300166015625,3.293889045715332,1.2621362209320068,-1.6179313659667969
1761132549110016800,3.440016845703125,3.363269805908203,1.2383893728256226,-1.5108120441436768
1761132549120016600,3.4500166015625,3.385897636413574,1.2196803092956543,-1.4180614948272705
1761132549130016800,3.460016845703125,3.3511762619018555,1.20171320438385,-1.3613548278808594
1761132549140016600,3.4700166015625,3.241556167602539,1.1773542165756226,-1.3344563245773315
1761132549150016800,3.480016845703125,3.0352182388305664,1.1470088958740234,-1.3209073543548584
1761132549160016600,3.4900166015625,2.7367353439331055,1.1443865299224854,-1.2914609909057617
1761132549170016800,3.500016845703125,2.377840995788574,1.190859317779541,-1.2154444456100464
1761132549180015900,3.510015869140625,1.9857292175292969,1.2611255645751953,-1.0589656829833984
1761132549190016000,3.52001611328125,1.580169677734375,1.3512908220291138,-0.8189025521278381
1761132549200016000,3.530015869140625,1.2170143127441406,1.475512981414795,-0.5529342293739319
1761132549210016000,3.54001611328125,0.9029159545898438,1.5935821533203125,-0.2956717610359192
1761132549220015900,3.550015869140625,0.6469345092773438,1.663634181022644,-0.08616119623184204
1761132549230016000,3.56001611328125,0.43151092529296875,1.6775712966918945,0.03590250015258789
1761132549240016000,3.570015869140625,0.2369089126586914,1.6546905040740967,0.06309902667999268
1761132549250016000,3.58001611328125,0.04107856750488281,1.6187012195587158,-0.0028241872787475586
1761132549260015900,3.590015869140625,-0.19441604614257812,1.5732839107513428,-0.09827041625976562
1761132549270016000,3.60001611328125,-0.48114013671875,1.531510829925537,-0.19075682759284973
1761132549280017000,3.610016845703125,-0.8205881118774414,1.5025209188461304,-0.2635610103607178
1761132549290016800,3.620016845703125,-1.1999483108520508,1.4880213737487793,-0.30697494745254517
1761132549300017000,3.630016845703125,-1.5875635147094727,1.5015774965286255,-0.33124813437461853
1761132549310016800,3.640016845703125,-1.9520740509033203,1.5335935354232788,-0.32864779233932495
1761132549330016800,3.660016845703125,-2.5897164344787598,1.5939891338348389,-0.21347536146640778
1761132549340017000,3.670016845703125,-2.5885281562805176,1.5724222660064697,-0.17752280831336975
1761132549350016800,3.680016845703125,-3.088047504425049,1.7335586547851562,0.04704709351062775
1761132549360017000,3.690016845703125,-3.214611053466797,1.8363579511642456,0.2391473948955536
1761132549370016800,3.700016845703125,-3.2558884620666504,1.9101569652557373,0.41487136483192444
1761132549380015900,3.710015869140625,-3.22158145904541,1.9526855945587158,0.529582142829895
1761132549390015700,3.720015625,-3.114069938659668,1.98250412940979,0.5551244020462036
1761132549400016000,3.730015869140625,-2.954699993133545,2.005383014678955,0.502398669719696
1761132549410015700,3.740015625,-2.7670741081237793,2.009838581085205,0.4146827459335327
1761132549420015900,3.750015869140625,-2.5342254638671875,1.9941011667251587,0.3044590651988983
1761132549430015700,3.760015625,-2.2484750747680664,1.9817837476730347,0.1510154753923416
1761132549440016000,3.770015869140625,-1.883410930633545,1.9943468570709229,-0.04461245983839035
1761132549450015700,3.780015625,-1.434173583984375,2.014807939529419,-0.24610301852226257
1761132549460015900,3.790015869140625,-0.9628772735595703,2.0162739753723145,-0.40896299481391907
1761132549470015700,3.800015625,-0.5244054794311523,2.0062766075134277,-0.5346776247024536
1761132549480016600,3.8100166015625,-0.1569662094116211,2.012784719467163,-0.655868649482727
1761132549490016500,3.8200166015625,0.12024688720703125,2.0372045040130615,-0.7656721472740173
1761132549500016600,3.8300166015625,0.3047294616699219,2.0716376304626465,-0.8523212671279907
1761132549510016500,3.8400166015625,0.39397621154785156,2.0949759483337402,-0.9335941076278687
1761132549520016600,3.8500166015625,0.42136383056640625,2.080904245376587,-1.0049911737442017
1761132549530016500,3.8600166015625,0.4155845642089844,2.0360941886901855,-1.0704784393310547
1761132549540016600,3.8700166015625,0.4170722961425781,1.999897837638855,-1.0612854957580566
1761132549550016500,3.8800166015625,0.4542207717895508,1.8763427734375,-1.216320514678955
1761132549560016600,3.8900166015625,0.5531101226806641,1.770909070968628,-1.2669782638549805
1761132549570016500,3.9000166015625,0.6754884719848633,1.6909160614013672,-1.3270460367202759
1761132549580015900,3.910015869140625,0.7738485336303711,1.654994010925293,-1.4090958833694458
1761132549590015700,3.920015625,0.7816286087036133,1.6510610580444336,-1.4756191968917847
1761132549600016000,3.930015869140625,0.7061424255371094,1.665178656578064,-1.5122970342636108
1761132549610015700,3.940015625,0.5734901428222656,1.6789206266403198,-1.519842267036438
1761132549620015900,3.950015869140625,0.4407463073730469,1.6930668354034424,-1.5134036540985107
1761132549630015700,3.960015625,0.3553438186645508,1.7130789756774902,-1.5188665390014648
1761132549640015600,3.970015625,0.36011600494384766,1.732160210609436,-1.5714330673217773
1761132549650015700,3.980015625,0.49819087982177734,1.7303390502929688,-1.6622984409332275
1761132549660015900,3.990015869140625,0.7360506057739258,1.7036563158035278,-1.7408638000488281
1761132549670015700,4.000015625,1.0504646301269531,1.6529850959777832,-1.808171272277832
1761132549680016600,4.0100166015625,1.355630874633789,1.5558993816375732,-1.898878812789917
1761132549690016800,4.020016845703125,1.5681686401367188,1.4104725122451782,-2.0061330795288086
1761132549700016600,4.0300166015625,1.6357746124267578,1.2797141075134277,-2.13511323928833
1761132549710016800,4.040016845703125,1.5775175094604492,1.2126781940460205,-2.27278733253479
1761132549720016600,4.0500166015625,1.4313125610351562,1.1289989948272705,-2.33583927154541
1761132549730016800,4.060016845703125,1.247044563293457,1.0051853656768799,-2.2935590744018555
1761132549740015900,4.070015869140625,1.0793724060058594,0.9043048620223999,-2.177842140197754
1761132549750015700,4.080015625,0.9420375823974609,0.8427404165267944,-1.9956649541854858
1761132549760016000,4.090015869140625,0.870884895324707,0.7890137434005737,-1.7333321571350098
1761132549770015700,4.100015625,0.9333915710449219,0.7265480160713196,-1.4230263233184814
1761132549780014800,4.110014892578125,1.1057825088500977,0.6651747226715088,-1.1295576095581055
1761132549790015000,4.120014892578125,1.3282289505004883,0.5880663394927979,-0.8628010153770447
1761132549800014800,4.130014892578125,1.521622657775879,0.49193596839904785,-0.6648961305618286
1761132549810015000,4.140014892578125,1.6163063049316406,0.4159793257713318,-0.54240882396698
1761132549820014800,4.150014892578125,1.530867576599121,0.39178937673568726,-0.5022205114364624
1761132549830015000,4.160014892578125,1.2777175903320312,0.39752715826034546,-0.5125160217285156
1761132549840014800,4.170014892578125,0.8956689834594727,0.4150605797767639,-0.5682134628295898
1761132549850015000,4.180014892578125,0.40912437438964844,0.4386657476425171,-0.6650692224502563
1761132549860014800,4.190014892578125,-0.054698944091796875,0.4668464660644531,-0.8071847558021545
1761132549870015000,4.200014892578125,-0.5365886688232422,0.456091046333313,-0.9141179323196411
1761132549880015600,4.210015625,-1.0553779602050781,0.426700234413147,-0.9633990526199341
1761132549890015700,4.220015625,-1.6055307388305664,0.3928667902946472,-0.9694013595581055
1761132549900015900,4.230015869140625,-2.154019832611084,0.40349626541137695,-0.9572243094444275
1761132549910015700,4.240015625,-2.6678009033203125,0.43923038244247437,-0.9284058213233948
1761132549920016000,4.250015869140625,-3.1187987327575684,0.469607412815094,-0.8857519030570984
1761132549930015700,4.260015625,-3.483705520629883,0.4900858402252197,-0.8452298641204834
1761132549940015900,4.270015869140625,-3.4756555557250977,0.42786622047424316,-0.8908259868621826
1761132549950015700,4.280015625,-3.9138245582580566,0.4972705841064453,-0.8137792348861694
1761132549960015600,4.290015625,-3.9892163276672363,0.49925804138183594,-0.8248870968818665
1761132549970015700,4.300015625,-3.9868040084838867,0.5040367841720581,-0.8392318487167358
1761132549980014800,4.310014892578125,-3.9114885330200195,0.5039935111999512,-0.8484804630279541
1761132549990015000,4.320014892578125,-3.7369637489318848,0.5005123615264893,-0.8582615852355957
1761132550000014800,4.330014892578125,-3.4799060821533203,0.4846564531326294,-0.8959310054779053
1761132550010014700,4.3400146484375,-3.1808433532714844,0.44869232177734375,-0.9900968074798584
1761132550020014800,4.350014892578125,-2.87296199798584,0.393460750579834,-1.1439660787582397
1761132550030014700,4.3600146484375,-2.5629711151123047,0.3376573324203491,-1.3412835597991943
1761132550040015600,4.370015625,-2.2814583778381348,0.2845717668533325,-1.4970951080322266
1761132550050015700,4.380015625,-2.0782861709594727,0.21211588382720947,-1.5378679037094116
1761132550060015600,4.390015625,-1.948634147644043,0.12034666538238525,-1.48067045211792
1761132550070015700,4.400015625,-1.856966495513916,0.03698742389678955,-1.402472972869873
1761132550080016600,4.4100166015625,-1.724818229675293,-0.04048359394073486,-1.3418011665344238
1761132550090016500,4.4200166015625,-1.4855289459228516,-0.11201471090316772,-1.3186594247817993
1761132550100016600,4.4300166015625,-1.136636734008789,-0.19042402505874634,-1.35166597366333
1761132550110016500,4.4400166015625,-0.6369009017944336,-0.24415230751037598,-1.4563944339752197
1761132550120016600,4.4500166015625,-0.07517242431640625,-0.2671434283256531,-1.6003007888793945
1761132550130016500,4.4600166015625,0.4609041213989258,-0.2597798705101013,-1.7568678855895996
1761132550140016600,4.4700166015625,0.9511346817016602,-0.23762443661689758,-1.9042924642562866
1761132550150016500,4.4800166015625,1.3774452209472656,-0.1872236430644989,-2.0222082138061523
1761132550160016600,4.4900166015625,1.6980476379394531,-0.08286017179489136,-2.1247100830078125
1761132550170016800,4.500016845703125,1.9159460067749023,0.06016665697097778,-2.2197980880737305
1761132550180015900,4.510015869140625,2.123565673828125,0.2327929139137268,-2.3145813941955566
1761132550190015700,4.520015625,2.3732500076293945,0.39371344447135925,-2.390618324279785
1761132550200016000,4.530015869140625,2.369320869445801,0.5101317167282104,-2.3523387908935547
1761132550210015700,4.540015625,3.100888252258301,0.5949885845184326,-2.5365374088287354
1761132550220015900,4.550015869140625,3.511411666870117,0.6469280123710632,-2.603896379470825
1761132550230015700,4.560015625,3.865385055541992,0.6797948479652405,-2.6302785873413086
1761132550240016000,4.570015869140625,4.118176460266113,0.7114993929862976,-2.590888500213623
1761132550250015700,4.580015625,4.28794002532959,0.7694390416145325,-2.4852147102355957
1761132550260015900,4.590015869140625,4.403839111328125,0.8496422171592712,-2.316291332244873
1761132550270015700,4.600015625,4.402356147766113,0.9344069361686707,-2.1961312294006348
1761132550280016600,4.6100166015625,4.507236480712891,1.076492190361023,-1.7472299337387085
1761132550290016800,4.620016845703125,4.491480827331543,1.2095966339111328,-1.3176345825195312
1761132550300016600,4.6300166015625,4.441066741943359,1.336362600326538,-0.8254787921905518
1761132550310016800,4.640016845703125,4.367469787597656,1.4514368772506714,-0.33644306659698486
1761132550320016600,4.6500166015625,4.284451484680176,1.5460643768310547,0.10096198320388794
1761132550330016800,4.660016845703125,4.193784713745117,1.6160045862197876,0.44907858967781067
1761132550340016600,4.6700166015625,4.08289909362793,1.6791977882385254,0.7095704078674316
1761132550350016800,4.680016845703125,3.895033836364746,1.6944067478179932,0.8956226706504822
1761132550360016600,4.6900166015625,3.5587358474731445,1.6511282920837402,1.0521824359893799
1761132550370016800,4.700016845703125,3.0382394790649414,1.587275505065918,1.1666697263717651
1761132550380015900,4.710015869140625,2.3608007431030273,1.603689432144165,1.1672420501708984
1761132550390015700,4.720015625,2.3534622192382812,1.4982690811157227,1.2546815872192383
1761132550400016000,4.730015869140625,0.7384567260742188,1.5467185974121094,1.3670705556869507
1761132550410015700,4.740015625,-0.16322898864746094,1.492475986480713,1.5389344692230225
1761132550420015900,4.750015869140625,-1.0529975891113281,1.456696629524231,1.674084186553955
1761132550430015700,4.760015625,-1.8734073638916016,1.4203667640686035,1.774856686592102
1761132550440016000,4.770015869140625,-2.5913643836975098,1.3773343563079834,1.835147738456726
1761132550450015700,4.780015625,-2.588071346282959,1.237269401550293,1.8830862045288086
1761132550460015900,4.790015869140625,-3.6887378692626953,1.2265807390213013,1.8673756122589111
1761132550470015700,4.800015625,-4.089485168457031,1.1358332633972168,1.8648346662521362
1761132550480016600,4.8100166015625,-4.408231258392334,1.0495728254318237,1.8413677215576172
1761132550490016500,4.8200166015625,-4.652486801147461,0.9761861562728882,1.7910997867584229
1761132550500016600,4.8300166015625,-4.815418243408203,0.9150207042694092,1.7058186531066895
1761132550510016500,4.8400166015625,-4.878900527954102,0.8498754501342773,1.590469479560852
1761132550520016600,4.8500166015625,-4.7994842529296875,0.7757377624511719,1.4366095066070557
1761132550530016500,4.8600166015625,-4.6165571212768555,0.7042500972747803,1.2630915641784668
1761132550540016600,4.8700166015625,-4.327391624450684,0.6236193180084229,1.0644301176071167
1761132550550016500,4.8800166015625,-3.9317121505737305,0.5598670244216919,0.8337448835372925
1761132550560016600,4.8900166015625,-3.4580564498901367,0.5187617540359497,0.5884673595428467
1761132550570016500,4.9000166015625,-2.927489757537842,0.489317923784256,0.3527477979660034
1761132550580015600,4.910015625,-2.391808032989502,0.5064361095428467,0.13252711296081543
1761132550590015700,4.920015625,-1.898526668548584,0.5641880035400391,-0.05555915832519531
1761132550600015600,4.930015625,-1.4595680236816406,0.6494710445404053,-0.2060607671737671
1761132550610015700,4.940015625,-1.0871524810791016,0.7572563886642456,-0.33477258682250977
1761132550620015600,4.950015625,-0.7936382293701172,0.867464542388916,-0.44468027353286743
1761132550630015700,4.960015625,-0.579066276550293,0.9884833693504333,-0.5382028818130493
1761132550640015600,4.970015625,-0.45549964904785156,1.1157848834991455,-0.5942557454109192
1761132550650015700,4.980015625,-0.3918571472167969,1.2554199695587158,-0.6221657991409302
1761132550660015900,4.990015869140625,-0.3381490707397461,1.4113556146621704,-0.6326318383216858
1761132550670015700,5.000015625,-0.23277568817138672,1.5740277767181396,-0.6566689610481262
1761132550680016600,5.0100166015625,-0.014049530029296875,1.737810730934143,-0.6942377686500549
1761132550690016500,5.0200166015625,0.3350715637207031,1.9046616554260254,-0.7255016565322876
1761132550700016600,5.0300166015625,0.7269706726074219,2.0930984020233154,-0.7530181407928467
1761132550710016500,5.0400166015625,1.0958223342895508,2.290616512298584,-0.7710719704627991
1761132550720016600,5.0500166015625,1.3732481002807617,2.4681522846221924,-0.7534856200218201
1761132550730016500,5.0600166015625,1.509293556213379,2.656442880630493,-0.7125079035758972
1761132550740016600,5.0700166015625,1.5200328826904297,2.8790314197540283,-0.664924144744873
1761132550750016800,5.080016845703125,1.420928955078125,3.089390754699707,-0.5805162787437439
1761132550760016600,5.0900166015625,1.244898796081543,3.2449288368225098,-0.4647407531738281
1761132550770016800,5.100016845703125,1.068894386291504,3.3346126079559326,-0.3572578430175781
1761132550780015900,5.110015869140625,0.9696140289306641,3.3609135150909424,-0.3025699257850647
1761132550790015700,5.120015625,1.0349311828613281,3.28715181350708,-0.32158327102661133
1761132550800016000,5.130015869140625,1.3697023391723633,3.106825113296509,-0.37954431772232056
1761132550810015700,5.140015625,1.8543939590454102,2.8658320903778076,-0.5210912227630615
1761132550820015900,5.150015869140625,2.368706703186035,2.600950241088867,-0.7336251139640808
1761132550830015700,5.160015625,2.7787961959838867,2.3473808765411377,-0.9613708853721619
1761132550840016000,5.170015869140625,2.992918014526367,2.108126640319824,-1.1119972467422485
1761132550850015700,5.180015625,2.9984731674194336,1.8919199705123901,-1.1692638397216797
1761132550860015900,5.190015869140625,2.910003662109375,1.7109640836715698,-1.1828184127807617
1761132550870015700,5.200015625,2.872945785522461,1.5511280298233032,-1.2019562721252441
1761132550880016600,5.2100166015625,2.9754199981689453,1.3518719673156738,-1.1612741947174072
1761132550890016800,5.220016845703125,3.191621780395508,1.1073592901229858,-1.008948564529419
1761132550900016600,5.2300166015625,3.467411994934082,0.8417795300483704,-0.8065023422241211
1761132550910016800,5.240016845703125,3.7413930892944336,0.5794429779052734,-0.5827971696853638
1761132550920016600,5.2500166015625,3.8915891647338867,0.31862056255340576,-0.4022551476955414
1761132550930016800,5.260016845703125,3.8604564666748047,0.07010744512081146,-0.28485846519470215
1761132550940016600,5.2700166015625,3.6383018493652344,-0.14908616244792938,-0.23685498535633087
1761132550950016800,5.280016845703125,3.2657623291015625,-0.3047037124633789,-0.26482880115509033
1761132550960016600,5.2900166015625,2.788473129272461,-0.3894954323768616,-0.32593244314193726
1761132550970016800,5.300016845703125,2.213883399963379,-0.45750728249549866,-0.36244553327560425
1761132550980015900,5.310015869140625,1.5423860549926758,-0.5163973569869995,-0.35170093178749084
1761132550990015700,5.320015625,0.8152074813842773,-0.5644223690032959,-0.3157057762145996
1761132551000016000,5.330015869140625,0.8204708099365234,-0.700668215751648,-0.27697262167930603
1761132551010015700,5.340015625,-0.7375755310058594,-0.6151065826416016,-0.1457882821559906
1761132551020015900,5.350015869140625,-1.5078611373901367,-0.6278115510940552,-0.02300235629081726
1761132551030015700,5.360015625,-2.237884998321533,-0.628911018371582,0.08620831370353699
1761132551040016000,5.370015869140625,-2.9055662155151367,-0.6148980855941772,0.15753738582134247
1761132551050015700,5.380015625,-3.473581314086914,-0.5825417041778564,0.1628904789686203
1761132551060015900,5.390015869140625,-3.9394359588623047,-0.5496470928192139,0.09950661659240723
1761132551070015700,5.400015625,-4.306064128875732,-0.5353801250457764,0.007323026657104492
1761132551080016600,5.4100166015625,-4.583676815032959,-0.5284779667854309,-0.07922238111495972
1761132551090016500,5.4200166015625,-4.784414768218994,-0.5151170492172241,-0.1494321972131729
1761132551100016600,5.4300166015625,-4.868079662322998,-0.492337167263031,-0.22332152724266052
1761132551110016800,5.440016845703125,-4.809779644012451,-0.4512031674385071,-0.28483840823173523
1761132551120016600,5.4500166015625,-4.655501365661621,-0.4301750659942627,-0.32231417298316956
1761132551130016800,5.460016845703125,-4.408787727355957,-0.41406846046447754,-0.35397738218307495
1761132551140016600,5.4700166015625,-4.411406517028809,-0.393487811088562,-0.40199488401412964
1761132551150016800,5.480016845703125,-3.7530784606933594,-0.35102760791778564,-0.493306040763855
1761132551160016600,5.4900166015625,-3.403029441833496,-0.3094130754470825,-0.6106767654418945
1761132551170016800,5.500016845703125,-3.068852424621582,-0.26668286323547363,-0.7545232772827148
1761132551180015900,5.510015869140625,-2.7574400901794434,-0.23239481449127197,-0.9314138889312744
1761132551190015700,5.520015625,-2.473501682281494,-0.1921079158782959,-1.1511058807373047
1761132551200016000,5.530015869140625,-2.197906494140625,-0.13966548442840576,-1.4059990644454956
1761132551210015700,5.540015625,-1.9211792945861816,-0.0757296085357666,-1.673264503479004
1761132551220015900,5.550015869140625,-1.6242761611938477,-0.027671217918395996,-1.8940263986587524
1761132551230015700,5.560015625,-1.326436996459961,-0.011698603630065918,-2.0246660709381104
1761132551240016000,5.570015869140625,-1.0085105895996094,-0.01954495906829834,-2.0498604774475098
1761132551250015700,5.580015625,-0.6921453475952148,-0.03263688087463379,-2.004196882247925
1761132551260015900,5.590015869140625,-0.36048221588134766,-0.022120952606201172,-1.9243593215942383
1761132551270015700,5.600015625,-0.01630115509033203,0.04648411273956299,-1.8591718673706055
1761132551280016600,5.6100166015625,0.34209346771240234,0.16349363327026367,-1.85597825050354
1761132551290016800,5.620016845703125,0.7373819351196289,0.28510284423828125,-1.8703181743621826
1761132551300016600,5.6300166015625,1.127272605895996,0.3721376657485962,-1.8770989179611206
1761132551310016800,5.640016845703125,1.4795007705688477,0.43798398971557617,-1.8914730548858643
1761132551320016600,5.6500166015625,1.7934703826904297,0.5139598846435547,-1.9350136518478394
1761132551330016800,5.660016845703125,2.0601882934570312,0.6033135652542114,-2.0092222690582275
1761132551340016600,5.6700166015625,2.3293352127075195,0.6915609836578369,-2.1092982292175293
1761132551350016800,5.680016845703125,2.623990058898926,0.7546348571777344,-2.2089858055114746
1761132551360016600,5.6900166015625,2.960216522216797,0.7790166139602661,-2.300407886505127
1761132551370016800,5.700016845703125,3.3196468353271484,0.7557390928268433,-2.3629350662231445
1761132551380015900,5.710015869140625,3.647287368774414,0.710188627243042,-2.4038095474243164
1761132551390016000,5.72001611328125,3.8634815216064453,0.6401899456977844,-2.429382801055908
1761132551400016000,5.730015869140625,3.9075279235839844,0.5627354383468628,-2.4439353942871094
1761132551410016000,5.74001611328125,3.7739925384521484,0.5084152817726135,-2.445838689804077
1761132551420015900,5.750015869140625,3.5299081802368164,0.4771236181259155,-2.442115068435669
1761132551430016000,5.76001611328125,3.2478694915771484,0.4543004631996155,-2.4148929119110107
1761132551440016000,5.770015869140625,2.9668970108032227,0.41951626539230347,-2.304356813430786
1761132551450016000,5.78001611328125,2.7087764739990234,0.37094801664352417,-2.0954346656799316
1761132551460015900,5.790015869140625,2.468475341796875,0.31451892852783203,-1.8094409704208374
1761132551470015700,5.800015625,2.252756118774414,0.2474495768547058,-1.4882261753082275
1761132551480016600,5.8100166015625,2.0804977416992188,0.1931018829345703,-1.2032520771026611
1761132551490016800,5.820016845703125,2.0785083770751953,0.20408296585083008,-1.139481782913208
1761132551500016600,5.8300166015625,1.8637914657592773,0.08532696962356567,-0.7939323782920837
1761132551510016800,5.840016845703125,1.7599334716796875,0.016550183296203613,-0.6441510915756226
1761132551520016600,5.8500166015625,1.5902175903320312,-0.04682624340057373,-0.539287269115448
1761132551530016800,5.860016845703125,1.3096771240234375,-0.0980452299118042,-0.4866366982460022
1761132551540015900,5.870015869140625,0.9210681915283203,-0.13576090335845947,-0.4973869323730469
1761132551550015700,5.880015625,0.44846630096435547,-0.16453218460083008,-0.5519676804542542
1761132551560016000,5.890015869140625,-0.09626960754394531,-0.18963921070098877,-0.6286540627479553
1761132551570015700,5.900015625,-0.6536788940429688,-0.20629805326461792,-0.7311966419219971
1761132551580014800,5.910014892578125,-0.6426601409912109,-0.27671343088150024,-0.6617496013641357
1761132551590015000,5.920014892578125,-1.6778039932250977,-0.21628153324127197,-1.0101755857467651
1761132551600014800,5.930014892578125,-2.1245288848876953,-0.23066651821136475,-1.140689492225647
1761132551610015000,5.940014892578125,-2.483948230743408,-0.2430579662322998,-1.2869560718536377
1761132551620014800,5.950014892578125,-2.7378673553466797,-0.25926947593688965,-1.4570062160491943
1761132551630015000,5.960014892578125,-2.858213424682617,-0.30136334896087646,-1.5953266620635986
1761132551640014800,5.970014892578125,-2.873447895050049,-0.37498295307159424,-1.6615064144134521
1761132551650015000,5.980014892578125,-2.8307271003723145,-0.45124244689941406,-1.6822798252105713
1761132551660015000,5.99001513671875,-2.7483339309692383,-0.5115870237350464,-1.6912521123886108
1761132551670015000,6.000014892578125,-2.6399192810058594,-0.5607460141181946,-1.6934494972229004
1761132551680016000,6.010015869140625,-2.5029172897338867,-0.6068218946456909,-1.6995278596878052
1761132551690015700,6.020015625,-2.3135132789611816,-0.6545441746711731,-1.718726396560669
1761132551700015900,6.030015869140625,-2.088717460632324,-0.717585563659668,-1.742257833480835
1761132551710015700,6.040015625,-1.864182472229004,-0.8023604154586792,-1.7724382877349854
1761132551720016000,6.050015869140625,-1.6725444793701172,-0.8820545077323914,-1.8223540782928467
1761132551730015700,6.060015625,-1.5363311767578125,-0.9448813199996948,-1.8976906538009644
1761132551740015900,6.070015869140625,-1.4417009353637695,-0.9870815873146057,-1.975188136100769
1761132551750015700,6.080015625,-1.3864459991455078,-1.0248446464538574,-2.0316884517669678
1761132551760016000,6.090015869140625,-1.3708219528198242,-1.0808568000793457,-2.0601415634155273
1761132551770015700,6.100015625,-1.378188133239746,-1.125500202178955,-2.08038330078125
1761132551780014800,6.110014892578125,-1.3735389709472656,-1.1505030393600464,-2.0643272399902344
1761132551790015000,6.120014892578125,-1.41748046875,-1.183677077293396,-2.0925545692443848
1761132551800014800,6.130014892578125,-1.4073667526245117,-1.2200958728790283,-2.047788619995117
1761132551810015000,6.140014892578125,-1.3457927703857422,-1.2409110069274902,-1.972625970840454
1761132551820014800,6.150014892578125,-1.2256250381469727,-1.2540936470031738,-1.8746803998947144
1761132551830015000,6.160014892578125,-1.003434181213379,-1.2669569253921509,-1.7929999828338623
1761132551840016000,6.170015869140625,-0.6549215316772461,-1.294438123703003,-1.6935452222824097
1761132551850015700,6.180015625,-0.2916374206542969,-1.3551607131958008,-1.5545865297317505
1761132551860015900,6.190015869140625,0.021185874938964844,-1.4220324754714966,-1.4146428108215332
1761132551870015700,6.200015625,0.20540809631347656,-1.4819324016571045,-1.2649433612823486
1761132551880016600,6.2100166015625,0.2612314224243164,-1.5336192846298218,-1.0912092924118042
1761132551890016500,6.2200166015625,0.24550247192382812,-1.555517554283142,-0.927913248538971
1761132551900016600,6.2300166015625,0.2615833282470703,-1.5227991342544556,-0.8484644889831543
1761132551910016800,6.240016845703125,0.27109527587890625,-1.4975231885910034,-0.7270858287811279
1761132551920016600,6.2500166015625,0.5076541900634766,-1.5535756349563599,-0.8929946422576904
1761132551930016800,6.260016845703125,0.6651906967163086,-1.6173495054244995,-0.9760438203811646
1761132551940016600,6.2700166015625,0.6685619354248047,-1.5608699321746826,-0.8958883285522461
1761132551950016800,6.280016845703125,0.783289909362793,-1.7232072353363037,-1.0802241563796997
1761132551960016600,6.2900166015625,0.7695465087890625,-1.764115810394287,-0.9748331308364868
1761132551970016800,6.300016845703125,0.8182249069213867,-1.7910548448562622,-0.7712502479553223
1761132551980015900,6.310015869140625,0.9884004592895508,-1.818265676498413,-0.5555984973907471
1761132551990015700,6.320015625,1.2705497741699219,-1.855463981628418,-0.3516770601272583
1761132552000016000,6.330015869140625,1.690328598022461,-1.8761780261993408,-0.16445064544677734
1761132552010015700,6.340015625,2.1798858642578125,-1.8917021751403809,0.03463733196258545
1761132552020015900,6.350015869140625,2.630016326904297,-1.9234346151351929,0.24038445949554443
1761132552030015700,6.360015625,2.9381275177001953,-1.9244275093078613,0.4080274701118469
1761132552040015600,6.370015625,3.06292724609375,-1.881969928741455,0.5206834673881531
1761132552050015700,6.380015625,2.9684152603149414,-1.797018051147461,0.6028944849967957
1761132552060015600,6.390015625,2.6347904205322266,-1.660722255706787,0.6754085421562195
1761132552070015700,6.400015625,2.1094579696655273,-1.4822478294372559,0.743125855922699
1761132552080016600,6.4100166015625,1.413477897644043,-1.2957868576049805,0.8041993975639343
1761132552090016500,6.4200166015625,0.6422157287597656,-1.1139492988586426,0.8598185181617737
1761132552100016600,6.4300166015625,-0.1474294662475586,-0.9213088154792786,0.9000739455223083
1761132552110016500,6.4400166015625,-0.9088077545166016,-0.693217396736145,0.9063353538513184
1761132552120016600,6.4500166015625,-1.5847606658935547,-0.4190831780433655,0.8642949461936951
1761132552130016500,6.4600166015625,-2.146195411682129,-0.11364948749542236,0.7919154167175293
1761132552140016600,6.4700166015625,-2.5728096961975098,0.1746586561203003,0.6964114904403687
1761132552150016500,6.4800166015625,-2.850315570831299,0.43476998805999756,0.6079428195953369
1761132552160016600,6.4900166015625,-2.975085735321045,0.6634765267372131,0.5326377153396606
1761132552170016800,6.500016845703125,-2.9434633255004883,0.8446224331855774,0.46125996112823486
1761132552180015900,6.510015869140625,-2.726553440093994,0.9758699536323547,0.38073134422302246
1761132552190016000,6.52001611328125,-2.235532760620117,1.0685725212097168,0.28740477561950684
1761132552200016000,6.530015869140625,-1.459549903869629,1.160294532775879,0.17843914031982422
1761132552210015700,6.540015625,-0.47658252716064453,1.1786339282989502,0.1211920976638794
1761132552220015900,6.550015869140625,0.5680093765258789,1.0998371839523315,0.1210700273513794
1761132552230015700,6.560015625,1.523904800415039,0.9760076403617859,0.10438668727874756
1761132552240016000,6.570015869140625,2.3215036392211914,0.871807336807251,0.025914788246154785
1761132552250015700,6.580015625,2.902695655822754,0.8180527687072754,-0.11697542667388916
1761132552260015900,6.590015869140625,3.2321691513061523,0.7832598090171814,-0.23815417289733887
1761132552270015700,6.600015625,3.2941293716430664,0.7540351748466492,-0.26838505268096924
1761132552280016600,6.6100166015625,3.1299171447753906,0.7453202605247498,-0.2378910779953003
1761132552290016800,6.620016845703125,2.7832164764404297,0.7531132102012634,-0.18779504299163818
1761132552300016600,6.6300166015625,2.3077287673950195,0.7729814052581787,-0.1387343406677246
1761132552310016800,6.640016845703125,1.7311592102050781,0.8049192428588867,-0.08352982997894287
1761132552320016600,6.6500166015625,1.1295642852783203,0.8442921042442322,-0.005929708480834961
1761132552330016800,6.660016845703125,0.5385446548461914,0.9022862911224365,0.08173298835754395
1761132552340015900,6.670015869140625,-0.0013475418090820312,0.9761105179786682,0.16192615032196045
1761132552350015700,6.680015625,-0.4662923812866211,1.0548328161239624,0.22276699542999268
1761132552360016000,6.690015869140625,-0.815800666809082,1.1399118900299072,0.26146364212036133
1761132552370015700,6.700015625,-1.055215835571289,1.208083152770996,0.2628440856933594
1761132552380015000,6.71001513671875,-1.1968145370483398,1.2587738037109375,0.24320662021636963
1761132552390015000,6.720014892578125,-1.2496824264526367,1.301570177078247,0.2048048973083496
1761132552400014800,6.730014892578125,-1.2179737091064453,1.331726312637329,0.14779698848724365
1761132552410015000,6.740014892578125,-1.118056297302246,1.3477540016174316,0.07943272590637207
1761132552420015000,6.75001513671875,-0.9230775833129883,1.3568588495254517,-0.008214712142944336
1761132552430015000,6.760014892578125,-0.6667661666870117,1.358454704284668,-0.09996962547302246
1761132552440015000,6.77001513671875,-0.6741313934326172,1.3808798789978027,-0.13132917881011963
1761132552450015000,6.780014892578125,-0.06577110290527344,1.2982497215270996,-0.2650315761566162
1761132552460014800,6.790014892578125,0.2609596252441406,1.2408008575439453,-0.3561152219772339
1761132552470015000,6.800014892578125,0.5555629730224609,1.1748521327972412,-0.4536299705505371
1761132552480015600,6.810015625,0.7872085571289062,1.0969334840774536,-0.5618108510971069
1761132552490015700,6.820015625,0.9364633560180664,1.0247788429260254,-0.6676827669143677
1761132552500015600,6.830015625,0.976557731628418,0.9637606143951416,-0.7621456384658813
1761132552510015700,6.840015625,0.9053802490234375,0.9186164140701294,-0.8348463773727417
1761132552520015600,6.850015625,0.7615442276000977,0.895549476146698,-0.9082871675491333
1761132552530015700,6.860015625,0.561650276184082,0.8976304531097412,-0.9590027332305908
1761132552550015700,6.880015625,0.10770988464355469,0.9145060777664185,-1.0232676267623901
1761132552560015600,6.890015625,-0.0923147201538086,0.9099364280700684,-1.0970596075057983
1761132552570015700,6.900015625,-0.26366710662841797,0.8814280033111572,-1.1974223852157593
1761132552580014800,6.910014892578125,-0.4018230438232422,0.8454849720001221,-1.2997773885726929
1761132552590014700,6.9200146484375,-0.5022993087768555,0.818528413772583,-1.3777333498001099
1761132552600014800,6.930014892578125,-0.5677165985107422,0.7836098670959473,-1.414110779762268
1761132552610014700,6.9400146484375,-0.5644416809082031,0.7170802354812622,-1.4633631706237793
1761132552620014800,6.950014892578125,-0.6091175079345703,0.6873036623001099,-1.3642832040786743
1761132552630014700,6.9600146484375,-0.5672578811645508,0.6478837728500366,-1.2757970094680786
1761132552640015600,6.970015625,-0.4915037155151367,0.6099671125411987,-1.115554928779602
1761132552650015700,6.980015625,-0.38155460357666016,0.586144208908081,-0.8465176820755005
1761132552660015600,6.990015625,-0.24417972564697266,0.5749969482421875,-0.5214638113975525
1761132552670015700,7.000015625,-0.0890798568725586,0.5630418062210083,-0.1824076771736145
1761132552680016600,7.0100166015625,0.11050033569335938,0.5339463949203491,0.10055780410766602
1761132552690016500,7.0200166015625,0.31886768341064453,0.46901917457580566,0.2651665210723877
1761132552700016600,7.0300166015625,0.4887094497680664,0.35041022300720215,0.2895645499229431
1761132552710016500,7.0400166015625,0.5567121505737305,0.16608500480651855,0.21422025561332703
1761132552720016600,7.0500166015625,0.5235691070556641,-0.02159571647644043,0.13090039789676666
1761132552730016500,7.0600166015625,0.41936206817626953,-0.17461538314819336,0.08321376144886017
1761132552740016600,7.0700166015625,0.4427366256713867,-0.26876306533813477,0.023085758090019226
1761132552750016500,7.0800166015625,0.14031696319580078,-0.38363170623779297,0.13322590291500092
1761132552760016600,7.0900166015625,0.08388710021972656,-0.4856381416320801,0.2333599179983139
1761132552770016500,7.1000166015625,0.14756298065185547,-0.6054832935333252,0.37759172916412354
1761132552780015900,7.110015869140625,0.3004722595214844,-0.7332103252410889,0.5267102122306824
1761132552790015700,7.120015625,0.4985160827636719,-0.8666940927505493,0.6488050222396851
1761132552800016000,7.130015869140625,0.7169818878173828,-0.9850497245788574,0.7179102897644043
1761132552810015700,7.140015625,0.9357585906982422,-1.0832616090774536,0.7132600545883179
1761132552820015900,7.150015869140625,0.9261302947998047,-1.0470892190933228,0.7564938068389893
1761132552830015700,7.160015625,1.4452085494995117,-1.2364994287490845,0.47065800428390503
1761132552840016000,7.170015869140625,1.7487592697143555,-1.3384747505187988,0.31804749369621277
1761132552850015700,7.180015625,2.0910072326660156,-1.4793133735656738,0.19604939222335815
1761132552860015900,7.190015869140625,2.4842491149902344,-1.6446971893310547,0.1201636791229248
1761132552870015700,7.200015625,2.90726375579834,-1.8211990594863892,0.12396779656410217
1761132552880016600,7.2100166015625,3.3268003463745117,-1.9955331087112427,0.22100305557250977
1761132552890016500,7.2200166015625,3.6812400817871094,-2.160572052001953,0.41394907236099243
1761132552900016600,7.2300166015625,3.934819221496582,-2.313981056213379,0.678765058517456
1761132552910016800,7.240016845703125,4.092949867248535,-2.440192461013794,0.9702162742614746
1761132552920016600,7.2500166015625,4.1054887771606445,-2.4882383346557617,0.9744201898574829
1761132552930016800,7.260016845703125,4.0036163330078125,-2.6483139991760254,1.578693151473999
1761132552940016600,7.2700166015625,3.7035675048828125,-2.7264676094055176,1.8467031717300415
1761132552950016800,7.280016845703125,3.283297538757324,-2.77937912940979,2.0666041374206543
1761132552960016600,7.2900166015625,3.3127708435058594,-2.8752200603485107,2.090261697769165
1761132552970016800,7.300016845703125,2.3169069290161133,-2.8091235160827637,2.3873629570007324
1761132552980015900,7.310015869140625,1.8805789947509766,-2.8038761615753174,2.5090250968933105
1761132552990015700,7.320015625,1.526169776916504,-2.7968101501464844,2.5880448818206787
1761132553000016000,7.330015869140625,1.253774642944336,-2.791111946105957,2.6238958835601807
1761132553010015700,7.340015625,1.0266590118408203,-2.7798068523406982,2.6273608207702637
1761132553020015900,7.350015869140625,0.8349456787109375,-2.7475175857543945,2.6110949516296387
1761132553030015700,7.360015625,0.6493339538574219,-2.704261541366577,2.60598087310791
1761132553040015600,7.370015625,0.4595060348510742,-2.654761552810669,2.6301145553588867
1761132553050015700,7.380015625,0.24483966827392578,-2.611638069152832,2.6755714416503906
1761132553060015600,7.390015625,-0.013819694519042969,-2.556342601776123,2.726714611053467
1761132553070015700,7.400015625,-0.29787731170654297,-2.492636203765869,2.7639095783233643
1761132553080016600,7.4100166015625,-0.5959272384643555,-2.4171364307403564,2.777438163757324
1761132553090016500,7.4200166015625,-0.8952541351318359,-2.3317277431488037,2.774592876434326
1761132553100016600,7.4300166015625,-1.1903114318847656,-2.245577812194824,2.7588388919830322
1761132553110016500,7.4400166015625,-1.464078426361084,-2.1683332920074463,2.7396483421325684
1761132553120016600,7.4500166015625,-1.7169084548950195,-2.0945181846618652,2.718317985534668
1761132553130016500,7.4600166015625,-1.9382705688476562,-2.030280113220215,2.691497325897217
1761132553140016600,7.4700166015625,-2.112377643585205,-1.9655317068099976,2.6525633335113525
1761132553150016500,7.4800166015625,-2.2499427795410156,-1.89534330368042,2.5954647064208984
1761132553160016600,7.4900166015625,-2.3608202934265137,-1.8356590270996094,2.515195846557617
1761132553170016800,7.500016845703125,-2.4447379112243652,-1.7891721725463867,2.4094557762145996
1761132553180015900,7.510015869140625,-2.5065622329711914,-1.7414982318878174,2.2883553504943848
1761132553190015700,7.520015625,-2.548515796661377,-1.6910936832427979,2.16532301902771
1761132553200016000,7.530015869140625,-2.5677928924560547,-1.6341876983642578,2.0474634170532227
1761132553210015700,7.540015625,-2.5616354942321777,-1.564631462097168,1.9268426895141602
1761132553220015900,7.550015869140625,-2.4917235374450684,-1.4832954406738281,1.7931196689605713
1761132553230015700,7.560015625,-2.3698949813842773,-1.403214693069458,1.645672082901001
1761132553240016000,7.570015869140625,-2.2261834144592285,-1.3343229293823242,1.5212548971176147
1761132553250015700,7.580015625,-2.0869269371032715,-1.2762365341186523,1.4327281713485718
1761132553260015900,7.590015869140625,-1.9741802215576172,-1.2155320644378662,1.3787593841552734
1761132553270015700,7.600015625,-1.8801002502441406,-1.1441247463226318,1.335849404335022
1761132553280016600,7.6100166015625,-1.8848228454589844,-1.1370494365692139,1.3221145868301392
1761132553290016500,7.6200166015625,-1.6672978401184082,-0.9995055198669434,1.197098970413208
1761132553300016600,7.6300166015625,-1.5304393768310547,-0.9545462131500244,1.0957783460617065
1761132553310016500,7.6400166015625,-1.380640983581543,-0.9131042957305908,0.958680272102356
1761132553320016600,7.6500166015625,-1.2363309860229492,-0.8612046241760254,0.8066059947013855
1761132553330016500,7.6600166015625,-1.0895805358886719,-0.8041763305664062,0.6750820875167847
1761132553340016600,7.6700166015625,-0.9447908401489258,-0.742124080657959,0.5869187116622925
1761132553350016500,7.6800166015625,-0.7764806747436523,-0.672663688659668,0.534859299659729
1761132553360016600,7.6900166015625,-0.5807924270629883,-0.6014437675476074,0.4994656443595886
1761132553370016500,7.7000166015625,-0.37514209747314453,-0.5511572360992432,0.4694708287715912
1761132553380015900,7.710015869140625,-0.15897464752197266,-0.5323028564453125,0.43474140763282776
1761132553390015700,7.720015625,0.046858787536621094,-0.5271165370941162,0.3728957176208496
1761132553400015600,7.730015625,0.2430582046508789,-0.5158770084381104,0.27856481075286865
1761132553410015700,7.740015625,0.41579723358154297,-0.5002336502075195,0.1452106237411499
1761132553420015900,7.750015869140625,0.5606908798217773,-0.47661495208740234,0.0028721094131469727
1761132553430015700,7.760015625,0.6735029220581055,-0.43916964530944824,-0.12130558490753174
1761132553440016000,7.770015869140625,0.7447834014892578,-0.3809814453125,-0.22130870819091797
1761132553450015700,7.780015625,0.7881879806518555,-0.2882535457611084,-0.3032245635986328
1761132553460015600,7.790015625,0.8312139511108398,-0.17460036277770996,-0.3472990095615387
1761132553470015700,7.800015625,0.8957033157348633,-0.08050799369812012,-0.3448285460472107
1761132553480016600,7.8100166015625,1.0327253341674805,-0.011934041976928711,-0.29982131719589233
1761132553490016500,7.8200166015625,1.2599515914916992,0.027660131454467773,-0.22129935026168823
1761132553500016600,7.8300166015625,1.5918951034545898,0.021959304809570312,-0.14067235589027405
1761132553520016600,7.8500166015625,2.4806480407714844,-0.17478156089782715,-0.043626487255096436
1761132553530016500,7.8600166015625,2.980255126953125,-0.31476902961730957,-0.06166060268878937
1761132553540016600,7.8700166015625,3.432938575744629,-0.44576501846313477,-0.13246071338653564
1761132553550016500,7.8800166015625,3.764110565185547,-0.577484130859375,-0.2503913342952728
1761132553560016600,7.8900166015625,3.932591438293457,-0.6990513801574707,-0.39094340801239014
1761132553570016500,7.9000166015625,3.906219482421875,-0.7930257320404053,-0.5217965245246887
1761132553580015600,7.910015625,3.630443572998047,-0.8356711864471436,-0.5751369595527649
1761132553590015700,7.920015625,3.1862716674804688,-0.814720869064331,-0.6064004898071289
1761132553600015600,7.930015625,2.6261863708496094,-0.7558553218841553,-0.6137732267379761
1761132553610015700,7.940015625,2.0234994888305664,-0.6870288848876953,-0.6081616878509521
1761132553620015600,7.950015625,1.4440040588378906,-0.6136598587036133,-0.5925676822662354
1761132553630015700,7.960015625,0.9294557571411133,-0.540424108505249,-0.5700900554656982
1761132553640015600,7.970015625,0.522343635559082,-0.48845601081848145,-0.5300362706184387
1761132553650015700,7.980015625,0.24748706817626953,-0.4619009494781494,-0.497393399477005
1761132553660015900,7.990015869140625,0.11934852600097656,-0.4766366481781006,-0.46773722767829895
1761132553670015700,8.000015625,0.12429237365722656,-0.5200376510620117,-0.4606683552265167
1761132553680016600,8.0100166015625,0.23784351348876953,-0.557837963104248,-0.4716808795928955
1761132553690016500,8.0200166015625,0.4335365295410156,-0.5815818309783936,-0.5139912366867065
1761132553700016600,8.0300166015625,0.6275167465209961,-0.5827901363372803,-0.5680099129676819
1761132553710016500,8.0400166015625,0.7498102188110352,-0.5291745662689209,-0.673250138759613
1761132553720016600,8.0500166015625,0.7892541885375977,-0.6062302589416504,-0.6581094264984131
1761132553730016500,8.0600166015625,0.7770280838012695,-0.740633487701416,-0.5700696706771851
1761132553740016600,8.0700166015625,0.7432088851928711,-0.8495365381240845,-0.5035855174064636
1761132553750016800,8.080016845703126,0.667262077331543,-0.8803176879882812,-0.4831652045249939
1761132553760016600,8.0900166015625,0.5384149551391602,-0.850567102432251,-0.47122105956077576
1761132553770016800,8.100016845703125,0.34986305236816406,-0.7960898876190186,-0.4424867033958435
1761132553780015900,8.110015869140625,0.10110187530517578,-0.7463266849517822,-0.38222736120224
1761132553790015700,8.120015625,-0.17304325103759766,-0.7090176343917847,-0.29744645953178406
1761132553800016000,8.130015869140625,-0.42131519317626953,-0.673944354057312,-0.20365390181541443
1761132553810015700,8.140015625,-0.6310672760009766,-0.6557987928390503,-0.13061468303203583
1761132553820015900,8.150015869140624,-0.8172998428344727,-0.6860378980636597,-0.0584230050444603
1761132553830015700,8.160015625,-0.990875244140625,-0.7668912410736084,-0.009482055902481079
1761132553840016000,8.170015869140625,-1.1584558486938477,-0.8503189086914062,-0.00025118887424468994
1761132553850015700,8.180015625,-1.3341598510742188,-0.8917104005813599,-0.020665712654590607
1761132553860015600,8.190015625,-1.5179352760314941,-0.8814678192138672,-0.046349577605724335
1761132553870015700,8.200015625,-2.500112533569336,-0.5908353328704834,-0.28525975346565247
1761132553880016600,8.2100166015625,-2.7131247520446777,-0.448028564453125,-0.22429543733596802
1761132553890016500,8.2200166015625,-2.8186092376708984,-0.3804433345794678,-0.10851730406284332
1761132553900016600,8.2300166015625,-2.833813190460205,-0.30498600006103516,0.024535048753023148
1761132553910016800,8.240016845703124,-2.641761302947998,-0.23499822616577148,0.11769011616706848
1761132553920016600,8.2500166015625,-2.3408727645874023,-0.17702865600585938,0.2294786423444748
1761132553930016800,8.260016845703126,-2.1033291816711426,-0.2110888957977295,0.416504830121994
1761132553940016400,8.270016357421875,-1.928494930267334,-0.3322451114654541,0.5959792733192444
1761132553950016500,8.2800166015625,-1.825366497039795,-0.3293423652648926,0.6339049935340881
1761132553960016400,8.290016357421875,-1.6482267379760742,-0.37357497215270996,0.4624738097190857
1761132553970016500,8.3000166015625,-1.3257207870483398,-0.4776582717895508,0.2194427251815796
1761132553980015600,8.310015625,-0.8752660751342773,-0.5962581634521484,0.03056412748992443
1761132553990015500,8.320015380859376,-0.2996349334716797,-0.718501091003418,-0.10308180749416351
1761132554000015600,8.330015625,0.21004676818847656,-0.8481312990188599,-0.13762851059436798
1761132554010015500,8.340015380859375,0.456024169921875,-0.9956462383270264,-0.10253075510263443
1761132554020015600,8.350015625,0.503993034362793,-1.2245900630950928,-0.01920405775308609
1761132554030015500,8.360015380859375,0.6127700805664062,-1.4352953433990479,0.07427564263343811
1761132554040015600,8.370015625,0.7934417724609375,-1.6822152137756348,-0.03929980471730232
1761132554050015500,8.380015380859374,0.7907657623291016,-1.6726188659667969,-0.07100875675678253
1761132554060015600,8.390015625,1.5284051895141602,-1.9573619365692139,-0.5113451480865479
1761132554070015500,8.400015380859376,1.9043588638305664,-1.9853436946868896,-0.5624918937683105
1761132554080016400,8.410016357421876,1.8955926895141602,-1.9508051872253418,-0.613995373249054
1761132554090016300,8.420016357421876,2.6493072509765625,-1.8283021450042725,0.09439864754676819
1761132554100016400,8.430016357421875,3.0995254516601562,-1.6683400869369507,0.4997290074825287
1761132554110016500,8.4400166015625,3.794015884399414,-1.6733274459838867,0.9161877632141113
1761132554120016400,8.450016357421875,4.497518539428711,-1.7744141817092896,1.2850183248519897
1761132554130016500,8.4600166015625,5.165753364562988,-1.8266630172729492,1.4325436353683472
1761132554140016400,8.470016357421875,5.678257942199707,-1.8725882768630981,1.2241370677947998
1761132554150016300,8.480016357421874,6.014263153076172,-1.997409462928772,0.8392133116722107
1761132554160016400,8.490016357421876,6.160881042480469,-2.1073107719421387,0.36203521490097046
1761132554170016500,8.5000166015625,6.286535263061523,-2.1259427070617676,0.08383101224899292
1761132554180015600,8.510015625,6.173921585083008,-2.2213592529296875,-0.08593976497650146
1761132554190015500,8.520015380859375,5.909595489501953,-2.41465163230896,-0.1050887405872345
1761132554200015600,8.530015625,5.438877105712891,-2.4088656902313232,0.13832807540893555
1761132554210015500,8.540015380859375,4.728370666503906,-2.2219245433807373,0.6432037353515625
1761132554220015600,8.550015625,4.008672714233398,-2.003957986831665,1.1980302333831787
1761132554230015500,8.560015380859374,3.1643800735473633,-1.8005001544952393,1.822893738746643
1761132554240015600,8.570015625,2.307422637939453,-1.7081308364868164,2.2902259826660156
1761132554250015700,8.580015625,1.520772933959961,-1.621670126914978,2.577716827392578
1761132554260015600,8.590015625,0.7939004898071289,-1.4955906867980957,2.7018725872039795
1761132554270015700,8.600015625,0.07999324798583984,-1.4174978733062744,2.6669485569000244
1761132554280016600,8.6100166015625,-0.3888216018676758,-1.4017764329910278,2.4951605796813965
1761132554290016500,8.6200166015625,-0.7255430221557617,-1.3517115116119385,2.1786727905273438
1761132554300016600,8.6300166015625,-1.0001554489135742,-1.3785381317138672,1.770316243171692
1761132554310016500,8.6400166015625,-1.2074308395385742,-1.4746754169464111,1.4071788787841797
1761132554320016600,8.6500166015625,-1.4331912994384766,-1.4955782890319824,1.0596895217895508
1761132554330016500,8.6600166015625,-1.6294851303100586,-1.4395798444747925,0.768113911151886
1761132554340016600,8.6700166015625,-1.5394630432128906,-1.4098867177963257,0.6923671960830688
1761132554350016500,8.6800166015625,-1.5436291694641113,-1.381422519683838,0.7267045378684998
1761132554360016600,8.6900166015625,-1.6744837760925293,-1.4222402572631836,0.7866431474685669
1761132554370016500,8.7000166015625,-1.868499755859375,-1.4759247303009033,0.8026012182235718
1761132554380015600,8.710015625,-1.8448915481567383,-1.5414717197418213,0.8580343723297119
1761132554390015700,8.720015625,-2.59316349029541,-1.4276381731033325,0.8423076868057251
1761132554400015600,8.730015625,-2.753981590270996,-1.3216723203659058,0.8539425134658813
1761132554410015700,8.740015625,-2.8507871627807617,-1.2863709926605225,0.8210673928260803
1761132554420015600,8.750015625,-2.7983245849609375,-1.3143177032470703,0.8250284790992737
1761132554430015700,8.760015625,-2.8767032623291016,-1.4455442428588867,0.7670661211013794
1761132554440015600,8.770015625,-2.9920687675476074,-1.5801467895507812,0.7102330923080444
1761132554450015700,8.780015625,-3.072011947631836,-1.6086876392364502,0.6292604207992554
1761132554460015600,8.790015625,-3.0617551803588867,-1.55184006690979,0.5645310282707214
1761132554470015700,8.800015625,-3.022031784057617,-1.642669677734375,0.5893886089324951
1761132554480016600,8.8100166015625,-3.147036075592041,-1.5388374328613281,0.6770465970039368
1761132554490016500,8.8200166015625,-3.135685920715332,-1.4835455417633057,0.7690103650093079
1761132554500016600,8.8300166015625,-3.034742832183838,-1.4030001163482666,0.9410080909729004
1761132554510016500,8.8400166015625,-3.0079832077026367,-1.2943687438964844,1.198887586593628
1761132554520016600,8.8500166015625,-2.9419617652893066,-1.2258572578430176,1.5301012992858887
1761132554530016500,8.8600166015625,-2.9289188385009766,-1.1586487293243408,1.8135032653808594
1761132554540016600,8.8700166015625,-2.7018914222717285,-1.1520202159881592,1.9133641719818115
1761132554550016800,8.880016845703125,-2.353330135345459,-1.1330063343048096,1.8406744003295898
1761132554560016600,8.8900166015625,-1.9339103698730469,-1.1819493770599365,1.6215462684631348
1761132554570016800,8.900016845703124,-1.5713191032409668,-1.1935794353485107,1.3388781547546387
1761132554580015900,8.910015869140626,-1.2518115043640137,-1.175781488418579,1.0072903633117676
1761132554590015700,8.920015625,-0.9643378257751465,-1.0692412853240967,0.7086206078529358
1761132554600016000,8.930015869140625,-0.7795238494873047,-1.0084540843963623,0.57663893699646
1761132554610015700,8.940015625,-0.5765485763549805,-0.9216067790985107,0.4837065041065216
1761132554620015900,8.950015869140625,-0.30178356170654297,-0.6764817237854004,0.14365381002426147
1761132554630015700,8.960015625,-0.3163003921508789,-0.6310710906982422,0.20728212594985962
1761132554640016000,8.970015869140624,-0.14233684539794922,-0.6043834686279297,0.07087433338165283
1761132554650015700,8.980015625,-0.15618419647216797,-0.4899587631225586,0.11671853065490723
1761132554660015900,8.990015869140626,0.33127784729003906,-0.5390689373016357,0.4048781394958496
1761132554680016600,9.0100166015625,-0.05053901672363281,0.03673124313354492,0.3681786060333252
1761132554690016800,9.020016845703125,0.380584716796875,-0.10349297523498535,0.6372789144515991
1761132554700017000,9.030016845703125,1.0067214965820312,-0.41770148277282715,0.8017950057983398
1761132554710016800,9.040016845703125,0.9721460342407227,-0.3524172306060791,0.7386078238487244
1761132554720016600,9.0500166015625,2.3071956634521484,-0.2475888729095459,0.7033038139343262
