time,seconds_elapsed,z,y,x
1761132224607596800,0.1245966796875,-0.3508720397949219,0.35167503356933594,-0.9608429670333862
1761132224617623000,0.134623046875,-0.32973575592041016,0.33297109603881836,-0.9732255339622498
1761132224627623000,0.144622802734375,-0.44005680084228516,0.32582855224609375,-0.9920825958251953
1761132224637623000,0.154623046875,-0.6243486404418945,0.2799258232116699,-0.9815136790275574
1761132224647623000,0.164622802734375,-0.8018584251403809,0.23558425903320312,-0.9763844013214111
1761132224657623000,0.174623046875,-0.9139432907104492,0.2236952781677246,-1.0566004514694214
1761132224667623000,0.184622802734375,-1.0027589797973633,0.1710205078125,-1.0020575523376465
1761132224677623000,0.194623046875,-1.0590901374816895,0.05900859832763672,-0.9506450891494751
1761132224687623000,0.204622802734375,-1.016261100769043,-0.0065746307373046875,-0.9521195888519287
1761132224697623000,0.214623046875,-0.9440484046936035,-0.051604270935058594,-0.8770797848701477
1761132224707623000,0.224622802734375,-1.0075464248657227,-0.1123194694519043,-0.8654353022575378
1761132224717623000,0.234623046875,-1.050631046295166,-0.17565345764160156,-0.9262990951538086
1761132224727623000,0.244622802734375,-1.0969843864440918,-0.1466989517211914,-1.0663502216339111
1761132224737623000,0.254623046875,-1.1494660377502441,-0.14657211303710938,-1.211613655090332
1761132224747623000,0.264622802734375,-1.1600823402404785,-0.1251835823059082,-1.208974003791809
1761132224757623000,0.274623046875,-1.0548458099365234,-0.10821771621704102,-1.2892026901245117
1761132224767623000,0.284622802734375,-1.0637474060058594,-0.058917999267578125,-1.314981460571289
1761132224777623000,0.294623046875,-1.0886106491088867,-0.044063568115234375,-1.2640395164489746
1761132224787623000,0.304622802734375,-1.0816831588745117,0.0034837722778320312,-1.2202225923538208
1761132224797623000,0.314623046875,-1.0602035522460938,0.024864673614501953,-1.1870478391647339
1761132224807621600,0.32462158203125,-1.0816431045532227,0.07050371170043945,-1.1807663440704346
1761132224817621800,0.334621826171875,-0.33867645263671875,0.11580133438110352,-1.3202813863754272
1761132224827621600,0.34462158203125,-0.0895071029663086,0.03209638595581055,-1.3687715530395508
1761132224837621800,0.354621826171875,0.01925373077392578,-0.0905301570892334,-1.4067559242248535
1761132224847621600,0.36462158203125,0.041332244873046875,-0.11615610122680664,-1.4687721729278564
1761132224857621800,0.374621826171875,-0.01571369171142578,-0.10368728637695312,-1.4991123676300049
1761132224867621600,0.38462158203125,-0.1416940689086914,0.0018589496612548828,-1.5247453451156616
1761132224877621800,0.394621826171875,-0.1539154052734375,0.13767313957214355,-1.5348052978515625
1761132224887621600,0.40462158203125,-0.16808795928955078,0.16011595726013184,-1.5049786567687988
1761132224897621800,0.414621826171875,-0.18689727783203125,0.051233530044555664,-1.480241298675537
1761132224907621600,0.42462158203125,-0.19109058380126953,-0.08622860908508301,-1.4827512502670288
1761132224917621800,0.434621826171875,-0.16370010375976562,-0.24347209930419922,-1.4793297052383423
1761132224927621600,0.44462158203125,-0.19791698455810547,-0.33510613441467285,-1.534149408340454
1761132224937621800,0.454621826171875,-0.24147605895996094,-0.4345071315765381,-1.5643283128738403
1761132224947621600,0.46462158203125,-0.2278461456298828,-0.5545990467071533,-1.6163917779922485
1761132224957621800,0.474621826171875,-0.22709369659423828,-0.7080450057983398,-1.5778453350067139
1761132224967621600,0.48462158203125,-0.3114290237426758,-0.8363864421844482,-1.6387944221496582
1761132224977621800,0.494621826171875,-0.3998689651489258,-0.9288041591644287,-1.7742843627929688
1761132224987621600,0.50462158203125,-0.47606849670410156,-0.9527299404144287,-1.81211256980896
1761132224997621800,0.514621826171875,-0.4563913345336914,-0.9742813110351562,-1.7745583057403564
1761132225007620900,0.524620849609375,-0.4174165725708008,-0.9858179092407227,-1.7197587490081787
1761132225017620700,0.534620849609375,-0.3995351791381836,-0.9708695411682129,-1.7029552459716797
1761132225027620900,0.544620849609375,-0.40915870666503906,-0.9622323513031006,-1.747442603111267
1761132225037620700,0.554620849609375,-0.48850250244140625,-0.9093327522277832,-1.8049758672714233
1761132225047620900,0.564620849609375,-0.6319293975830078,-0.8167679309844971,-1.8289086818695068
1761132225057620700,0.574620849609375,-0.7647991180419922,-0.6497726440429688,-1.7695825099945068
1761132225067620900,0.584620849609375,-0.920598030090332,-0.48979973793029785,-1.5944976806640625
1761132225077620700,0.594620849609375,-1.1161890029907227,-0.3053779602050781,-1.400248408317566
1761132225097620700,0.614620849609375,-1.495884895324707,0.06565189361572266,-0.990829348564148
1761132225107621600,0.62462158203125,-1.6371498107910156,0.24864554405212402,-0.7784894704818726
1761132225117621800,0.634621826171875,-1.7778315544128418,0.41443610191345215,-0.49832868576049805
1761132225127621600,0.64462158203125,-1.8818483352661133,0.6271944046020508,-0.1903531551361084
1761132225137621800,0.654621826171875,-1.9012279510498047,0.7188270092010498,-0.14287641644477844
1761132225147621600,0.66462158203125,-2.293107509613037,0.8629264831542969,0.4059472978115082
1761132225157621800,0.674621826171875,-2.5570478439331055,0.9360241889953613,0.4498930871486664
1761132225167621600,0.68462158203125,-2.5737743377685547,1.024290919303894,0.4745413362979889
1761132225177621800,0.694621826171875,-2.8438591957092285,0.7127147912979126,0.7950083017349243
1761132225187621600,0.70462158203125,-2.8905105590820312,0.5898183584213257,1.1013208627700806
1761132225197621800,0.714621826171875,-3.160731792449951,0.44815540313720703,1.3860769271850586
1761132225207620900,0.724620849609375,-3.663224697113037,0.22150659561157227,1.5690418481826782
1761132225217621000,0.73462109375,-4.311530590057373,0.10832381248474121,1.6677093505859375
1761132225227620900,0.744620849609375,-4.838165760040283,0.08089613914489746,1.8478755950927734
1761132225237621000,0.75462109375,-5.113706111907959,0.18178832530975342,1.9979541301727295
1761132225247620900,0.764620849609375,-5.0696702003479,0.30042386054992676,1.9071731567382812
1761132225257621000,0.77462109375,-4.76641845703125,0.3907822370529175,1.6578058004379272
1761132225267620900,0.784620849609375,-4.120845794677734,0.4243408441543579,1.3157474994659424
1761132225277621000,0.79462109375,-3.467599391937256,0.4944796562194824,1.0420832633972168
1761132225287620900,0.804620849609375,-2.7773208618164062,0.6654847860336304,0.8123328685760498
1761132225297621000,0.81462109375,-2.7771215438842773,0.6853300333023071,0.8583563566207886
1761132225307622000,0.824621826171875,-0.3973731994628906,1.0858641862869263,-0.2803328037261963
1761132225317621800,0.834621826171875,1.8026351928710938,1.4298654794692993,-1.0685381889343262
1761132225327622000,0.844621826171875,4.498013496398926,2.2377712726593018,-2.3491170406341553
1761132225337621800,0.854621826171875,6.890661239624023,3.2932629585266113,-2.90198016166687
1761132225347622000,0.864621826171875,10.114534378051758,4.957891941070557,-3.3919765949249268
1761132225357621800,0.874621826171875,13.941312789916992,6.31679630279541,-3.473788261413574
1761132225367622400,0.884622314453125,18.313323974609375,6.3209733963012695,-3.070162534713745
1761132225377622500,0.89462255859375,22.346771240234375,4.895331859588623,-3.042186737060547
1761132225387622400,0.904622314453125,24.279462814331055,3.996173858642578,-3.539853572845459
1761132225397622500,0.91462255859375,24.103744506835938,3.6587822437286377,-3.069504737854004
1761132225407621600,0.92462158203125,22.53944206237793,3.815512180328369,-2.554259777069092
1761132225417621500,0.93462158203125,19.68476104736328,4.382937431335449,-2.1811718940734863
1761132225427621600,0.94462158203125,16.0203857421875,4.726827621459961,-1.6305899620056152
1761132225437621500,0.95462158203125,11.597947120666504,5.335992813110352,-1.1199970245361328
1761132225447621600,0.96462158203125,8.137510299682617,5.8099236488342285,-0.867743194103241
1761132225457621500,0.97462158203125,5.822391510009766,6.080984115600586,-0.47960376739501953
1761132225467621600,0.98462158203125,4.476749420166016,5.813925266265869,0.40421557426452637
1761132225477621500,0.99462158203125,4.304715156555176,4.5498762130737305,1.4383230209350586
1761132225487621600,1.00462158203125,3.4356164932250977,4.43107271194458,0.1342598795890808
1761132225497621500,1.01462158203125,1.6736516952514648,2.5708346366882324,0.8485656976699829
1761132225527622400,1.044622314453125,0.18693256378173828,1.5567958354949951,0.6369425058364868
1761132225537622300,1.054622314453125,-0.8556022644042969,0.9687037467956543,1.5419799089431763
1761132225547622400,1.064622314453125,-2.3166685104370117,-0.13031482696533203,1.4426145553588867
1761132225557622300,1.074622314453125,-4.0568742752075195,-0.538330078125,0.8037679195404053
1761132225567622400,1.084622314453125,-5.482596397399902,-1.39579176902771,0.46548908948898315
1761132225577622300,1.094622314453125,-6.979289531707764,-2.3633623123168945,-0.2058541178703308
1761132225587622400,1.104622314453125,-8.218347549438477,-3.084752082824707,-0.991327166557312
1761132225597622300,1.114622314453125,-9.004828453063965,-3.888294219970703,-1.4164150953292847
1761132225607621600,1.12462158203125,-9.35108470916748,-4.628888130187988,-1.6578259468078613
1761132225617621500,1.13462158203125,-9.348334312438965,-5.187424182891846,-1.5996346473693848
1761132225627621000,1.14462109375,-9.219528198242188,-5.588522911071777,-1.1981295347213745
1761132225637621000,1.15462109375,-9.129256248474121,-5.978466510772705,-0.7534552216529846
1761132225647621000,1.16462109375,-9.177062034606934,-6.2913007736206055,-0.46002161502838135
1761132225657621000,1.17462109375,-9.350250244140625,-6.5676679611206055,-0.3405371904373169
1761132225667620400,1.184620361328125,-9.833263397216797,-6.899089813232422,-0.34217917919158936
1761132225677620500,1.194620361328125,-10.139369010925293,-7.053917407989502,-0.5463188290596008
1761132225687620400,1.204620361328125,-10.22286605834961,-7.173256874084473,-0.71873939037323
1761132225697620500,1.214620361328125,-9.887228965759277,-7.3813862800598145,-0.740237295627594
1761132225707621400,1.224621337890625,-9.47762393951416,-7.628232002258301,-0.842885434627533
1761132225717621200,1.234621337890625,-8.852141380310059,-7.798511505126953,-1.0621750354766846
1761132225727621400,1.244621337890625,-8.164397239685059,-8.08211898803711,-1.4267998933792114
1761132225737621200,1.254621337890625,-7.550902843475342,-8.337906837463379,-1.7338976860046387
1761132225747621400,1.264621337890625,-7.076138019561768,-8.461153030395508,-2.032055377960205
1761132225757621200,1.274621337890625,-6.828525066375732,-8.660290718078613,-2.100921392440796
1761132225767621400,1.284621337890625,-6.8103508949279785,-8.696037292480469,-2.0116844177246094
1761132225777621200,1.294621337890625,-6.332967758178711,-8.72772216796875,-1.6922130584716797
1761132225787621400,1.304621337890625,-6.018422603607178,-8.52517032623291,-1.3185863494873047
1761132225797621200,1.314621337890625,-5.689793586730957,-8.39620590209961,-0.8846160173416138
1761132225807620600,1.32462060546875,-5.265046119689941,-8.074102401733398,-0.5019387006759644
1761132225817620500,1.334620361328125,-4.744376182556152,-7.5471086502075195,-0.4858817756175995
1761132225827620600,1.34462060546875,-3.676194429397583,-6.991865158081055,-0.7817304134368896
1761132225837620500,1.354620361328125,-2.127673625946045,-5.9623332023620605,-1.6113133430480957
1761132225847620600,1.36462060546875,0.20667219161987305,-4.941773414611816,-2.313964366912842
1761132225857620500,1.374620361328125,1.8043761253356934,-3.592041492462158,-2.8529882431030273
1761132225867620400,1.384620361328125,2.331666946411133,-1.3326525688171387,-3.3436403274536133
1761132225877620500,1.394620361328125,1.8333802223205566,2.6757607460021973,-4.774386882781982
1761132225887620400,1.404620361328125,1.275273323059082,7.846212863922119,-6.954578876495361
1761132225897620500,1.414620361328125,2.6567325592041016,11.38180160522461,-8.29258918762207
1761132225907621000,1.42462109375,8.075782775878906,12.166901588439941,-8.051161766052246
1761132225917621200,1.434621337890625,16.128997802734375,12.001974105834961,-6.409468173980713
1761132225927621600,1.44462158203125,24.984365463256836,10.956111907958984,-4.411195278167725
1761132225937621800,1.454621826171875,28.79074478149414,9.977376937866211,-3.266704797744751
1761132225947621600,1.46462158203125,29.2249813079834,7.284605979919434,0.32692453265190125
1761132225957621800,1.474621826171875,23.886566162109375,7.103896617889404,3.4337592124938965
1761132225967621400,1.484621337890625,18.44179916381836,8.9654541015625,4.816534996032715
1761132225977621200,1.494621337890625,13.965961456298828,10.459379196166992,3.128933906555176
1761132225987621400,1.504621337890625,10.188070297241211,10.346738815307617,0.24595966935157776
1761132225997621200,1.514621337890625,7.050266265869141,8.719701766967773,-1.3504648208618164
1761132226007620400,1.524620361328125,5.113469123840332,7.303402900695801,-2.3583109378814697
1761132226017620500,1.534620361328125,4.704278945922852,6.094943046569824,-2.0798072814941406
1761132226027620400,1.544620361328125,5.250779151916504,5.246841907501221,-0.7301316857337952
1761132226037620500,1.554620361328125,4.9016008377075195,4.618366241455078,0.22648820281028748
1761132226047620400,1.564620361328125,2.990985870361328,3.8848369121551514,0.5454294681549072
1761132226057620500,1.574620361328125,0.017547607421875,3.301647186279297,0.4396226406097412
1761132226070598100,1.58759814453125,-3.2128543853759766,2.964207649230957,0.030820056796073914
1761132226080598000,1.597597900390625,-6.5326433181762695,2.4817168712615967,-0.19542832672595978
1761132226090598100,1.60759814453125,-8.660741806030273,1.7127982378005981,-0.26418259739875793
1761132226100598000,1.617597900390625,-10.020919799804688,1.6585736274719238,-0.517903208732605
1761132226110599000,1.627598876953125,-10.886183738708496,0.8547077178955078,0.20682577788829803
1761132226120599000,1.63759912109375,-11.346890449523926,-0.4102821350097656,1.5683560371398926
1761132226130599000,1.647598876953125,-11.666756629943848,-0.8763529062271118,0.6370118260383606
1761132226140599000,1.65759912109375,-11.582221031188965,-1.4560108184814453,0.7582529783248901
1761132226150599000,1.667598876953125,-11.519411087036133,-2.3055131435394287,0.8288676738739014
1761132226160599000,1.67759912109375,-11.365013122558594,-2.8892862796783447,0.36868131160736084
1761132226170598700,1.6875986328125,-11.047926902770996,-3.248507261276245,-0.3539375364780426
1761132226180598800,1.697598876953125,-10.220446586608887,-3.735757827758789,-0.9678923487663269
1761132226190598700,1.7075986328125,-9.233325004577637,-4.239099979400635,-1.1703050136566162
1761132226200598800,1.717598876953125,-8.516645431518555,-4.590331077575684,-1.2260921001434326
1761132226210598000,1.727597900390625,-7.737895965576172,-4.9230852127075195,-1.1064502000808716
1761132226220598000,1.737597900390625,-7.720832824707031,-4.968656063079834,-1.0812931060791016
1761132226230598000,1.747597900390625,-6.586235046386719,-5.480594635009766,-1.264161467552185
1761132226240598000,1.757597900390625,-6.329556941986084,-5.727598190307617,-1.5542947053909302
1761132226250598000,1.767597900390625,-6.391693115234375,-5.937498092651367,-1.3802562952041626
1761132226260598000,1.777597900390625,-6.717876434326172,-5.844785213470459,-1.1729633808135986
1761132226270598100,1.78759814453125,-7.074161529541016,-5.552872180938721,-1.0444504022598267
1761132226280598300,1.797598388671875,-7.208528518676758,-5.097507476806641,-0.7493578195571899
1761132226290598100,1.80759814453125,-6.339043617248535,-4.997486114501953,-1.4485034942626953
1761132226300598300,1.817598388671875,-5.618988513946533,-4.561364650726318,-1.1686705350875854
1761132226310599200,1.82759912109375,-4.08927583694458,-4.07952880859375,-1.0368692874908447
1761132226320599000,1.83759912109375,-2.155758857727051,-3.4074110984802246,-1.091744303703308
1761132226330599200,1.84759912109375,-0.537327766418457,-1.6520676612854004,-2.359940528869629
1761132226340599000,1.85759912109375,1.8809185028076172,-2.05741548538208,-2.163811445236206
1761132226350599200,1.86759912109375,4.586725234985352,-2.3312675952911377,-1.6762280464172363
1761132226360599000,1.87759912109375,7.050358772277832,-1.4746766090393066,-2.827880859375
1761132226370599200,1.88759912109375,8.689966201782227,1.8078932762145996,-5.653242588043213
1761132226380599000,1.89759912109375,9.272127151489258,4.838111400604248,-8.283306121826172
1761132226390599200,1.90759912109375,11.03699016571045,7.212839126586914,-9.854731559753418
1761132226400599000,1.91759912109375,14.799002647399902,9.24865436553955,-10.851694107055664
1761132226410598100,1.92759814453125,19.477989196777344,9.431285858154297,-10.015304565429688
1761132226420598300,1.937598388671875,23.85692596435547,8.974252700805664,-8.989201545715332
1761132226430598100,1.94759814453125,25.633377075195312,8.271940231323242,-7.544388771057129
1761132226440598300,1.957598388671875,23.52094268798828,8.093684196472168,-5.557773590087891
1761132226450598100,1.96759814453125,17.347537994384766,9.087491989135742,-3.3402774333953857
1761132226460598300,1.977598388671875,9.235654830932617,10.923149108886719,-0.9871231317520142
1761132226470598400,1.987598388671875,2.787306785583496,12.80160903930664,0.22629404067993164
1761132226480598500,1.9975986328125,-1.1043314933776855,12.817048072814941,1.2669706344604492
1761132226490598400,2.007598388671875,-0.762324333190918,11.136141777038574,2.5990867614746094
1761132226500598500,2.0175986328125,4.595484733581543,8.625096321105957,3.107692241668701
1761132226510599200,2.02759912109375,10.299419403076172,5.8926472663879395,3.771751880645752
1761132226520599300,2.037599365234375,12.37451457977295,3.5492870807647705,4.089535713195801
1761132226530599200,2.04759912109375,10.317591667175293,2.0853233337402344,3.229011058807373
1761132226540599300,2.057599365234375,5.834887504577637,0.7129521369934082,2.933497190475464
1761132226550599200,2.06759912109375,1.2638778686523438,1.0168201923370361,1.7065885066986084
1761132226560599300,2.077599365234375,-2.661151885986328,1.0377416610717773,1.1062531471252441
1761132226570599400,2.087599365234375,-5.204942226409912,0.6762242317199707,1.415403962135315
1761132226580599300,2.097599365234375,-6.6136794090271,0.46205878257751465,1.1772897243499756
1761132226590599400,2.107599365234375,-7.614499092102051,0.0504908561706543,0.731324315071106
1761132226600599300,2.117599365234375,-8.511041641235352,-0.4880373477935791,0.7592846155166626
1761132226610598700,2.1275986328125,-9.43850326538086,-0.9857834577560425,1.0206466913223267
1761132226620598500,2.1375986328125,-10.29781436920166,-1.3989919424057007,1.621167778968811
1761132226630598700,2.1475986328125,-10.997787475585938,-1.965451955795288,1.9822876453399658
1761132226640598500,2.1575986328125,-10.93462085723877,-2.1446681022644043,1.8880993127822876
1761132226650598700,2.1675986328125,-12.163200378417969,-2.789686918258667,2.1697311401367188
1761132226660598500,2.1775986328125,-12.834939002990723,-2.9285638332366943,1.6573270559310913
1761132226670598700,2.1875986328125,-13.038187026977539,-3.1526095867156982,1.0936830043792725
1761132226680598500,2.1975986328125,-13.036552429199219,-3.5802536010742188,0.5258808732032776
1761132226690598700,2.2075986328125,-13.000747680664062,-3.660273551940918,0.5982514023780823
1761132226700598500,2.2175986328125,-11.42580795288086,-4.363559722900391,-0.8092693090438843
1761132226710599400,2.227599365234375,-10.109485626220703,-5.036044120788574,-1.2382991313934326
1761132226720599600,2.237599609375,-8.876681327819824,-5.625455379486084,-1.6939529180526733
1761132226730599400,2.247599365234375,-7.998230934143066,-6.078259468078613,-1.8861087560653687
1761132226740599600,2.257599609375,-7.056239604949951,-6.354940414428711,-1.8491090536117554
1761132226750599400,2.267599365234375,-6.412047863006592,-6.542613983154297,-1.6270129680633545
1761132226760599600,2.277599609375,-6.315837860107422,-6.624692916870117,-1.4276642799377441
1761132226770599400,2.287599365234375,-6.978317737579346,-6.641522407531738,-1.374280571937561
1761132226780599600,2.297599609375,-7.916799545288086,-6.566464424133301,-1.3628790378570557
1761132226790599400,2.307599365234375,-8.908920288085938,-6.428777694702148,-1.1101422309875488
1761132226800599600,2.317599609375,-9.615618705749512,-6.084344863891602,-0.7121602296829224
1761132226810598700,2.3275986328125,-9.801102638244629,-5.659902095794678,-0.29847076535224915
1761132226820598500,2.3375986328125,-9.514043807983398,-5.197819709777832,0.3104223310947418
1761132226830598700,2.3475986328125,-8.486173629760742,-4.579941272735596,0.3850405216217041
1761132226840598500,2.3575986328125,-7.389797210693359,-4.197958469390869,-0.24367928504943848
1761132226850598700,2.3675986328125,-6.190659046173096,-3.9179139137268066,-1.333011269569397
1761132226860598800,2.377598876953125,-4.298450946807861,-3.599773645401001,-2.5236451625823975
1761132226870598700,2.3875986328125,-1.4439215660095215,-3.3911375999450684,-3.3950839042663574
1761132226880598500,2.3975986328125,2.4541549682617188,-2.7367897033691406,-3.8218917846679688
1761132226890598700,2.4075986328125,7.144604682922363,-1.2154178619384766,-4.2004241943359375
1761132226900598500,2.4175986328125,10.544096946716309,0.5966343879699707,-5.15181303024292
1761132226910599200,2.42759912109375,13.387166023254395,1.8331375122070312,-4.93052864074707
1761132226920599300,2.437599365234375,15.263717651367188,4.031703948974609,-5.8141937255859375
1761132226930599200,2.44759912109375,16.074527740478516,6.1276960372924805,-6.838971138000488
1761132226940599300,2.457599365234375,16.666961669921875,7.190359115600586,-6.544515609741211
1761132226950599200,2.46759912109375,16.994537353515625,8.06167221069336,-5.656959533691406
1761132226960599300,2.477599365234375,17.531845092773438,8.494823455810547,-4.551807403564453
1761132226990599200,2.50759912109375,12.961930274963379,9.155385971069336,-0.08138418197631836
1761132227000599300,2.517599365234375,8.411188125610352,11.658036231994629,0.7353572845458984
1761132227010598400,2.527598388671875,5.153260231018066,13.558674812316895,1.1285042762756348
1761132227020598500,2.5375986328125,7.074426651000977,13.68490219116211,0.7978098392486572
1761132227030598400,2.547598388671875,11.735257148742676,12.146605491638184,-0.39519762992858887
1761132227040598500,2.5575986328125,16.819530487060547,10.256277084350586,-1.5850245952606201
1761132227050598400,2.567598388671875,19.674224853515625,8.012280464172363,-0.9824709892272949
1761132227060598500,2.5775986328125,18.148488998413086,6.379946708679199,1.4117084741592407
1761132227070598400,2.587598388671875,12.675610542297363,4.621958255767822,4.835646152496338
1761132227080598500,2.5975986328125,6.943365097045898,2.705374240875244,6.956027030944824
1761132227090598400,2.607598388671875,0.9840726852416992,2.2414309978485107,5.322835445404053
1761132227100598500,2.6175986328125,-4.819035530090332,1.2170357704162598,2.9565160274505615
1761132227110599200,2.62759912109375,-8.150382041931152,-0.1387794017791748,0.635356068611145
1761132227120599300,2.637599365234375,-8.712889671325684,-1.4668916463851929,-1.302037000656128
1761132227130599200,2.64759912109375,-7.612024307250977,-2.254629135131836,-2.33817720413208
1761132227140599300,2.657599365234375,-6.372369289398193,-2.674661874771118,-2.658613681793213
1761132227150599200,2.66759912109375,-5.892453670501709,-2.9874470233917236,-1.8207507133483887
1761132227160599300,2.677599365234375,-6.682376384735107,-3.2226762771606445,0.09886234998703003
1761132227170599200,2.68759912109375,-8.398094177246094,-3.337993860244751,1.6071020364761353
1761132227180599300,2.697599365234375,-8.33120059967041,-3.5242981910705566,1.4400544166564941
1761132227190599200,2.70759912109375,-12.978808403015137,-3.3841261863708496,2.5848560333251953
1761132227200599300,2.717599365234375,-14.56796646118164,-3.5689001083374023,1.9596705436706543
1761132227210598400,2.727598388671875,-15.350663185119629,-3.900714635848999,1.0952751636505127
1761132227220598300,2.737598388671875,-15.032278060913086,-4.502584934234619,0.10915413498878479
1761132227230598400,2.747598388671875,-13.819899559020996,-5.098027229309082,-0.9501954317092896
1761132227240598300,2.757598388671875,-12.062435150146484,-5.648431777954102,-1.960310935974121
1761132227250598400,2.767598388671875,-10.488279342651367,-6.053469657897949,-2.4730687141418457
1761132227260598300,2.777598388671875,-9.187575340270996,-6.063458442687988,-2.7563891410827637
1761132227270598400,2.787598388671875,-8.469460487365723,-6.007452011108398,-2.4015045166015625
1761132227280598500,2.7975986328125,-8.744413375854492,-5.94669771194458,-2.0564560890197754
1761132227290598400,2.807598388671875,-9.595312118530273,-5.790661811828613,-1.9383505582809448
1761132227300598500,2.8175986328125,-10.31791877746582,-5.799929618835449,-2.0608091354370117
1761132227310599200,2.82759912109375,-10.653453826904297,-5.963315486907959,-2.1908836364746094
1761132227320599300,2.837599365234375,-10.521257400512695,-6.042372226715088,-2.2706310749053955
1761132227330599200,2.84759912109375,-9.890863418579102,-6.064489841461182,-2.208672523498535
1761132227340599300,2.857599365234375,-9.098137855529785,-6.00719690322876,-1.9755427837371826
1761132227350599200,2.86759912109375,-8.074836730957031,-5.813600063323975,-1.443380355834961
1761132227360599300,2.877599365234375,-6.97055196762085,-5.689914226531982,-0.5712306499481201
1761132227370599200,2.88759912109375,-5.549944877624512,-5.709205150604248,0.16218653321266174
1761132227380599300,2.897599365234375,-5.568467140197754,-5.673382759094238,0.1504194438457489
1761132227390599200,2.90759912109375,-2.380906581878662,-5.364776611328125,0.6652546525001526
1761132227400599300,2.917599365234375,-1.1751112937927246,-5.201857566833496,0.8877093195915222
1761132227410598400,2.927598388671875,-0.3861837387084961,-5.0119218826293945,0.7156323790550232
1761132227420598300,2.937598388671875,0.13579463958740234,-4.494353294372559,-0.3946682810783386
1761132227430598400,2.947598388671875,1.5205516815185547,-3.8293185234069824,-1.4191255569458008
1761132227440598300,2.957598388671875,4.595241546630859,-2.974428415298462,-2.2079074382781982
1761132227450598400,2.967598388671875,8.47796630859375,-1.12839937210083,-2.8902528285980225
1761132227460598300,2.977598388671875,11.977324485778809,1.3300213813781738,-2.415480136871338
1761132227470598400,2.987598388671875,15.294353485107422,4.274385452270508,-0.49676966667175293
1761132227480598300,2.997598388671875,17.656143188476562,6.716441631317139,0.8068832159042358
1761132227490598400,3.007598388671875,19.629737854003906,9.049570083618164,-0.23994803428649902
1761132227500598300,3.017598388671875,21.969337463378906,9.875396728515625,-1.53226637840271
1761132227510599200,3.02759912109375,25.016849517822266,10.173880577087402,-1.7112513780593872
1761132227520599300,3.037599365234375,27.168432235717773,10.392611503601074,-0.6420313119888306
1761132227530599200,3.04759912109375,27.002342224121094,10.499238014221191,0.8431937098503113
1761132227540599300,3.057599365234375,24.371912002563477,10.821621894836426,1.2176599502563477
1761132227550599200,3.06759912109375,20.681438446044922,11.09539794921875,0.979589581489563
1761132227560599300,3.077599365234375,16.427350997924805,10.434224128723145,0.5003129243850708
1761132227570599200,3.08759912109375,11.793201446533203,9.43252182006836,-0.16038212180137634
1761132227580599300,3.097599365234375,9.33556079864502,7.917988300323486,-1.112828254699707
1761132227590599200,3.10759912109375,8.895123481750488,5.741762161254883,-1.985076665878296
1761132227600599300,3.117599365234375,7.646851539611816,4.011364936828613,-2.155813694000244
1761132227610598400,3.127598388671875,5.744877815246582,3.044121503829956,-1.6046923398971558
1761132227620598500,3.1375986328125,4.240751266479492,2.4139950275421143,-0.5563091039657593
1761132227630598400,3.147598388671875,2.3336896896362305,2.1623358726501465,0.40396493673324585
1761132227640598300,3.157598388671875,-0.5841217041015625,1.7154494524002075,1.0525203943252563
1761132227650598400,3.167598388671875,-3.110264301300049,1.4614129066467285,0.9256740808486938
1761132227660598300,3.177598388671875,-5.669210910797119,1.275253415107727,0.7814694046974182
1761132227670598400,3.187598388671875,-8.318338394165039,1.0047844648361206,0.6231763362884521
1761132227680598300,3.197598388671875,-10.301470756530762,0.7548315525054932,0.5097795724868774
1761132227690598400,3.207598388671875,-10.262516021728516,0.5958352088928223,0.5587126016616821
1761132227700598300,3.217598388671875,-11.603042602539062,-0.08916234970092773,0.8346604704856873
1761132227710599200,3.22759912109375,-13.404115676879883,-0.971707820892334,1.587568998336792
1761132227720599300,3.237599365234375,-14.029342651367188,-1.4700467586517334,2.278109073638916
1761132227740599300,3.257599365234375,-14.289873123168945,-2.294907808303833,2.607415199279785
1761132227750599200,3.26759912109375,-13.955936431884766,-2.6446163654327393,2.2895348072052
1761132227760599300,3.277599365234375,-13.11987018585205,-3.219655990600586,1.491165041923523
1761132227770599200,3.28759912109375,-11.964390754699707,-3.8030972480773926,0.4932253956794739
1761132227780599300,3.297599365234375,-10.729488372802734,-4.465093612670898,-0.5335832834243774
1761132227790599200,3.30759912109375,-9.586678504943848,-5.007806777954102,-1.543318271636963
1761132227800599300,3.317599365234375,-8.621037483215332,-5.217857837677002,-2.394214391708374
1761132227810598400,3.327598388671875,-8.017980575561523,-5.324720859527588,-2.686549186706543
1761132227820598500,3.3375986328125,-8.01882553100586,-5.32645845413208,-2.703376293182373
1761132227830598400,3.347598388671875,-7.8408708572387695,-5.323971748352051,-1.9521552324295044
1761132227840598500,3.3575986328125,-7.811809062957764,-5.260169506072998,-1.4389536380767822
1761132227850598400,3.367598388671875,-7.72914457321167,-5.293063163757324,-0.8358826041221619
1761132227860598500,3.3775986328125,-7.95977783203125,-5.29925537109375,-0.4709641933441162
1761132227870598400,3.387598388671875,-8.570303916931152,-5.3050994873046875,-0.3688738942146301
1761132227880598500,3.3975986328125,-9.399767875671387,-5.345913410186768,-0.29922419786453247
1761132227890598400,3.407598388671875,-9.98570728302002,-5.387545108795166,-0.1955704689025879
1761132227900598500,3.4175986328125,-10.259851455688477,-5.584568977355957,-0.241379976272583
1761132227910599200,3.42759912109375,-10.186016082763672,-5.838787078857422,-0.4158663749694824
1761132227920599300,3.437599365234375,-9.783809661865234,-6.111146926879883,-0.4769991636276245
1761132227930599200,3.44759912109375,-8.839126586914062,-6.384552001953125,-0.414814829826355
1761132227940599300,3.457599365234375,-7.896690368652344,-6.449553966522217,-0.41031813621520996
1761132227950599200,3.46759912109375,-6.011404037475586,-5.9153852462768555,-0.9765292406082153
1761132227960599300,3.477599365234375,-3.870455265045166,-4.863631248474121,-1.7602412700653076
1761132227970599200,3.48759912109375,-1.468925952911377,-3.6769144535064697,-1.7821766138076782
1761132227980599300,3.497599365234375,1.018397331237793,-2.9128613471984863,-3.9286608695983887
1761132227990599200,3.50759912109375,1.2501392364501953,-0.8746469020843506,-4.522687911987305
1761132228000599300,3.517599365234375,-0.020997047424316406,3.5642244815826416,-5.491729736328125
1761132228010598400,3.527598388671875,0.08747482299804688,3.509460687637329,-5.165747165679932
1761132228020598500,3.5375986328125,-0.6602630615234375,10.943020820617676,-5.367622375488281
1761132228030598400,3.547598388671875,7.022303581237793,11.910001754760742,-5.023292541503906
1761132228040598500,3.5575986328125,20.680438995361328,9.413888931274414,-2.662116765975952
1761132228050598400,3.567598388671875,36.6272087097168,5.4701080322265625,-2.4853367805480957
1761132228060598500,3.5775986328125,44.42859649658203,4.608651638031006,-5.489450931549072
1761132228070598400,3.587598388671875,45.924560546875,2.5896241664886475,-1.988100528717041
1761132228080598500,3.5975986328125,43.23478698730469,8.222183227539062,0.5848095417022705
1761132228090598400,3.607598388671875,34.167510986328125,12.886381149291992,2.9784607887268066
1761132228100598500,3.6175986328125,23.292491912841797,16.131959915161133,4.878627300262451
1761132228110599400,3.627599365234375,23.274686813354492,16.17764663696289,4.821621417999268
1761132228120599300,3.637599365234375,14.587725639343262,14.476310729980469,3.9542734622955322
1761132228130599200,3.64759912109375,16.628192901611328,10.492000579833984,3.3591582775115967
1761132228140599300,3.657599365234375,17.929542541503906,7.238834381103516,3.3279340267181396
1761132228150599200,3.66759912109375,16.47041893005371,4.717336177825928,3.4427883625030518
1761132228160599300,3.677599365234375,10.748902320861816,1.7310106754302979,1.4819605350494385
1761132228170599200,3.68759912109375,10.744678497314453,1.6736962795257568,1.3463668823242188
1761132228180599300,3.697599365234375,-2.470533847808838,-1.5870332717895508,-4.495211124420166
1761132228190599200,3.70759912109375,-6.161919116973877,-2.37807035446167,-5.825955867767334
1761132228200599300,3.717599365234375,-8.149916648864746,-2.790503978729248,-5.433390140533447
1761132228210598400,3.727598388671875,-9.03638744354248,-3.3053784370422363,-3.672377824783325
1761132228220598300,3.737598388671875,-10.167415618896484,-4.039944648742676,-1.3756468296051025
1761132228230598400,3.747598388671875,-11.737476348876953,-4.519517421722412,-0.05268096923828125
1761132228240598300,3.757598388671875,-13.527473449707031,-5.067787170410156,0.7810739278793335
1761132228250598400,3.767598388671875,-15.17550277709961,-5.348151206970215,1.6837117671966553
1761132228260598300,3.777598388671875,-16.34322166442871,-5.749582290649414,2.3054118156433105
1761132228270598400,3.787598388671875,-17.194271087646484,-6.045328617095947,1.8280810117721558
1761132228280598300,3.797598388671875,-17.173295974731445,-6.349905014038086,0.5044859051704407
1761132228290598400,3.807598388671875,-15.755578994750977,-6.905938148498535,-0.5503249168395996
1761132228300598300,3.817598388671875,-13.273603439331055,-7.43010950088501,-1.4926261901855469
1761132228310599200,3.82759912109375,-10.71584415435791,-7.907882213592529,-2.5575268268585205
1761132228320599300,3.837599365234375,-9.185120582580566,-8.297815322875977,-3.0538806915283203
1761132228330599200,3.84759912109375,-8.791630744934082,-8.436553001403809,-2.764935255050659
1761132228340599300,3.857599365234375,-9.578076362609863,-8.192174911499023,-1.960433840751648
1761132228350599200,3.86759912109375,-10.856908798217773,-7.965912342071533,-1.3397736549377441
1761132228360599300,3.877599365234375,-12.250587463378906,-7.916625022888184,-0.7047222852706909
1761132228370599200,3.88759912109375,-13.279338836669922,-8.011117935180664,0.1253565549850464
1761132228380599300,3.897599365234375,-14.774185180664062,-8.501307487487793,-0.26410233974456787
1761132228390599200,3.90759912109375,-15.162191390991211,-7.832895278930664,0.0088881254196167
1761132228400599300,3.917599365234375,-14.25906753540039,-8.070806503295898,0.30989789962768555
1761132228410598400,3.927598388671875,-12.953632354736328,-7.811269283294678,0.8264039158821106
1761132228420598300,3.937598388671875,-11.803740501403809,-8.08686637878418,0.19067621231079102
1761132228430598400,3.947598388671875,-10.820463180541992,-7.773468017578125,0.24039161205291748
1761132228440598300,3.957598388671875,-10.146587371826172,-7.523577690124512,0.8692716956138611
1761132228450598400,3.967598388671875,-9.678985595703125,-7.254261016845703,0.5797778367996216
1761132228460598300,3.977598388671875,-9.70492935180664,-7.179363250732422,0.6200450658798218
1761132228470598400,3.987598388671875,-8.241456031799316,-6.762265205383301,0.1993253231048584
1761132228480598300,3.997598388671875,-6.53068733215332,-5.871243953704834,-0.7875878810882568
1761132228490598400,4.007598388671875,-4.780378818511963,-4.989772796630859,-0.5162720680236816
1761132228500598300,4.017598388671875,-2.490387439727783,-4.082706928253174,0.5246129035949707
1761132228510599200,4.02759912109375,0.2545194625854492,-2.1481614112854004,1.118298888206482
1761132228520599300,4.037599365234375,2.7534027099609375,-0.2818741798400879,0.6709362268447876
1761132228530599200,4.04759912109375,5.220440864562988,2.233407735824585,-1.8529467582702637
1761132228540599300,4.057599365234375,8.741016387939453,4.461743354797363,-5.791769981384277
1761132228550599200,4.06759912109375,14.570099830627441,7.1689019203186035,-9.603544235229492
1761132228560599300,4.077599365234375,23.49626922607422,9.588984489440918,-11.720952987670898
1761132228570599200,4.08759912109375,35.21327209472656,11.7232666015625,-11.337751388549805
1761132228580599300,4.097599365234375,43.10623550415039,12.873931884765625,-9.663744926452637
1761132228590599200,4.10759912109375,49.30024337768555,14.20059585571289,-6.569286823272705
1761132228600599300,4.117599365234375,50.13113021850586,15.359723091125488,-0.317163348197937
1761132228610598400,4.127598388671875,44.92839050292969,17.43638038635254,5.1277923583984375
1761132228620598500,4.1375986328125,35.07869338989258,19.744787216186523,8.009337425231934
1761132228630598400,4.147598388671875,22.354290008544922,19.710647583007812,9.550439834594727
1761132228640598500,4.1575986328125,13.253434181213379,17.152463912963867,8.60445499420166
1761132228650598400,4.167598388671875,7.505090713500977,14.261347770690918,5.665726184844971
1761132228660598500,4.1775986328125,4.745275497436523,11.383169174194336,3.0784056186676025
1761132228670598400,4.187598388671875,3.633620262145996,8.196087837219238,0.5177826881408691
1761132228680598500,4.1975986328125,2.5412330627441406,4.195363998413086,-1.4800240993499756
1761132228690598400,4.207598388671875,2.676913261413574,1.053372859954834,-2.5996193885803223
1761132228700598500,4.2175986328125,1.9251070022583008,-1.3649073839187622,-2.469494581222534
1761132228710599200,4.22759912109375,-0.5534896850585938,-3.1118345260620117,-2.201375722885132
1761132228720599300,4.237599365234375,-3.726433753967285,-4.40457820892334,-2.193301200866699
1761132228730599400,4.247599365234375,-7.148286819458008,-6.076667785644531,-1.7660703659057617
1761132228740599300,4.257599365234375,-10.931553840637207,-7.411945343017578,-2.049858331680298
1761132228750599400,4.267599365234375,-13.381502151489258,-8.267328262329102,-2.9317843914031982
1761132228760599300,4.277599365234375,-14.659038543701172,-8.998268127441406,-3.2714035511016846
1761132228770599400,4.287599365234375,-15.270861625671387,-8.795551300048828,-2.5452795028686523
1761132228780599300,4.297599365234375,-15.6743803024292,-9.190544128417969,-1.1720701456069946
1761132228790599400,4.307599365234375,-16.13880157470703,-8.724418640136719,0.770520031452179
1761132228800599300,4.317599365234375,-17.385265350341797,-8.630155563354492,3.215278387069702
1761132228820598500,4.3375986328125,-19.87268829345703,-8.072277069091797,4.544336318969727
1761132228830598400,4.347598388671875,-20.125154495239258,-8.022249221801758,4.331168174743652
1761132228840598500,4.3575986328125,-19.27603530883789,-8.033123970031738,3.646644115447998
1761132228850598400,4.367598388671875,-17.535358428955078,-8.394105911254883,2.73909330368042
1761132228860598500,4.3775986328125,-15.08562183380127,-8.968345642089844,1.416393756866455
1761132228870598400,4.387598388671875,-12.606185913085938,-9.169952392578125,0.0456768274307251
1761132228880598500,4.3975986328125,-10.383251190185547,-9.289228439331055,-1.0576462745666504
1761132228890598400,4.407598388671875,-8.674030303955078,-9.177679061889648,-1.914045810699463
1761132228900598500,4.4175986328125,-7.751342296600342,-8.929765701293945,-2.091856002807617
1761132228910599200,4.42759912109375,-7.7354631423950195,-8.503235816955566,-1.625370740890503
1761132228920599300,4.437599365234375,-8.475861549377441,-7.912522315979004,-1.0450655221939087
1761132228930599200,4.44759912109375,-9.091767311096191,-7.376240253448486,-0.6362830400466919
1761132228940599300,4.457599365234375,-9.434918403625488,-6.763260841369629,-0.2880028486251831
1761132228950599200,4.46759912109375,-9.379554748535156,-6.293423175811768,-0.009862780570983887
1761132228960599300,4.477599365234375,-8.864978790283203,-5.775319576263428,0.2581213712692261
1761132228970599200,4.48759912109375,-8.0021390914917,-5.30363130569458,0.21704411506652832
1761132228980599300,4.497599365234375,-6.74477481842041,-4.814560890197754,-0.012155294418334961
1761132228990599200,4.50759912109375,-5.201932430267334,-4.277272701263428,-0.17383503913879395
1761132229000599300,4.517599365234375,-3.274144172668457,-3.500999689102173,0.1126171350479126
1761132229010598400,4.527598388671875,-1.1426687240600586,-2.5764787197113037,1.1758756637573242
1761132229020598300,4.537598388671875,-1.1871023178100586,-2.4505560398101807,1.1321320533752441
1761132229030598400,4.547598388671875,3.6247177124023438,-0.6887717247009277,1.6228994131088257
1761132229040598300,4.557598388671875,5.974303245544434,-0.18349575996398926,0.30220264196395874
1761132229050598400,4.567598388671875,8.566910743713379,0.9326300621032715,-1.0424351692199707
1761132229060598300,4.577598388671875,9.48112678527832,2.3165793418884277,-1.563781499862671
1761132229070598400,4.587598388671875,7.879487037658691,4.939891815185547,-2.2915427684783936
1761132229080598300,4.597598388671875,5.881899833679199,8.38989543914795,-3.7013349533081055
1761132229090598400,4.607598388671875,6.329023361206055,11.571796417236328,-5.507556438446045
1761132229100598300,4.617598388671875,10.764632225036621,12.92318058013916,-6.83715295791626
1761132229110599200,4.62759912109375,19.598556518554688,12.714322090148926,-8.043501853942871
1761132229120599300,4.637599365234375,31.333213806152344,11.156200408935547,-7.611536502838135
1761132229130599200,4.64759912109375,42.71457290649414,11.131074905395508,-5.857199668884277
1761132229140599300,4.657599365234375,48.317466735839844,8.902913093566895,-1.07182776927948
1761132229150599200,4.66759912109375,47.232330322265625,9.523258209228516,4.983557224273682
1761132229160599300,4.677599365234375,41.17735290527344,8.103325843811035,15.794994354248047
1761132229170599200,4.68759912109375,33.714561462402344,12.830118179321289,16.23282814025879
1761132229180599300,4.697599365234375,22.02179527282715,13.530506134033203,14.37403678894043
1761132229190599200,4.70759912109375,11.444911003112793,12.262666702270508,11.892622947692871
1761132229200599300,4.717599365234375,5.686062812805176,9.860584259033203,7.241159915924072
1761132229210598400,4.727598388671875,3.691385269165039,5.100315570831299,3.258906126022339
1761132229220598300,4.737598388671875,3.078035354614258,1.5232516527175903,-0.45589861273765564
1761132229230598400,4.747598388671875,1.1630592346191406,-0.9018502235412598,-3.599027156829834
1761132229240598300,4.757598388671875,-1.378188133239746,-2.5782275199890137,-5.678992748260498
1761132229250598400,4.767598388671875,-4.017395973205566,-3.856383800506592,-5.925344467163086
1761132229260598300,4.777598388671875,-7.215842247009277,-4.855378150939941,-4.354362964630127
1761132229270598400,4.787598388671875,-10.349196434020996,-5.249200344085693,-2.276637315750122
1761132229280598300,4.797598388671875,-13.343053817749023,-6.212001323699951,-0.6613086462020874
1761132229290598400,4.807598388671875,-15.372467041015625,-6.184925079345703,-0.6036995649337769
1761132229300598300,4.817598388671875,-16.833370208740234,-7.121002197265625,-0.3874392807483673
1761132229310599200,4.82759912109375,-17.29913330078125,-7.720041275024414,0.4922841787338257
1761132229320599300,4.837599365234375,-16.559507369995117,-7.560352325439453,-0.21858251094818115
1761132229330599200,4.84759912109375,-16.438600540161133,-8.807835578918457,-0.03799712657928467
1761132229340599300,4.857599365234375,-16.373291015625,-8.944043159484863,0.006842970848083496
1761132229350599200,4.86759912109375,-15.539913177490234,-8.268086433410645,-1.4567338228225708
1761132229360599300,4.877599365234375,-14.915014266967773,-8.358150482177734,-1.2060449123382568
1761132229370599200,4.88759912109375,-14.289263725280762,-8.687967300415039,-1.336161494255066
1761132229380599300,4.897599365234375,-13.5872163772583,-8.478066444396973,-1.5340490341186523
1761132229390599200,4.90759912109375,-12.89194107055664,-8.54425048828125,-1.8129905462265015
1761132229400599300,4.917599365234375,-12.118032455444336,-8.482160568237305,-1.8172575235366821
1761132229410598400,4.927598388671875,-11.19771671295166,-8.400568962097168,-1.7733690738677979
1761132229420598300,4.937598388671875,-10.24551010131836,-8.290587425231934,-1.4932734966278076
1761132229430598400,4.947598388671875,-9.429696083068848,-8.17666244506836,-1.0067119598388672
1761132229440598300,4.957598388671875,-8.726347923278809,-8.022171020507812,-0.5013413429260254
1761132229450598400,4.967598388671875,-8.353442192077637,-7.883714199066162,-0.32529085874557495
1761132229460598300,4.977598388671875,-8.136666297912598,-7.791081428527832,-0.24304793775081635
1761132229470598400,4.987598388671875,-8.213889122009277,-7.736422538757324,-0.39783933758735657
1761132229480598300,4.997598388671875,-8.321626663208008,-7.55218505859375,-1.0505034923553467
1761132229490598400,5.007598388671875,-7.773555278778076,-6.987367630004883,-1.204842448234558
1761132229500598300,5.017598388671875,-7.019735813140869,-6.4244279861450195,-0.9125047922134399
1761132229510599200,5.02759912109375,-6.097882270812988,-5.646390438079834,-0.5711587071418762
1761132229520599300,5.037599365234375,-4.590272426605225,-4.550152778625488,-0.17844495177268982
1761132229530599200,5.04759912109375,-2.5809426307678223,-3.4153380393981934,0.33619773387908936
1761132229540599000,5.05759912109375,-0.0048961639404296875,-2.33054780960083,0.5980522632598877
1761132229550599200,5.06759912109375,3.083237648010254,-1.296433925628662,0.425729364156723
1761132229560599000,5.07759912109375,5.229510307312012,-0.08769655227661133,0.09193149209022522
1761132229570599200,5.08759912109375,5.208160400390625,-0.02985215187072754,0.13541224598884583
1761132229580599300,5.097599365234375,5.8906145095825195,2.2262487411499023,-0.7164441347122192
1761132229590599200,5.10759912109375,6.4914703369140625,9.48894214630127,-2.723849296569824
1761132229600599300,5.117599365234375,10.488587379455566,12.480920791625977,-3.2571146488189697
1761132229610598400,5.127598388671875,16.660799026489258,13.967758178710938,-3.3650565147399902
1761132229620598300,5.137598388671875,24.73995590209961,14.428709030151367,-2.2350807189941406
1761132229630598400,5.147598388671875,31.268428802490234,14.436531066894531,-0.5775177478790283
1761132229640598300,5.157598388671875,37.05876541137695,13.652913093566895,0.8199795484542847
1761132229650598400,5.167598388671875,41.714111328125,12.54729175567627,2.77728533744812
1761132229660598300,5.177598388671875,41.93720245361328,10.78128719329834,6.8928351402282715
1761132229670598400,5.187598388671875,36.07778549194336,11.936402320861816,9.11678695678711
1761132229680598300,5.197598388671875,26.056133270263672,12.967618942260742,8.604353904724121
1761132229690598400,5.207598388671875,16.86893653869629,12.632822036743164,7.205575942993164
1761132229700598300,5.217598388671875,9.023762702941895,11.138202667236328,6.236705780029297
1761132229710599200,5.22759912109375,3.705080032348633,8.43181324005127,5.680479049682617
1761132229730599200,5.24759912109375,1.2352285385131836,1.7765638828277588,1.8100042343139648
1761132229750599200,5.26759912109375,-2.875542640686035,-2.939319372177124,-3.052844762802124
1761132229760599300,5.277599365234375,-5.823268413543701,-4.182044506072998,-4.294025897979736
1761132229770599200,5.28759912109375,-8.410555839538574,-4.8289384841918945,-4.40975284576416
1761132229780599300,5.297599365234375,-10.709802627563477,-5.283759117126465,-3.4861836433410645
1761132229790599200,5.30759912109375,-12.449518203735352,-5.703873157501221,-2.149679183959961
1761132229800599300,5.317599365234375,-13.951932907104492,-6.215775489807129,-1.4337913990020752
1761132229810598400,5.327598388671875,-15.107645034790039,-6.69046688079834,-0.8932625651359558
1761132229820598300,5.337598388671875,-16.381729125976562,-7.616986274719238,-0.3327893018722534
1761132229830598400,5.347598388671875,-17.240894317626953,-7.845715522766113,-1.2368967533111572
1761132229840598500,5.3575986328125,-17.899452209472656,-8.051639556884766,-1.2930958271026611
1761132229850598400,5.367598388671875,-17.987812042236328,-8.575218200683594,-1.3358761072158813
1761132229860598500,5.3775986328125,-17.89675521850586,-8.712730407714844,-1.3866565227508545
1761132229870598400,5.387598388671875,-16.270427703857422,-8.536335945129395,-0.4149962067604065
1761132229880598300,5.397598388671875,-14.911953926086426,-8.59842586517334,-0.23935383558273315
1761132229890598400,5.407598388671875,-13.70905876159668,-8.780678749084473,-0.8980720639228821
1761132229900598300,5.417598388671875,-12.376723289489746,-9.159915924072266,-2.213442325592041
1761132229910599200,5.42759912109375,-11.123842239379883,-9.476890563964844,-3.8303582668304443
1761132229920599300,5.437599365234375,-9.940751075744629,-9.743868827819824,-5.213693618774414
1761132229930599200,5.44759912109375,-9.005821228027344,-9.769774436950684,-5.89890718460083
1761132229940599300,5.457599365234375,-8.308674812316895,-9.659185409545898,-5.815550804138184
1761132229950599200,5.46759912109375,-7.852706432342529,-9.417818069458008,-5.1624979972839355
1761132229960599300,5.477599365234375,-7.711156368255615,-9.011571884155273,-4.247267723083496
1761132229970599200,5.48759912109375,-7.799688339233398,-8.701517105102539,-3.6070845127105713
1761132229980599000,5.49759912109375,-7.9608049392700195,-8.511396408081055,-3.35091495513916
1761132229990599200,5.50759912109375,-7.920440673828125,-8.293241500854492,-3.2818408012390137
1761132230000599000,5.51759912109375,-7.656494140625,-7.888423919677734,-3.062023639678955
1761132230010598400,5.527598388671875,-7.504817962646484,-7.497250556945801,-2.522082805633545
1761132230020598300,5.537598388671875,-7.259234428405762,-6.916624069213867,-2.0498359203338623
1761132230030598400,5.547598388671875,-6.583131790161133,-6.1754584312438965,-1.8232861757278442
1761132230040598300,5.557598388671875,-5.309893608093262,-5.288430213928223,-1.5502939224243164
1761132230050598400,5.567598388671875,-3.1692657470703125,-4.185726165771484,-1.4219460487365723
1761132230060598300,5.577598388671875,-0.460540771484375,-3.013247013092041,-0.8060691952705383
1761132230070598400,5.587598388671875,3.3844661712646484,-1.8207613229751587,0.3539249300956726
1761132230080598300,5.597598388671875,5.781069755554199,-0.2612800598144531,1.0970497131347656
1761132230090598400,5.607598388671875,6.141729354858398,2.1586709022521973,0.3870409429073334
1761132230100598300,5.617598388671875,5.704057693481445,5.2918701171875,-1.4922714233398438
1761132230110599200,5.62759912109375,6.439755439758301,8.28699016571045,-3.996760606765747
1761132230120599300,5.637599365234375,11.636232376098633,11.035249710083008,-5.49895715713501
1761132230130599200,5.64759912109375,22.18716812133789,13.297430038452148,-4.052795886993408
1761132230140599300,5.657599365234375,33.07349395751953,12.770237922668457,1.1620378494262695
1761132230150599200,5.66759912109375,45.176639556884766,11.827802658081055,7.393258094787598
1761132230160599300,5.677599365234375,51.10456085205078,12.608654022216797,8.755931854248047
1761132230170599200,5.68759912109375,46.49039077758789,8.583984375,14.496417999267578
1761132230180599300,5.697599365234375,38.78749465942383,12.926891326904297,14.499429702758789
1761132230190599200,5.70759912109375,23.528465270996094,15.024935722351074,10.758269309997559
1761132230200599300,5.717599365234375,10.957091331481934,14.115621566772461,8.767305374145508
1761132230210598400,5.727598388671875,1.9952516555786133,11.382682800292969,7.158661842346191
1761132230220598300,5.737598388671875,-1.4941062927246094,7.489690780639648,6.885823726654053
1761132230230598400,5.747598388671875,2.344273567199707,5.175213813781738,5.873684406280518
1761132230240598300,5.757598388671875,8.601137161254883,2.7611536979675293,2.7510743141174316
1761132230250598400,5.767598388671875,12.12259292602539,-0.2662760615348816,-1.4339392185211182
1761132230260598300,5.777598388671875,10.746787071228027,-1.6839680671691895,-4.47922420501709
1761132230270598400,5.787598388671875,5.724053382873535,-2.234589099884033,-6.3396077156066895
1761132230280598300,5.797598388671875,-0.8525075912475586,-1.9559611082077026,-6.462154865264893
1761132230290598400,5.807598388671875,-6.839921951293945,-1.4495372772216797,-5.273162841796875
1761132230300598300,5.817598388671875,-11.682866096496582,-1.222486972808838,-3.2339041233062744
1761132230310599200,5.82759912109375,-15.420675277709961,-1.533612608909607,-1.4705991744995117
1761132230320599300,5.837599365234375,-17.118661880493164,-1.8954803943634033,-0.30220097303390503
1761132230330599200,5.84759912109375,-17.139503479003906,-2.3111190795898438,0.5369464755058289
1761132230340599300,5.857599365234375,-16.313613891601562,-2.762267589569092,0.7535043954849243
1761132230350599200,5.86759912109375,-15.515953063964844,-3.5820648670196533,0.5500574111938477
1761132230370599200,5.88759912109375,-14.473745346069336,-4.539936542510986,-1.1717321872711182
1761132230380599300,5.897599365234375,-14.548662185668945,-4.754971027374268,-0.8692026138305664
1761132230390599200,5.90759912109375,-14.828035354614258,-4.861176490783691,-0.5844831466674805
1761132230400599300,5.917599365234375,-14.838125228881836,-4.708712577819824,-1.369835376739502
1761132230410598400,5.927598388671875,-14.991597175598145,-5.5813751220703125,-1.2805712223052979
1761132230420598300,5.937598388671875,-14.255401611328125,-6.055370330810547,-2.15185546875
1761132230430598400,5.947598388671875,-13.410078048706055,-6.566154479980469,-2.65934419631958
1761132230440598300,5.957598388671875,-12.478228569030762,-6.889612197875977,-3.2503342628479004
1761132230450598400,5.967598388671875,-11.496612548828125,-6.779799461364746,-3.5071325302124023
1761132230460598300,5.977598388671875,-10.833733558654785,-6.723323822021484,-3.34942889213562
1761132230470598400,5.987598388671875,-10.376693725585938,-6.446606636047363,-3.0139641761779785
1761132230480598300,5.997598388671875,-9.725977897644043,-6.146222114562988,-2.6191835403442383
1761132230490598400,6.007598388671875,-8.911781311035156,-6.104084014892578,-2.5511090755462646
1761132230500598300,6.017598388671875,-8.294163703918457,-6.070407390594482,-2.7875266075134277
1761132230510599200,6.02759912109375,-8.378660202026367,-5.932259559631348,-2.917085886001587
1761132230520599300,6.037599365234375,-9.326723098754883,-5.7446184158325195,-3.0299413204193115
1761132230530599200,6.04759912109375,-9.44959545135498,-5.443920612335205,-3.2013022899627686
1761132230540599300,6.057599365234375,-8.268346786499023,-4.870028018951416,-2.1848626136779785
1761132230550599200,6.06759912109375,-6.590190410614014,-4.046075344085693,-0.8962531089782715
1761132230560599300,6.077599365234375,-4.617406845092773,-3.227034091949463,0.8839911818504333
1761132230570599200,6.08759912109375,-1.5964117050170898,-2.1795356273651123,2.3738656044006348
1761132230580599300,6.097599365234375,1.415374755859375,-0.7194764614105225,3.7762646675109863
1761132230590599200,6.10759912109375,4.253803253173828,0.8225712776184082,3.989863872528076
1761132230600599300,6.117599365234375,7.102602005004883,2.038473129272461,2.9082326889038086
1761132230610598400,6.127598388671875,10.784026145935059,3.939077854156494,0.7512180805206299
1761132230620598500,6.1375986328125,14.945788383483887,6.600493431091309,-1.4007983207702637
1761132230630598400,6.147598388671875,19.71161651611328,9.430377960205078,-2.5546865463256836
1761132230640598500,6.1575986328125,26.217981338500977,12.078874588012695,-2.9483089447021484
1761132230650598400,6.167598388671875,31.940547943115234,13.769076347351074,-2.606358528137207
1761132230660598500,6.1775986328125,36.5325927734375,14.145284652709961,-1.2853035926818848
1761132230670598400,6.187598388671875,40.33062744140625,13.73750114440918,0.7342054843902588
1761132230680598500,6.1975986328125,42.88054656982422,12.604164123535156,5.54171085357666
1761132230690598400,6.207598388671875,41.69926452636719,11.535150527954102,11.600690841674805
1761132230700598500,6.2175986328125,36.137237548828125,11.585904121398926,14.760873794555664
1761132230710599200,6.22759912109375,26.514930725097656,12.2769775390625,14.874092102050781
1761132230720599300,6.237599365234375,18.119384765625,11.803885459899902,12.86342716217041
1761132230730599400,6.247599365234375,11.168481826782227,10.33458423614502,9.679243087768555
1761132230740599300,6.257599365234375,5.048244476318359,8.282262802124023,6.23917293548584
1761132230750599400,6.267599365234375,0.0036487579345703125,5.857104301452637,3.2171921730041504
1761132230760599300,6.277599365234375,-3.3773508071899414,2.9195656776428223,0.7107923030853271
1761132230770599200,6.28759912109375,-4.638562202453613,-0.17588567733764648,-1.6620872020721436
1761132230780599300,6.297599365234375,-4.572244644165039,-2.7268879413604736,-2.745076894760132
1761132230790599200,6.30759912109375,-5.059967041015625,-4.604366302490234,-2.8050129413604736
1761132230800599300,6.317599365234375,-6.311616897583008,-5.952012538909912,-2.199671506881714
1761132230810598400,6.327598388671875,-8.06544303894043,-6.694482803344727,-1.4754996299743652
1761132230820598500,6.3375986328125,-9.934537887573242,-7.240818500518799,-0.9784988164901733
1761132230830598400,6.347598388671875,-12.07252025604248,-7.8038330078125,-0.559141993522644
1761132230840598500,6.3575986328125,-13.806232452392578,-7.979933738708496,-0.2827427387237549
1761132230850598400,6.367598388671875,-15.736268997192383,-8.290414810180664,-0.24889540672302246
1761132230860598500,6.3775986328125,-17.422649383544922,-8.457672119140625,-0.4666323661804199
1761132230870598400,6.387598388671875,-18.514854431152344,-8.472949981689453,-0.9605627059936523
1761132230880598500,6.3975986328125,-19.013206481933594,-8.633882522583008,-1.102364420890808
1761132230890598400,6.407598388671875,-18.230379104614258,-8.632715225219727,-0.8080986738204956
1761132230900598300,6.417598388671875,-16.115863800048828,-8.763731956481934,-0.4807620048522949
1761132230910599200,6.42759912109375,-16.070838928222656,-8.827860832214355,-0.4565267562866211
1761132230920599000,6.43759912109375,-13.65017318725586,-8.951607704162598,-0.7028734683990479
1761132230930599200,6.44759912109375,-9.422285079956055,-9.370076179504395,-1.9144288301467896
1761132230940599000,6.45759912109375,-7.897847652435303,-9.197725296020508,-2.600583076477051
1761132230950599200,6.46759912109375,-7.41555643081665,-9.042579650878906,-2.672166347503662
1761132230960599000,6.47759912109375,-7.719976902008057,-8.851292610168457,-2.4390830993652344
1761132230970599200,6.48759912109375,-7.741304397583008,-8.863019943237305,-2.315460681915283
1761132230980599000,6.49759912109375,-7.281507968902588,-8.099380493164062,-2.0225722789764404
1761132230990599200,6.50759912109375,-5.5221967697143555,-8.525020599365234,-0.28788554668426514
1761132231000599000,6.51759912109375,-4.576203346252441,-7.37637996673584,0.23231208324432373
1761132231010598400,6.527598388671875,-4.544854164123535,-7.46317195892334,0.492464542388916
1761132231020598300,6.537598388671875,-6.454191207885742,-6.680502891540527,-0.5279986262321472
1761132231030598400,6.547598388671875,-6.643733978271484,-6.510560512542725,-1.0432451963424683
1761132231040598300,6.557598388671875,-6.547678470611572,-6.629985332489014,-0.8817799091339111
1761132231050598400,6.567598388671875,-6.818563938140869,-6.073934078216553,-1.3420026302337646
1761132231060598300,6.577598388671875,-6.521418571472168,-5.641829490661621,-2.151487350463867
1761132231070598400,6.587598388671875,-5.648651123046875,-4.668100357055664,-2.8016233444213867
1761132231080598300,6.597598388671875,-2.8670754432678223,-3.986971855163574,-2.6731245517730713
1761132231090598400,6.607598388671875,-0.3931283950805664,-3.483834981918335,-2.308014154434204
1761132231100598300,6.617598388671875,-1.2731704711914062,-1.982926845550537,-3.0459957122802734
1761132231110599200,6.62759912109375,-2.236499786376953,-1.6776471138000488,-2.8066608905792236
1761132231120599300,6.637599365234375,-0.1263141632080078,0.7653932571411133,-4.072327613830566
1761132231130599200,6.64759912109375,1.948289394378662,3.7218403816223145,-3.439908981323242
1761132231140599300,6.657599365234375,4.241995811462402,6.033397674560547,-1.626657247543335
1761132231150599200,6.66759912109375,5.89988899230957,7.7749223709106445,-1.0425140857696533
1761132231160599300,6.677599365234375,6.621066570281982,7.934136390686035,-0.46710488200187683
1761132231170599200,6.68759912109375,6.540046215057373,8.028766632080078,-0.5574566125869751
1761132231180599300,6.697599365234375,8.145597457885742,6.338812828063965,0.8009060025215149
1761132231190599200,6.70759912109375,10.249696731567383,5.4637298583984375,0.762126624584198
1761132231200599300,6.717599365234375,11.743398666381836,3.092014789581299,1.3054816722869873
1761132231210598400,6.727598388671875,12.362282752990723,1.1740145683288574,1.2965632677078247
1761132231220598300,6.737598388671875,13.14505386352539,0.6478438377380371,0.7516692876815796
1761132231230598400,6.747598388671875,13.747964859008789,0.9045734405517578,-0.5378751754760742
1761132231240598300,6.757598388671875,13.048483848571777,1.2871217727661133,-1.3801164627075195
1761132231250598400,6.767598388671875,12.890251159667969,1.5278000831604004,-1.3354284763336182
1761132231260598300,6.777598388671875,11.00445556640625,2.2119579315185547,-0.6569444537162781
1761132231270598400,6.787598388671875,8.838555335998535,2.586244583129883,1.1978214979171753
1761132231280598300,6.797598388671875,6.630494117736816,3.0353050231933594,2.4900004863739014
1761132231290598400,6.807598388671875,4.478420257568359,3.3374838829040527,3.253594398498535
1761132231300598300,6.817598388671875,3.310410499572754,3.4167041778564453,3.1590802669525146
1761132231310599200,6.82759912109375,2.2878236770629883,3.176464080810547,2.6197915077209473
1761132231320599300,6.837599365234375,1.2012815475463867,2.740975856781006,1.8288519382476807
1761132231330599200,6.84759912109375,0.05134010314941406,2.2518529891967773,1.1598138809204102
1761132231340599300,6.857599365234375,-0.5373001098632812,1.9731831550598145,0.4178128242492676
1761132231350599200,6.86759912109375,-0.19954490661621094,1.8977136611938477,-0.33736562728881836
1761132231360599300,6.877599365234375,0.2154064178466797,1.5039551258087158,-0.741668701171875
1761132231370599200,6.88759912109375,0.5728092193603516,1.1687219142913818,-1.2844840288162231
1761132231380599300,6.897599365234375,0.7909221649169922,0.9434471130371094,-1.7467727661132812
1761132231390599200,6.90759912109375,0.4205951690673828,0.5028653144836426,-1.8369390964508057
1761132231400599300,6.917599365234375,-0.4665670394897461,-0.019009828567504883,-1.7370697259902954
1761132231410598400,6.927598388671875,-1.2182903289794922,-0.18602871894836426,-1.5554659366607666
1761132231420598300,6.937598388671875,-2.010035514831543,-0.30167126655578613,-1.2373676300048828
1761132231430598400,6.947598388671875,-1.964395523071289,-0.3880040645599365,-1.2556729316711426
1761132231440598300,6.957598388671875,-2.898057460784912,-0.4619152545928955,-0.8469394445419312
1761132231450598400,6.967598388671875,-2.7714052200317383,-0.46442127227783203,-0.6729609966278076
1761132231460598300,6.977598388671875,-2.664473533630371,-0.5892062187194824,-0.6135282516479492
1761132231470598400,6.987598388671875,-2.627500534057617,-0.6757230758666992,-0.578596830368042
1761132231480598300,6.997598388671875,-2.2516956329345703,-0.6587142944335938,-1.1821614503860474
1761132231490598400,7.007598388671875,-2.2856783866882324,-0.5095152854919434,-1.5545969009399414
1761132231500598300,7.017598388671875,-2.256709575653076,-0.5937962532043457,-1.4746382236480713
1761132231510599200,7.02759912109375,-2.8706417083740234,-0.0061626434326171875,-1.8456494808197021
1761132231520599300,7.037599365234375,-2.843722343444824,-0.09047746658325195,-1.7382599115371704
1761132231530599200,7.04759912109375,-3.3431878089904785,0.14754438400268555,-1.5384492874145508
1761132231540599300,7.057599365234375,-2.9972143173217773,0.08991384506225586,-1.266417145729065
1761132231550599200,7.06759912109375,-2.297334671020508,-0.046866416931152344,-1.0043041706085205
1761132231560599300,7.077599365234375,-1.2477660179138184,-0.3489384651184082,-0.6317035555839539
1761132231570599200,7.08759912109375,0.0945119857788086,-0.6850423812866211,-0.27958059310913086
1761132231580599300,7.097599365234375,1.3137178421020508,-0.8763628005981445,0.013370633125305176
1761132231590599200,7.10759912109375,1.8617210388183594,-0.9656381607055664,-0.2954806089401245
1761132231600599300,7.117599365234375,2.0294103622436523,-0.9692301750183105,-1.0971449613571167
1761132231620598500,7.1375986328125,1.8400793075561523,-0.32772397994995117,-2.3658671379089355
1761132231630598400,7.147598388671875,1.830373764038086,0.11053037643432617,-2.4668164253234863
1761132231640598500,7.1575986328125,1.7553491592407227,0.36077022552490234,-2.56223464012146
1761132231650598400,7.167598388671875,1.6371688842773438,0.4120316505432129,-2.5207266807556152
1761132231660598300,7.177598388671875,1.587477684020996,0.28063058853149414,-2.556804656982422
1761132231670598400,7.187598388671875,1.478684425354004,0.11467885971069336,-2.4480230808258057
1761132231680598300,7.197598388671875,1.2105207443237305,-0.11386537551879883,-1.943708896636963
1761132231690598400,7.207598388671875,0.6246414184570312,-0.3614158630371094,-1.297518253326416
1761132231700598300,7.217598388671875,0.2339315414428711,-0.43854284286499023,-0.6242454051971436
1761132231710599200,7.22759912109375,-0.07193756103515625,-0.21938180923461914,-0.11486834287643433
1761132231720599300,7.237599365234375,-0.4183769226074219,-0.40125226974487305,0.15371203422546387
1761132231730599200,7.24759912109375,-0.4176034927368164,-0.40606689453125,0.18003946542739868
1761132231740599300,7.257599365234375,-1.0728440284729004,-0.4699239730834961,-0.18748128414154053
1761132231750599200,7.26759912109375,-0.8964447975158691,-0.6395716667175293,-0.5020499229431152
1761132231760599300,7.277599365234375,-0.8411679267883301,-0.6610512733459473,-0.9373196363449097
1761132231770599200,7.28759912109375,-1.085822582244873,-0.4278116226196289,-1.814356803894043
1761132231780599300,7.297599365234375,-1.5832877159118652,-0.27423524856567383,-1.983581304550171
1761132231790599200,7.30759912109375,-1.9255714416503906,-0.5504298210144043,-1.124450445175171
1761132231800599300,7.317599365234375,-1.8988285064697266,-0.5917139053344727,-1.1823264360427856
1761132231810598400,7.327598388671875,-1.923288345336914,-0.14676618576049805,-0.005824923515319824
