time,seconds_elapsed,z,y,x
1761132330056982800,0.084982666015625,-0.11494622960686683,0.029500454446300863,-0.08749854297190904
1761132330076829700,0.10482958984375,-0.16324001265466212,0.011703443405777215,-0.06589227584153413
1761132330096678000,0.124677978515625,-0.0693511841237545,-0.06810819832533598,-0.014374270050227641
1761132330116525600,0.144525634765625,0.08090425927340984,-0.046450201007723804,-0.0654721507333219
1761132330136373800,0.164373779296875,0.07515139483511447,-0.047065666024945677,-0.017561375653743744
1761132330156220700,0.184220703125,-0.0754249510794878,-0.004625942767597735,0.07234393619894981
1761132330176068900,0.20406884765625,-0.041806759116053575,-0.04466339065618813,0.08639291981756686
1761132330195916500,0.22391650390625,0.06379997973740101,-0.04247241995055228,0.028328561122715472
1761132330215764700,0.2437646484375,0.13472294322252273,-0.03227605663947761,0.009114157564938068
1761132330235611600,0.263611572265625,0.005389876344799995,-0.03110416331589222,0.015896072790026663
1761132330255459800,0.2834599609375,-0.22949323076307773,-0.002752440513297915,-0.056751376400142904
1761132330275307800,0.303307861328125,-0.16233984894454478,0.05022562789320945,-0.0384651936031878
1761132330295155700,0.32315576171875,0.09703414081931114,0.04277870942074805,-0.11304726411774754
1761132330315002600,0.343002685546875,0.17964637305438516,-0.005160889894515275,0.003589256663620472
1761132330334850800,0.362850830078125,0.0026437925070524216,0.02871200748234987,-0.038984249041229484
1761132330354698800,0.38269873046875,-0.11002806242704391,0.07642108597736805,0.027818127382546663
1761132330374546700,0.402546630859375,0.04850128831863403,0.01044942475669086,0.02169876771941781
1761132330394393600,0.4223935546875,0.06401975996792315,-0.03837996300514787,-0.036842414706945416
1761132330414241800,0.44224169921875,0.006120528706908226,-0.02445719958208501,0.021567250294238328
1761132330434089700,0.46208984375,-0.12363047132194041,-0.02207311745714396,0.050975131086260075
1761132330453937700,0.481937744140625,-0.10340075324177742,-0.0447982325496152,0.046563598254323005
1761132330473784600,0.50178466796875,0.04403028038442135,-0.011912629177048802,0.02764467051178217
1761132330493632800,0.5216328125,0.07451952667236328,0.035553507407568394,0.05503200526162982
1761132330513480700,0.541480712890625,0.012957681250572204,0.003811557644791901,0.02331087909117341
1761132330533329000,0.561328857421875,0.009369301369786262,-0.012901165290363132,-0.04392623548805714
1761132330553176600,0.581176513671875,0.036629064217209815,-0.012687595604918896,-0.041685909215360875
1761132330573023700,0.601023681640625,-0.031738954088091846,0.014318448209762573,-0.03437456328868866
1761132330592871700,0.62087158203125,-0.07287234398722649,0.015504589254409075,-0.05556289726793766
1761132330612719900,0.640719970703125,-0.02267535766661167,-0.026094372329860924,-0.08390314882844686
1761132330632567600,0.660567626953125,-0.014286884027719497,-0.00857800486162305,-0.08161050784662366
1761132330652414700,0.680414794921875,-0.039344168394804,-0.00529573178794235,-0.06317351840212941
1761132330672262700,0.7002626953125,0.011243278548121452,-0.01513725377935916,-0.05235138787552714
1761132330692110800,0.72011083984375,0.05313771594762802,-0.04532057592328637,-0.021863602892309427
1761132330711958500,0.73995849609375,-0.038215456625819204,0.000008292904309928416,0.02780819051042199
1761132330731805700,0.7598056640625,-0.10478840820789337,-0.013446743409149349,0.07649477226808667
1761132330751653600,0.779653564453125,0.03893909472525119,-0.034391477890871464,0.02007233556136489
1761132330771501800,0.799501708984375,0.07599427540004253,-0.05046013076882809,0.02353182836547494
1761132330791349800,0.819349853515625,-0.045046763950586315,-0.023280922344326972,0.04367459881454706
1761132330811197000,0.839197021484375,-0.08278057453930378,-0.02798157431595027,0.030949995667487382
1761132330831044600,0.859044677734375,0.03021510552167892,-0.05240008585546165,-0.044975452280044556
1761132330850892800,0.878892822265625,0.05297521886229515,-0.08958009848631918,-0.05369987987503409
1761132330870740700,0.89874072265625,-0.08771043215692043,-0.022367899152636525,0.006002747546136379
1761132330890588000,0.918587890625,-0.11510521956086157,0.0005198226230219006,0.02366407644301653
1761132330910435600,0.938435546875,-0.016984452548623085,-0.02030241799019277,0.003601239362359047
1761132330930283800,0.95828369140625,0.0777776516854763,-0.03692052144445479,-0.007366144853830337
1761132330950131700,0.978131591796875,0.1252250470370054,-0.04701017297804355,0.04233063685968518
1761132330969979000,0.997978759765625,-0.035924130818247794,-0.017248692975379527,0.057126931714266534
1761132330989826600,1.01782666015625,-0.06259878725409507,0.003593457914702594,0.02740969271212816
1761132331009674800,1.0376748046875,0.004626490756869316,-0.046690366439148784,-0.03553951541483402
1761132331029523200,1.057523193359375,0.004773790273070335,0.0028856384389102457,-0.04662555757462978
1761132331049370000,1.0773701171875,-0.0026969839990139007,-0.007244637366011738,-0.05122925197780132
1761132331069218000,1.097218017578125,-0.01864040306210518,-0.07616243504118174,-0.05940495964884757
1761132331089066000,1.11706591796875,-0.12135843473672867,-0.035229609215445816,-0.09057371263355016
1761132331108914200,1.1369140625,-0.14393267011642455,0.03695427758358419,-0.026445085463672875
1761132331128761000,1.156760986328125,-0.012329320219159126,-0.011466602442599833,-0.061764674517512316
1761132331148609000,1.176609130859375,0.11719371627271175,-0.05896623943801969,-0.09744213709831237
1761132331168457000,1.19645703125,0.14070844737291335,-0.055464441862143575,-0.011007570096105337
1761132331188305200,1.21630517578125,0.012406477108597755,-0.016349990569986404,0.015605857671797275
1761132331208152000,1.236152099609375,-0.07241174073815346,-0.007609634753502905,0.0402110143572092
1761132331228000000,1.256,-0.09301379926204681,-0.018585311874002218,0.06022314416393637
1761132331247848000,1.275847900390625,-0.04676642735004425,-0.028227767629362643,0.04535948316156864
1761132331267696000,1.295696044921875,0.05425123014748096,-0.03163432466983795,0.022427958776801822
1761132331287543000,1.31554296875,0.08894377334415912,-0.0158828114496544,-0.016704904954880476
1761132331307391000,1.335390869140625,0.025616087293624877,-0.00602503244318068,-0.04015679995194077
1761132331327239000,1.355239013671875,-0.10527765302956103,0.002864632183499634,-0.036988399048894643
1761132331347087000,1.375087158203125,-0.11206219860315322,-0.005303622833453118,-0.06404167953878641
1761132331366934000,1.39493408203125,-0.037810967478156085,0.005055785552226006,0.014167641562223434
1761132331386782000,1.414781982421875,0.02247662022411823,0.03013495295755565,0.024844810660183427
1761132331406630100,1.434630126953125,0.041330373775959016,-0.00011241086591035126,0.03442790091112256
1761132331426478000,1.45447802734375,0.021458383092284202,-0.02544416479282081,-0.01567176251485944
1761132331446325000,1.474324951171875,-0.034928105518221855,-0.009645013038627803,0.010365034408867359
1761132331466173000,1.4941728515625,-0.09588146365284919,0.017827150450460613,0.04830488896369934
1761132331486021000,1.514021240234375,-0.12612988692224025,0.010969868434220553,0.011118629255145788
1761132331505869000,1.533869140625,0.06862579245865344,-0.007175956043973565,-0.018134499366581437
1761132331525716000,1.553716064453125,0.12534136689305306,0.027757044845074415,-0.0027354163132607937
1761132331545564000,1.57356396484375,-0.0843348182439804,0.06285637874435633,0.019346067113429306
1761132331565412000,1.593412109375,-0.17657587956786155,0.07947868344970047,-0.03142579648569226
1761132331585260000,1.613260009765625,-0.013397241711616515,0.055776320822909474,-0.10171776859089732
1761132331605108000,1.63310791015625,0.17710428735613823,0.03503927427511662,-0.11820917692556976
1761132331624955000,1.652954833984375,0.07915712334513664,0.07888838940635323,-0.0654801879093051
1761132331644803000,1.672802978515625,-0.05164192443192005,0.058412551078014074,-0.03165463680550456
1761132331664651300,1.6926513671875,-0.07318623224198818,-0.0022809140114113686,-0.030644144588708875
1761132331684499000,1.7124990234375,0.05328969163894653,0.00897949833460152,0.003543663956224918
1761132331704345900,1.732345947265625,0.07801672113835811,0.009170015938021242,0.027325813820958136
1761132331724194000,1.752194091796875,0.0009597849428653717,0.03826557937785983,0.04200301234051585
1761132331744042000,1.7720419921875,-0.03439209894537926,-0.008758841321244836,0.017875117778033016
1761132331763890000,1.791889892578125,0.017529811471700667,-0.019980382961593567,0.031632863365113735
1761132331783736800,1.81173681640625,-0.04490297156572342,-0.0050189606731757515,0.017808628413081166
1761132331803585000,1.8315849609375,-0.033925065955519675,-0.004269165219180286,-0.0036579379856586454
1761132331823433000,1.851432861328125,-0.11693944925069809,0.033554771338403226,-0.01947670775577426
1761132331843281200,1.87128125,-0.0746148037403822,0.032355551616474985,-0.07660685434043407
1761132331863128000,1.891128173828125,0.08727496334910392,0.008157404829375445,-0.12272621595859527
1761132331882976000,1.91097607421875,0.08238017704486847,0.022253734721057114,-0.07277765144109725
1761132331902824000,1.930823974609375,0.03197393188774585,0.026219131220690906,-0.03842442320138216
1761132331922672000,1.950672119140625,0.01783376285433769,-0.011326974776200949,0.030768501620739696
1761132331942519000,1.97051904296875,-0.0924304464161396,-0.033849260772950945,0.0224257668197155
1761132331962367000,1.990366943359375,-0.12048340546786784,-0.03779043614678085,0.041483226250112054
1761132331982215000,2.01021484375,-0.034276948133110996,-0.036181466580182314,-0.009529168106615542
1761132332002063000,2.03006298828125,0.025358313140273092,-0.02728405703846365,0.028061873010545968
1761132332021910000,2.049909912109375,0.009300327786803245,-0.051607949097082016,-0.035132249788194896
1761132332041758500,2.069758544921875,0.028604163193702695,-0.030130934369564055,-0.02301993332058191
1761132332061606400,2.0896064453125,0.02692307823896408,0.023839177281595764,0.0029006898775696755
1761132332081454600,2.10945458984375,0.00516132828593254,0.032802053274959324,0.022615298042446375
1761132332101301500,2.129301513671875,-0.006571195083856582,-0.006102225865237415,-0.03102715255692601
1761132332121149400,2.1491494140625,-0.043999300724267956,-0.027939123413711783,-0.08668868789374828
1761132332140997400,2.168997314453125,-0.03566811023056507,0.009758592948317527,-0.07827741790115833
1761132332160845600,2.188845458984375,-0.022344518277049065,0.016555486546829343,-0.06602189357057213
1761132332180692500,2.2086923828125,0.022775310909748075,-0.02882189759761095,-0.09698357967585325
1761132332200540400,2.22854052734375,0.0033966567009687423,-0.02711885653939098,-0.0944772959433496
1761132332220388400,2.248388427734375,-0.029669162076711653,-0.015497465393878519,-0.01775192978978157
1761132332240236500,2.268236572265625,0.019246552261710168,0.01060395773127675,0.06761340054571628
1761132332260083500,2.28808349609375,0.055803135764598846,0.0013471037600189446,0.05464446724876761
1761132332279931600,2.307931640625,0.0061596916735172265,0.010647321948967874,0.0778802352771163
1761132332299779300,2.327779296875,-0.061008303192257876,-0.008537526720762252,0.031889322344213725
1761132332319627500,2.34762744140625,0.001737199056148529,-0.06323945977780968,-0.009486936400085686
1761132332339474400,2.367474365234375,0.04041793510615825,-0.04922985832151025,0.004035100734978914
1761132332359322600,2.387322509765625,0.010839373922348022,-0.04420914408266544,0.015046908614784478
1761132332379170300,2.40717041015625,-0.07967500973939895,-0.027218407923728226,0.011192717404663563
1761132332399018500,2.4270185546875,-0.0985480525135994,-0.02576806298494339,-0.026209815403074023
1761132332418865400,2.446865478515625,-0.027629180681705473,-0.019296382752805947,-0.05084522109627723
1761132332438713600,2.466713623046875,0.046610944527387614,-0.01695858745500445,-0.04672507242634892
1761132332458561500,2.4865615234375,0.10192015929520129,-0.010099478807859122,-0.03870966988354921
1761132332478409500,2.506409423828125,-0.018292028015851974,-0.018263532573729754,-0.05918591007068753
1761132332498256400,2.52625634765625,-0.13070318618714807,0.004545753670856356,-0.029033494521677493
1761132332518104600,2.5461044921875,-0.061112932610511775,0.034898769825883205,0.03114084206447005
1761132332537952500,2.565952392578125,0.03842237737476825,0.06535287173520773,0.06798559485897421
1761132332557800400,2.585800537109375,0.012575988456606865,0.0109661421071738,0.0012995382912456988
1761132332577647400,2.6056474609375,-0.026927169892191884,-0.043955899973958726,-0.03178337775170803
1761132332597495600,2.62549560546875,-0.10150690231919288,-0.030244368148781356,0.02258124964237213
1761132332617343500,2.645343505859375,-0.10345277568995952,0.025920257871970533,0.090845369181782
1761132332637191400,2.66519140625,0.07334288410842418,0.003137092449329793,0.015917700099945066
1761132332657038300,2.685038330078125,0.18317513170242308,-0.0013229556994512677,-0.03283975493684411
1761132332676886500,2.704886474609375,0.03520166176259518,0.028492336849682033,-0.029295506458729505
1761132332696734500,2.724734375,-0.10149871901273727,0.040613859537057574,-0.014165303474664687
1761132332716582700,2.744582763671875,-0.04605623325407505,0.022074432631395757,-0.02287263380438089
1761132332736429600,2.7644296875,0.007998013016581535,0.022583222403749822,-0.03876432268023491
1761132332756277500,2.784277587890625,0.021538462591171263,0.021284853156283496,-0.006800619925558566
1761132332776125400,2.80412548828125,-0.04711830952763557,-0.0007916253017261624,-0.007365268070995807
1761132332795973600,2.8239736328125,-0.0921907924413681,0.03008979864157736,0.021051555857062337
1761132332815820500,2.843820556640625,-0.07137070725262165,0.006755904000997543,0.005050415257364512
1761132332835668500,2.86366845703125,0.04030746046900749,-0.01039042457845062,-0.08713920814022422
1761132332855516400,2.883516357421875,0.07671265280246733,0.010428199305571616,-0.09288140505403279
1761132332875364600,2.903364501953125,-0.024954993036389348,0.02651256120931357,-0.04183963847234845
1761132332895211500,2.92321142578125,-0.019965514186024665,0.008027312176302075,0.014709201093018055
1761132332915059500,2.9430595703125,0.0865571704685688,-0.04818579262867569,0.05184241544008255
1761132332934907400,2.962907470703125,0.07757540711164473,-0.04879117464330047,0.1060226261779666
1761132332954755600,2.982755615234375,-0.09051204557418822,-0.020809636859968304,0.19251345341205595
1761132332974602500,3.0026025390625,-0.17245441572368145,-0.011388787966035306,0.18273250250145792
1761132332994450700,3.02245068359375,-0.11468085666894912,-0.022070998565293848,0.07083937685489654
1761132333014298400,3.04229833984375,0.04468962107598781,-0.03881093830093741,-0.051048342452943325
1761132333034145300,3.062145263671875,0.0453524688988924,0.03746032740958035,-0.07916516052111983
1761132333053992200,3.0819921875,-0.017299509847164152,0.0653324500016868,-0.0844333101823926
1761132333073840400,3.10184033203125,0.006750643303990364,-0.036573242376744745,-0.17433233842477203
1761132333093688300,3.121688232421875,0.10148878214061259,-0.03679207275919616,-0.12279226693212986
1761132333113536300,3.141536376953125,0.009670330142974854,0.047928858725540334,0.055482963899523015
1761132333133383200,3.161383056640625,-0.12355799060761928,0.057512898824550206,0.1240650633469224
1761132333153231400,3.1812314453125,-0.11234452267587185,0.02356594983078539,0.13889058429598808
1761132333173079300,3.201079345703125,0.022185528323054312,-0.018138846748135984,0.07789704028144478
1761132333192927500,3.220927490234375,0.047288405397534365,0.03975037457551807,0.0018662322632968424
1761132333212774400,3.2407744140625,0.014714754050970077,0.03378299060370773,-0.028409809665381907
1761132333232622300,3.260622314453125,-0.0774941585689783,0.03548475302029401,-0.07995470346361398
1761132333252470300,3.28047021484375,-0.12897884661257267,-0.025647468812577425,-0.15316051718890666
1761132333272318500,3.300318359375,-0.021071429601311684,-0.03246956991758197,-0.16424889743626117
1761132333292165400,3.320165283203125,0.062567223072052,-0.013660495757684112,-0.13305135674849153
1761132333312013300,3.340013427734375,0.035005846929550166,-0.004797244213894009,-0.09871493351310491
1761132333331861200,3.359861328125,-0.00854629454910755,-0.06763363961614668,-0.11268471441566943
1761132333351709400,3.37970947265625,0.034568040034174914,-0.0990017876304686,-0.08523249773606657
1761132333371556400,3.399556396484375,0.03647650400400162,-0.047112427776120604,0.04401654412001371
1761132333391404300,3.419404296875,-0.050122752040624614,0.011972286942414938,0.15676248720362781
1761132333411252200,3.439252197265625,0.033763737913966176,-0.05485073041059076,0.1240820144817233
1761132333431100400,3.459100341796875,0.10338789376020431,-0.051087322756461793,0.05390709288492798
1761132333450948400,3.4789482421875,0.1494903042435646,-0.06166377142630517,0.09799509480595588
1761132333470795500,3.49879541015625,0.04841010290384292,-0.06501129175592213,0.13559607279524205
1761132333490643200,3.518643310546875,-0.1149690259605646,-0.07574165234584361,0.09300050138905644
1761132333510491400,3.538491455078125,-0.10653963578939438,-0.07797339345328509,0.02870587000250816
1761132333530339300,3.55833935546875,0.0405161347836256,-0.021288835211656986,0.00427709279730916
1761132333550186500,3.5781865234375,0.0881909091502428,0.04003364849630743,-0.011982844869047403
1761132333570034200,3.5980341796875,0.023538111975789068,0.050498636148311196,-0.10661927689686417
1761132333589882400,3.61788232421875,0.050318566873669625,-0.013150317745842039,-0.17892010460644958
1761132333609730300,3.637730224609375,0.1876455551147461,-0.058378685341030356,-0.1627956298880279
1761132333629577500,3.657577392578125,0.153650346532464,-0.025399083542078732,-0.004952507840842008
1761132333649425200,3.677425048828125,-0.017127660411596298,0.003877097161673009,0.0775116942256689
1761132333669273300,3.6972734375,-0.255718389865756,-0.04319872493110597,0.048369478632509705
1761132333689121300,3.717121337890625,-0.30024083768129345,-0.07776771481335162,-0.04379208771437406
1761132333708968400,3.736968505859375,-0.17507248926758764,-0.10184241788387298,-0.13737433451414108
1761132333728816400,3.75681640625,0.02408405542075634,-0.07109674914944916,-0.16087620613276957
1761132333748664300,3.776664306640625,0.011918985852599144,-0.04513334625549614,-0.19531448230743406
1761132333768512300,3.79651220703125,0.013049451187252998,-0.044759361843951045,-0.19661577416434883
1761132333788359400,3.816359375,0.04006546840667724,-0.05170698902476579,-0.13680851732492447
1761132333808207400,3.836207275390625,-0.026826047605276106,-0.024231428002193568,-0.018485943152755497
1761132333828055300,3.85605517578125,-0.10349369222223759,-0.024103198512643573,0.13395035141482947
1761132333847903200,3.8759033203125,-0.0287783507168293,-0.10716653551608324,0.16394173118323085
1761132333867750100,3.895750244140625,-0.0032061025649309156,-0.050310968089103694,0.1902082452096045
1761132333887598300,3.915598388671875,0.028964813199639318,0.014865012709237634,0.2570914317846298
1761132333907446300,3.9354462890625,0.09902852950692176,-0.033050000154040755,0.1143330661445856
1761132333927294200,3.955294189453125,0.017321137157082556,-0.10878277507368475,-0.03664879183098674
1761132333947141000,3.97514111328125,-0.09830664497315883,-0.13794541240036487,-0.15188567494750022
1761132333966989300,3.9949892578125,-0.07979659029245376,-0.09927545347269624,-0.16173530718013643
1761132333986837500,4.01483740234375,-0.07946925803422927,-0.017182678534463047,-0.14359306289851664
1761132334006684400,4.034684326171875,-0.03112052992880344,0.013803849751129745,-0.09795710088312626
1761132334026532900,4.054532958984375,0.11384206775724887,0.018686543758772312,-0.04015782286524772
1761132334046381000,4.074381103515625,0.1732528726249933,0.07172770399674773,0.0694835783317685
1761132334066228000,4.09422802734375,-0.011602759510278702,0.08751081793159246,0.1087757242783904
1761132334086076000,4.114075927734375,-0.12500059063136576,0.042066140704602004,0.04394976249411702
1761132334105923800,4.133923828125,-0.03720189566910267,-0.030413112311810254,-0.08591463478133082
1761132334125772000,4.15377197265625,0.10862930154502391,-0.0447719290645793,-0.1312421153694391
1761132334145619000,4.173618896484375,0.08964812222123146,-0.029039449338428676,-0.0900217778392136
1761132334165467100,4.193467041015625,-0.003205518043041229,-0.010342786044441162,-0.04397051302120089
1761132334185314800,4.213314697265625,-0.0960118120342493,-0.0020807883294299244,0.005989011281728744
1761132334205163000,4.2331630859375,-0.006414543217420578,-0.07505933263748883,0.002142272725701332
1761132334225010000,4.253010009765625,0.08239011391699314,-0.09680493517331779,-0.022915596163272857
1761132334244858000,4.272858154296875,-0.04461129514276981,-0.006020867724716663,0.07960296741649509
1761132334264705800,4.292705810546875,-0.20001579186618326,0.07065086854547262,0.0898692176260054
1761132334284554000,4.312553955078125,-0.2143447614699602,0.05620579828135669,0.02882189759761095
1761132334304401000,4.33240087890625,-0.013272154027223586,-0.053827634440548715,-0.065626756773144
1761132334324249000,4.3522490234375,0.11103285555541514,-0.029734811191447077,-0.022741554770618677
1761132334344097000,4.372096923828125,0.06833353151381015,0.009467537579871713,0.050438832252472636
1761132334363945000,4.391945068359375,-0.030019290688633918,0.0031778628511354326,0.09437485848218202
1761132334383794000,4.4117939453125,-0.049364627149701114,0.015222447844780981,0.11488295511230825
1761132334403641900,4.431641845703125,-0.049961423999071115,0.045448440086655315,0.1411477155730128
1761132334423488800,4.45148876953125,-0.07511924613118172,0.06270922535862773,0.1096830483816564
1761132334443337000,4.4713369140625,-0.043214287826418875,0.08149911989402026,-0.043439182623475785
1761132334463185000,4.491184814453125,0.125731242993474,0.05770195512324571,-0.17397344198450446
1761132334483032800,4.51103271484375,0.09739946700036525,0.06174812524151057,-0.23303762537166475
1761132334502879700,4.530879638671875,-0.04717033197581768,0.012424158895760774,-0.27173180542513725
1761132334522728000,4.55072802734375,-0.12878361630141735,-0.026538572433404625,-0.2423806232564151
1761132334542575900,4.570575927734375,-0.04018003469705581,-0.028272885412722826,-0.15613704878166318
1761132334562424000,4.590424072265625,-0.011498130092024803,0.040098713089153165,-0.02242430551499128
1761132334582271000,4.61027099609375,0.0065951604813337325,0.07378105632998049,0.1381441498428583
1761132334602119000,4.630118896484375,0.019137831190228462,0.0979688643861562,0.20879531064927576
1761132334621966800,4.649966796875,0.08173544940054416,-0.004632153312675654,0.06766644590720534
1761132334641815000,4.66981494140625,0.1278401979714632,-0.02068984640520066,-0.011255845768749714
1761132334661662000,4.689661865234375,-0.013258710023760795,-0.011342939530313014,-0.10101897267177701
1761132334681510000,4.709510009765625,-0.23477321699261663,-0.03714852151405066,-0.13547332319840788
1761132334701357800,4.72935791015625,-0.1415121649712324,-0.07289970691818744,-0.16220847764983773
1761132334721206000,4.7492060546875,0.08753098393678664,-0.051045712104439735,-0.07443520938977599
1761132334741053000,4.769052978515625,0.12155015791654586,-0.01153301874231547,0.14414806643277406
1761132334760900900,4.78890087890625,0.0013566753059625625,-0.0023741452528163788,0.21000950874462723
1761132334780748800,4.808748779296875,-0.0161035780608654,-0.0940337899595499,0.18333879783153534
1761132334800597000,4.828596923828125,-0.13885142132937908,-0.03247062936350703,0.16109160244911908
1761132334820445000,4.84844482421875,-0.2289852812409401,-0.04340469583198428,0.07516118557676672
1761132334840292000,4.8682919921875,-0.19157354221343992,-0.0189828232916072,-0.03980316420868039
1761132334860139800,4.888139892578125,-0.025855741268396376,-0.018803849995508787,-0.16071020191609858
1761132334879988000,4.907988037109375,0.1418997029840946,-0.0706669794300571,-0.24695845256596802
1761132334899836000,4.9278359375,0.029704233390092847,-0.007662862778082489,-0.17457535340040922
1761132334919683000,4.94768310546875,-0.08299684763848782,0.06677727851513773,-0.08413403497487307
1761132334939530800,4.96753076171875,-0.08305471530556678,0.07557981284763664,-0.013457593596726655
1761132334959379000,4.98737890625,0.010722469544410704,0.09042791095469147,0.08728183148130773
1761132334979227000,5.007226806640625,0.0678869567900896,0.1154630930878222,0.20641206877455115
1761132334999074000,5.027073974609375,0.10702011278271674,0.08336772677749395,0.19189619829654692
1761132335018921700,5.046921630859375,0.1661246281802654,0.016773878537863492,0.09859832139611244
1761132335038769700,5.066769775390625,0.18495090920329094,-0.028777656597085297,0.041565059314668175
1761132335058617600,5.08661767578125,0.0913023191690445,-0.0432914081832394,0.028535481871664523
1761132335078464500,5.106464599609375,-0.1334521926343441,-0.05846588870044797,0.01795432049408555
1761132335098312700,5.126312744140625,-0.2570546069055796,-0.01637947239279747,0.01610240901708603
1761132335118160600,5.14616064453125,-0.24268413624763488,-0.037273791861534115,-0.025667671350389717
1761132335138008600,5.166008544921875,-0.0768669665813446,-0.005463635700754821,-0.010567278982698916
1761132335157855500,5.18585546875,-0.018047113344073294,0.08101718159597367,0.08349106089621781
1761132335177703700,5.20570361328125,-0.16651625784635543,0.0862986291302368,0.01282499478161335
1761132335197551600,5.225551513671875,-0.09502163195312023,-0.026123671489581463,-0.133508306735754
1761132335217399600,5.245399658203125,0.19528525621294973,-0.022769904082268474,-0.09150617117807268
1761132335237246500,5.26524658203125,0.46152796270251273,-0.06267941474225372,0.028652240119129417
1761132335257094700,5.2850947265625,0.27367256422936914,0.09122191087659448,0.1251553428016603
1761132335276942800,5.30494287109375,-0.02172726316154003,0.11976963117532431,0.07957666393145918
1761132335296790500,5.32479052734375,0.04099485821127891,-0.01661784772593528,0.06692278793305158
1761132335316637400,5.344637451171875,0.04271393708884716,-0.0031773879271000624,0.038696664271503686
1761132335336485600,5.364485595703125,-0.031305823367834086,-0.024187990719266233,0.0020345745675265786
1761132335356333800,5.384333740234375,-0.1707704081594944,0.010167721738480032,-0.08959113133698701
1761132335376181500,5.404181396484375,-0.2325181315422058,0.03341423035655171,-0.17184826652407645
1761132335396028400,5.4240283203125,-0.09442483510375023,0.011825133556686341,-0.19852175391614435
1761132335415876600,5.443876708984375,0.00490472317636013,0.03575615384019911,-0.1420461257174611
1761132335435724800,5.463724853515625,0.07585048301517963,0.07482442790307105,-0.017660159853100776
1761132335455572500,5.483572509765625,0.05564882198572158,0.07228256140053271,0.04226677784323692
1761132335475419600,5.503419677734375,0.03385901498198509,0.013537746160849929,0.08988134645521641
1761132335495267600,5.523267578125,0.06401625283658505,-0.015738251879811285,0.19048589310720562
1761132335515115800,5.54311572265625,0.05633914233744144,0.002050064397603273,0.1732763996310532
1761132335534963700,5.562963623046875,0.05043079507648945,-0.048457924100942906,0.10747150981202722
1761132335554810600,5.582810546875,-0.03116203098297119,-0.06791037419829517,0.005952917055040597
1761132335574658600,5.602658447265625,-0.11319734011292457,-0.06525094573069364,-0.05110299524962902
1761132335594506500,5.622506591796875,-0.18625263945162296,-0.040160270550660786,-0.08840162929147481
1761132335614354700,5.642354736328125,-0.18006021455228327,-0.0024236104177311063,-0.15916823317110537
1761132335634201600,5.66220166015625,-0.06297931100428104,0.017531126645952463,-0.21163550251126287
1761132335654049500,5.682049560546875,0.06046528235673904,0.017174677891097962,-0.20216201011464
1761132335673897500,5.7018974609375,0.05404781652987003,0.017838292898982762,-0.17112199807614087
1761132335693745700,5.72174560546875,0.08425766135454177,-0.01781929593756795,-0.10073650246858597
1761132335713592600,5.741592529296875,-0.0038151743739843367,0.001563924848474562,-0.043994624549150464
1761132335733440500,5.7614404296875,-0.010590367597341537,0.0009231792595237493,-0.024326778135448694
1761132335753288400,5.781288330078125,-0.06324351489841938,0.023488354549929497,0.011815379347652196
1761132335773136600,5.80113671875,-0.031633740147948265,-0.04149520894885063,-0.04748232053443789
1761132335792983600,5.820983642578125,-0.03175590522289276,-0.031832915981858965,0.021079320646822452
1761132335812831700,5.840831787109375,-0.07088789217174053,-0.007245075757429003,0.04500643194019794
1761132335832679400,5.860679443359375,-0.048265725997090336,-0.009941036843135952,0.14623656314462422
1761132335852527600,5.880527587890625,0.013598317241668701,-0.06541453879456967,0.10362594029977917
1761132335872374500,5.90037451171875,0.039164720174670216,0.0033876331442967054,0.09351604969576001
1761132335892222700,5.92022265625,-0.03623158933222294,-0.01599584337007254,0.04717237780243158
1761132335912070400,5.9400703125,-0.05666998172700405,-0.029120807478949427,-0.01575534914508462
1761132335931918600,5.959918701171875,0.029832828205823895,-0.029364699237421153,-0.09073357937037944
1761132335951765500,5.979765625,0.0451736052006483,-0.016693616375885904,-0.08428118836060165
1761132335971613700,5.99961376953125,0.04852233110666275,-0.024552403584867714,-0.04154124004766345
1761132335991461600,6.019461669921875,-0.027639702075719832,-0.005386003887280821,0.025095862811803815
1761132336011309600,6.0393095703125,-0.09353110113441944,0.004100055729970336,-0.010286562345176935
1761132336031157000,6.059156982421875,-0.11086743586063384,0.0049570013528689736,0.03430120579153299
1761132336051005000,6.0790048828125,-0.09245382729172706,-0.007928601042181254,0.06460954255461693
1761132336070853000,6.09885302734375,-0.0681312869399786,-0.004420154529809952,0.07503595176190138
1761132336090700800,6.11870068359375,-0.10301087714135647,-0.01360277422107756,0.09558891044706105
1761132336110548000,6.1385478515625,-0.029490882900357243,-0.0014556787010282276,0.06783478821143507
1761132336130396000,6.15839599609375,0.17125731489360332,-0.04449303905796259,-0.019628975708037615
1761132336150244000,6.178244140625,0.1793447597593069,-0.070327993266657,-0.07934431648030876
1761132336170091800,6.198091796875,0.0854325503528118,-0.023667072117701173,-0.07729775921404361
1761132336189939000,6.21793896484375,-0.013010872742533684,0.056761897794157266,0.03514262505173683
1761132336209787000,6.237786865234375,-0.11727671838104724,0.08328253271207213,0.04877879008576274
1761132336229635000,6.257635009765625,0.012479542344808577,0.05711129575371742,0.04841711716651916
1761132336249482800,6.277482666015625,0.09443594101965427,-0.01140245116520673,-0.01597118385285139
1761132336269330000,6.297329833984375,-0.007526888373494148,-0.022147534400224683,-0.07252703768089414
1761132336289177900,6.317177734375,-0.07978665342032909,-0.009790485923923552,-0.06567848696038127
1761132336309026000,6.337026123046875,-0.11145195775032042,-0.01635517820175737,-0.08319806929901241
1761132336328874000,6.3568740234375,-0.1047042370557785,0.00898779123891145,-0.08727233300060033
1761132336348722000,6.376721923828125,0.01615852311849594,0.03337791693415493,-0.11339388559833169
1761132336368568800,6.39656884765625,0.06373977398276329,0.045588908003270624,-0.10585063061192632
1761132336388417000,6.4164169921875,0.0007429273217916488,0.058490402087196705,-0.06663228055387735
1761132336408265000,6.436264892578125,-0.04881459205150604,0.03709467243496328,-0.05387260609343648
1761132336428113000,6.45611279296875,0.05843173070251941,0.013680150306224822,-0.03798135560899973
1761132336447959800,6.475959716796875,0.08248480646312237,0.02480904522705823,0.040190556091070175
1761132336467808000,6.49580810546875,0.03923895445466041,-0.02664773189630359,0.07836246583610773
1761132336487656000,6.515656005859375,0.050427287945151326,-0.06495773493777961,0.10322671184912323
1761132336507503900,6.53550390625,0.027676526954770086,-0.09230261878538876,0.07321531220600008
1761132336527350800,6.555350830078125,-0.1114969659358263,-0.062178954406827684,0.08277195284143089
1761132336547199000,6.575198974609375,-0.18342472254931927,-0.07303977297600359,0.005524462509900331
1761132336567047000,6.595046875,-0.10146423222124576,-0.05928060261681676,-0.030881022084504363
1761132336586895000,6.61489501953125,0.012736731976270675,-0.0751035736380145,-0.09951777432858944
1761132336606742000,6.634741943359375,0.021013561934232712,-0.044691009315475816,-0.11686068492606282
1761132336626590000,6.65458984375,0.009146014007925987,0.042668161718361075,-0.017491525287926198
1761132336646438000,6.67443798828125,0.028463877940177917,0.04743621637038886,-0.006485562627017497
1761132336666286000,6.6942861328125,0.03564356031119823,0.041784145425446326,0.045295185753703116
1761132336686133000,6.714133056640625,0.05113748204112053,0.004050517499819398,0.06226093360185623
1761132336705981000,6.73398095703125,0.07123100652098656,0.035772410855256016,0.09696545949727296
1761132336725828900,6.753828857421875,0.0015787936240434645,0.03382821798492223,0.045140141322463745
1761132336745677000,6.773677001953125,-0.07446458161473274,-0.007207374095544218,-0.03204699712395668
1761132336765524000,6.79352392578125,-0.09443068032264709,-0.05413794249873608,-0.10794424189031124
1761132336785372000,6.813371826171875,-0.08667290580272674,-0.1275756652837619,-0.20292466505020856
1761132336805219800,6.8332197265625,-0.06188099437355995,-0.11752203491162508,-0.1479391292788088
1761132336825068000,6.853068115234375,-0.02740413975417614,-0.04452927941512316,0.028760961190611122
1761132336844915000,6.8729150390625,0.016289456021785734,0.009071085608191788,0.16736907528340816
1761132336864763100,6.89276318359375,-0.005343114593625069,-0.0039370837206020946,0.15919439052566886
1761132336884610800,6.91261083984375,0.03969137439727783,-0.05847027261462062,0.08414353345558047
1761132336904459000,6.932458984375,0.011359598404169082,-0.0034762978084385394,0.09173720345497131
1761132336924306000,6.952305908203125,-0.0285123932570219,0.03964410118944943,0.04353080642968416
1761132336944154000,6.972154052734375,0.02357084520161152,0.005440839347057044,-0.04220613369718194
1761132336964001800,6.992001708984375,0.0668061758160591,-0.055684404755756256,-0.12525909543707966
1761132336983850000,7.01185009765625,0.08460778996646404,-0.03897168182060122,-0.08023352040499449
1761132337003697000,7.03169677734375,-0.05271043044626712,0.017523710524477064,-0.037656069177389145
1761132337023545000,7.051545166015625,-0.1805816080778837,-0.01790350362230092,-0.07661269955933094
1761132337043393300,7.071393310546875,-0.09204583101272583,-0.046363326441869135,-0.0713603319890797
1761132337063241500,7.091241455078125,-0.02450140404999256,-0.02424271658118814,-0.01401376617476344
1761132337083088400,7.11108837890625,0.04312017980217933,-0.01927756845448166,0.002088642842322588
1761132337102936600,7.1309365234375,0.06355331149995326,-0.01139083379264921,0.04377104492634534
1761132337122784300,7.1507841796875,0.0511778140515089,-0.0381013287268579,0.07937339644432068
1761132337142632400,7.170632568359375,0.05589724378883838,-0.08369608194902539,0.04907119716107845
1761132337162479400,7.190479248046875,0.029790742629766463,-0.07407499777525663,0.03294803761690855
1761132337182327600,7.21032763671875,-0.04157587296962738,-0.042761356427147984,0.028046821571886538
1761132337202175500,7.230175537109375,-0.03633855683803558,-0.05884626632016152,-0.0042693478822708126
1761132337222023400,7.2500234375,-0.07179682371020317,-0.07204977555796503,-0.04721943181455135
1761132337241870300,7.269870361328125,-0.1362719262301922,-0.026753201564773916,0.002747983533889055
1761132337261718500,7.289718505859375,-0.043082185879349706,-0.042965792958065865,-0.04622311425358057
1761132337281566500,7.30956640625,0.0981903251171112,-0.05627141086347401,-0.06855024300441145
1761132337301414400,7.329414306640625,0.011706804406642913,0.0018033230949193238,0.004117810582369565
1761132337321261300,7.34926123046875,-0.04738251342177391,0.027648725632391867,0.021365297981351613
1761132337341109500,7.369109619140625,0.003168693163990974,-0.0011477817956358194,-0.02031213566660881
1761132337360957400,7.38895751953125,0.057868251600861544,-0.0030339608684182167,-0.043715661477297545
1761132337380805400,7.408805419921875,-0.00720481681227684,0.050698104243166744,0.018192951555550098
1761132337400652300,7.42865234375,-0.1415221018433571,0.026856077417358754,-0.01544657545685768
1761132337420500500,7.44850048828125,-0.09085399087965487,0.009976510015316306,-0.06504661879763007
1761132337440348400,7.468348388671875,0.0926174934208393,-0.016530279040336607,-0.10605404422953724
1761132337460196600,7.488196533203125,0.13241525080204009,0.007867993428744375,-0.0919140213266015
1761132337480043500,7.50804345703125,0.010133271479606628,0.02060958424322307,-0.050340486444532866
1761132337499891500,7.527891357421875,-0.04211304858624935,-0.007932546564936638,0.012321429173648356
1761132337519739400,7.547739501953125,0.08795651587247848,-0.049762723089195784,0.0762608173817396
1761132337539587600,7.567587646484375,0.004369301125407218,-0.013463402283005415,0.17065525734722614
1761132337559434500,7.5874345703125,-0.14144552947580813,0.017969262334890664,0.1936417267896235
1761132337579282400,7.607282470703125,-0.1650105294585228,0.01394943223427981,0.10373992206826806
1761132337599130400,7.62713037109375,0.03712883043289184,-0.06701992816459387,-0.07480112009271979
1761132337618978600,7.646978515625,0.10968962425291538,-0.03939491220135242,-0.11386968641653657
1761132337638826500,7.666826416015625,0.09927928939759731,0.028199052991531786,-0.050247401333600276
1761132337658673400,7.68667333984375,-0.014718261182308196,0.027519436696916817,-0.012626403469592332
1761132337678521300,7.706521240234375,-0.04779284778833389,-0.04835274669341743,-0.046860243113338945
1761132337698369500,7.72636962890625,0.05809504609405994,-0.12100943863596766,-0.1525701500803232
1761132337718217500,7.746217529296875,-0.001665302863717079,-0.0711152346542105,-0.07488806772381067
1761132337738064600,7.766064697265625,-0.12885843510329723,0.03630549481865018,0.05852890746667981
1761132337757912300,7.785912353515625,-0.20584055249691008,0.026783414039947093,0.08237213986888528
1761132337777760500,7.805760498046875,-0.0930664062321186,-0.006863200300373137,0.065653790910542
1761132337797608400,7.8256083984375,-0.021693945413827895,-0.010056552981585264,-0.009467208786308764
1761132337817455600,7.84545556640625,0.09435060082376003,0.02667626387104392,-0.015043547613918781
1761132337837303300,7.86530322265625,0.10380874952077865,0.07540368909575045,-0.02340074933171272
1761132337857151500,7.8851513671875,0.14579437233507633,0.028946766086295244,-0.036762627469003197
1761132337876999400,7.90499951171875,0.11217676489353179,-0.017748239995352924,-0.040892859141528605
1761132337896846300,7.924846435546875,-0.03138005764782428,-0.013376052793115377,0.007221914077550172
1761132337916694500,7.944694580078125,-0.20794190869033335,0.018447108979709446,0.006758095958083868
1761132337936542500,7.96454248046875,-0.24120938751995563,0.04298475338686257,0.021970424267649648
1761132337956390400,7.984390380859375,-0.0063397244155406944,-0.016251900490373374,-0.036408407203853126
1761132337976237300,8.0042373046875,0.1412643276900053,0.015989048303104936,-0.04624766417294741
1761132337996084500,8.02408447265625,0.04559036930799484,0.061774976715818046,-0.00963715852573514
1761132338015931400,8.043931396484375,-0.15144786805212496,0.13401296832226217,-0.033171617239713666
1761132338035779000,8.063779052734375,-0.13249474577903747,0.1404110353289172,-0.08316460542082786
1761132338055627000,8.083626953125,0.05600654938220977,0.05625201204326003,-0.1592635102391243
1761132338075475000,8.103474853515625,0.1550152051448822,-0.00309643164537847,-0.17367723551690578
1761132338095321900,8.12332177734375,0.11374269903600215,0.033966420879215004,-0.07574351550936699
1761132338115170000,8.143170166015626,0.013486673560738563,0.02881170499715954,0.05951002745851874
1761132338135018000,8.16301806640625,0.000699088180065155,-0.03598904928062111,0.05511076958626508
1761132338154866000,8.182865966796875,-0.01902501846551895,-0.07388820649888365,0.10125058947056531
1761132338174712800,8.202712890625,-0.10202771132290363,-0.051382542843371626,0.15042173987478016
1761132338194561000,8.22256103515625,-0.16600889284610748,-0.03458966734409332,0.19652678070664403
1761132338214409200,8.2424091796875,-0.1556342138260603,-0.0551878168778494,0.14937223082184792
1761132338234257000,8.2622568359375,-0.0008382043898105621,-0.025729630670696495,0.0430301634311676
1761132338254103800,8.282103759765626,0.08564706988632678,0.024760529910214244,-0.0069493807464838025
1761132338273952000,8.301951904296875,0.042265608799457545,0.07976612208895385,-0.07420622293949126
1761132338293800000,8.321800048828125,0.013561492362618445,0.08555811296124011,-0.07576762703731656
1761132338313647900,8.34164794921875,0.0746755940169096,0.02635634773429483,-0.15943535967469213
1761132338333496000,8.36149609375,0.05715104324221611,-0.013852438133209943,-0.17940905716717243
1761132338353343000,8.381343017578125,-0.05929039335846901,-0.0013613880136981605,-0.12111600428298115
1761132338373191000,8.40119091796875,-0.19755904636383056,-0.005190481315180659,-0.06724281366765499
1761132338393039000,8.4210390625,-0.1877753189742565,-0.05339249442629516,-0.0672138798341155
1761132338412888000,8.44088818359375,-0.010941080731153487,-0.041197869970090686,-0.007138911969214678
1761132338432736000,8.460736083984376,0.001388239488005638,0.011339980388246476,0.0491647206634283
1761132338452584000,8.480583984375,0.02964753476679325,0.003040390609204769,0.06771992966011166
1761132338472430800,8.500430908203125,0.04654255546629429,-0.030708405463956295,0.07390022573024034
1761132338492279000,8.520279052734375,0.007280220136046409,-0.03174713739454746,0.10835399173498153
1761132338512127000,8.540126953125,0.04408639448583126,-0.04389207749012857,0.027404578145593404
1761132338531975000,8.559974853515625,0.03254150264263153,-0.0387939506335184,0.0382876450791955
1761132338551821800,8.57982177734375,-0.03952244757115841,-0.02503397655673325,0.04128682689517736
1761132338571670000,8.599669921875,0.10998246971964835,-0.07158522678613663,0.01712108454033732
1761132338591518000,8.61951806640625,0.04012216702997684,-0.027095146870240568,-0.036667496531456706
1761132338611366100,8.6393662109375,-0.08929916265308857,0.06766677470076829,0.020549889945238826
1761132338631213000,8.659213134765626,-0.18526421293616294,0.07843008771222085,-0.00012523381486535072
1761132338651061000,8.67906103515625,-0.09470540561079978,-0.04363868725094944,-0.08828238682597875
1761132338670909000,8.698908935546875,0.0434048419624567,-0.03547653318122029,-0.17563099993318318
