time,seconds_elapsed,z,y,x
1761129541405197600,0.071197509765625,-0.005189385336637497,0.0077193696051370345,-0.013723199430084786
1761129541425042700,0.091042724609375,-0.011624386820197105,-0.010352928412542678,-0.022579630790732334
1761129541444888600,0.110888671875,-0.0020475801795721052,0.009859123863477724,0.0018866608466836623
1761129541464733700,0.130733642578125,0.0043862522602081296,0.012100130556186195,0.015807996072707463
1761129541484578600,0.15057861328125,-0.010876783323287963,0.005324352810939308,0.011232632714876671
1761129541504423700,0.170423583984375,-0.0017488894939422606,-0.00793019249435747,-0.003681672770984005
1761129541524269800,0.190269775390625,-0.010877367845177649,-0.01213973191421246,-0.01991776605416089
1761129541544114700,0.21011474609375,0.0067798693984746925,0.01146414105745498,-0.000659186569583835
1761129541563959600,0.22995947265625,-0.002347439908981323,0.019010348336060995,0.012857820480625377
1761129541583804700,0.2498046875,-0.0008510638713836669,-0.005322834423999302,-0.004388548106927192
1761129541603649500,0.2696494140625,0.0004956745624542236,-0.0075527078013401475,-0.009607624187285545
1761129541623496000,0.289495849609375,-0.005040916776657104,-0.008128941353294067,-0.013045549046981613
1761129541643340500,0.309340576171875,-0.003993453550338745,0.006248520734440535,0.0012622670292679686
1761129541663185700,0.329185546875,-0.001000116953253746,0.019986449659487697,0.010278012570895953
1761129541683030500,0.349030517578125,0.0031897359520196913,-0.0033445657541276885,-0.006642599227587925
1761129541702875600,0.368875732421875,0.003339373555779457,-0.014876748812803998,-0.008223309672437607
1761129541722721800,0.3887216796875,-0.01416822608411312,-0.003274514458910562,-0.003940520069992635
1761129541742567000,0.40856689453125,-0.003095627927780151,0.005570164815150201,0.0032430553081445393
1761129541762411500,0.42841162109375,0.00902560249865055,0.007199318653251976,0.008768388892657821
1761129541782256600,0.448256591796875,0.00034662148058414456,0.000872339554852806,-0.0025174844048859086
1761129541802102800,0.468102783203125,-0.002945405802130699,0.0054210774839506485,-0.01669575810062233
1761129541821948000,0.487947998046875,-0.005488660544157028,-0.006838999724166933,-0.012994560928549616
1761129541841792800,0.507792724609375,-0.0011485855132341385,0.00468705042124493,-0.0008857481673418078
1761129541861637600,0.5276376953125,-0.003392565047740936,-0.0025204264222877097,0.005804050061193993
1761129541881482500,0.547482421875,-0.006384732601046562,-0.007953260559402407,-0.0007268215746065835
1761129541901329000,0.567328857421875,-0.003542202651500702,-0.002532623750157654,-0.009034091765782796
1761129541921173800,0.587173828125,-0.010874445235729217,-0.00040675416998565197,-0.006685972578433575
1761129541941019100,0.60701904296875,0.001395253750681877,-0.006449957024096511,0.0031087511291902044
1761129541960864000,0.626864013671875,0.0016945289582014082,-0.0011922168756951577,0.006658600514318095
1761129541980709000,0.646709228515625,-0.015663433077931402,0.008547143932478503,-0.00651615584056999
1761129542000555000,0.666554931640625,0.0024427169770002365,0.01259693077993579,-0.01760100441123359
1761129542020400000,0.686400146484375,0.008877133938670158,-0.0018835281746811233,-0.012994645410228985
1761129542040245000,0.706244873046875,-0.0020464111357927322,-0.013308583897340576,0.013307976542564574
1761129542060090000,0.726090087890625,0.001544306832551956,0.002177976510033477,0.00804614873669052
1761129542079935000,0.74593505859375,-0.0036930092990398403,0.014713043867785018,0.0027798091524804474
1761129542099781000,0.765781005859375,-0.005787351229786872,-0.0033833588279783724,-0.014307204154896317
1761129542119626000,0.7856259765625,-0.0014478607207536697,-0.010528026967833283,-0.002206849265602068
1761129542139471000,0.80547119140625,-0.0009983633875846863,-0.00611573380078189,-0.0069099609099037475
1761129542159316000,0.82531591796875,-0.0011485855132341385,0.00888249966695439,0.026036134770023634
1761129542179162000,0.845162109375,-0.013418284499645232,0.0076236746952985405,0.010923793952923732
1761129542199007000,0.865007080078125,-0.0011485855132341385,0.0010053160014678723,-0.013144595824531279
1761129542218852000,0.88485205078125,-0.00040039749443531033,0.001191333242994733,-0.019874913293123245
1761129542238697000,0.904697021484375,0.0018429975181818007,-0.003557044027606025,-0.0017943155212677084
1761129542258542000,0.9245419921875,-0.005788520273566245,0.008883173237100708,0.018850337752047926
1761129542278388000,0.944387939453125,0.0006458966881036758,0.012592948724562302,0.010069275465840473
1761129542298233000,0.964233154296875,0.00289046074450016,-0.0030709455776726825,-0.008945588073489488
1761129542318078000,0.984077880859375,-0.008182137411832808,-0.0030108083216939118,-0.020230576596688477
1761129542337923000,1.003923095703125,-0.014466916769742965,0.009555478441517334,-0.001357665111584356
1761129542357768000,1.023767822265625,0.004088730618357658,0.013743552664946763,0.011730462701799114
1761129542377614000,1.043614013671875,0.0036404023289680477,-0.0032006820377195253,0.009738481742050498
1761129542397459000,1.063458984375,-0.004888941085338592,-0.005024196254007984,-0.01620342170614749
1761129542417304000,1.083303955078125,0.00289221431016922,0.004509661727456841,-0.016402844135230406
1761129542437149000,1.10314892578125,0.0010971475869417189,0.0019358771331375465,-0.002253110405744519
1761129542456994000,1.122994140625,-0.0038408933371305463,0.010814116183505394,0.018116555001225786
1761129542476840000,1.14283984375,0.005287000492215156,0.006375704477797262,-0.0011847893377766013
1761129542496685000,1.16268505859375,-0.007732055556774139,0.0016428010542527771,-0.011493305503146256
1761129542516530000,1.182530029296875,-0.0018961890101432798,-0.006849571350531186,0.0007688295188505435
1761129542536375000,1.202375,0.003041267392039299,0.005334230317559558,0.0024916598396404876
1761129542556221000,1.222220947265625,0.0031909049957990644,0.005055207880202215,-0.0024067854346270907
1761129542576066000,1.242066162109375,-0.0030938743621110915,-0.0027617951468215324,0.010891862161410972
1761129542595911000,1.261910888671875,-0.005488076022267341,-0.004873234342841897,-0.009877011146617588
1761129542615756000,1.281756103515625,0.009475099831819534,0.00013538074954412877,-0.0071424539207044285
1761129542635601200,1.30160107421875,-0.0026449615508317946,0.005534234985243529,-0.0004991400237748167
1761129542655447000,1.321447021484375,0.010672785183787345,0.008568494964472484,0.011815433004935039
1761129542675292000,1.3412919921875,-0.001298223116993904,0.0017793919467716476,-0.0008182010689313755
1761129542695137000,1.361136962890625,-0.004441197317838669,-0.004885032095201313,-0.007079588705633068
1761129542714982100,1.380982177734375,-0.009978373178839683,0.006227133169828448,-0.0015830536698078503
1761129542734827000,1.400826904296875,-0.0023468553870916366,0.0031554683562368155,-0.007882062482470064
1761129542754673000,1.4206728515625,-0.010725976675748825,0.0021703754421789198,0.004438265575235709
1761129542774518000,1.44051806640625,-0.0012988076388835907,0.006763886378053576,0.0010647659875685348
1761129542794363100,1.460363037109375,-0.012521627920866012,0.0010992345127509907,-0.004472611373654217
1761129542814208000,1.4802080078125,-0.00234627086520195,-0.0012031172956223598,-0.0035909953879134262
1761129542834053000,1.50005322265625,-0.0023451018214225767,0.001979152302572038,-0.0005863371041486971
1761129542853899000,1.51989892578125,-0.005487491500377655,0.007834826378081925,0.00908795226131333
1761129542873744100,1.539744140625,-0.011173135921359061,0.00015731630342779681,-0.004063191464191186
1761129542893589000,1.559589111328125,0.00004968436062335968,-0.0005540194368571974,0.007437676861725049
1761129542913434000,1.57943408203125,-0.005786182186007499,-0.002816025535110384,-0.00579159186759789
1761129542933278700,1.59927880859375,-0.0003998129725456238,-0.002874964064557571,-0.008327331165093346
1761129542953124900,1.619124755859375,-0.004290975192189217,0.00515790563627379,0.003111376911116531
1761129542972969700,1.6389697265625,-0.0008493103057146072,-0.00267560556755634,-0.0010327114692918256
1761129542992814800,1.65881494140625,-0.007283142745494842,0.004047266096808016,-0.0028603652878693535
1761129543012659700,1.67865966796875,0.000048515316843986505,-0.00043701687750872224,-0.004852575147303286
1761129543032504800,1.6985048828125,0.005884966385364532,0.00700518660392845,0.002846223739729612
1761129543052350700,1.718350830078125,-0.0018956044882535933,0.0024998745413147842,0.0026968681221158477
1761129543072195800,1.73819580078125,-0.008479074531793593,0.008552881836809682,0.0005128157810337143
1761129543092040700,1.758040771484375,-0.0002484218031167984,0.0005961712282849475,-0.0036947611522424265
1761129543111885800,1.7778857421875,-0.00144610715508461,0.008161649462941567,-0.008775063516150112
1761129543131730700,1.797730712890625,-0.0033908114820718764,0.0006527031715144403,-0.001554819664233946
1761129543151576800,1.817576904296875,0.0024450550645589825,0.0073094759132829494,0.010081681714620207
1761129543171421700,1.837421630859375,-0.0005476970106363296,-0.0022618576844921335,-0.009383164927535107
1761129543191266800,1.857266845703125,0.0006494038194417953,0.0003675318378722295,-0.004485850451962324
1761129543211111700,1.877111572265625,-0.006833060890436172,0.007414854250208008,-0.005716171989985742
1761129543230957800,1.896957763671875,-0.00009936872124671936,0.0016476347762858494,-0.0043415272024925795
1761129543250802700,1.916802734375,-0.0011480009913444518,0.011468753300490788,0.002755082278244663
1761129543270647800,1.936647705078125,-0.010724807631969452,-0.0011000679131015203,-0.005323493723591673
1761129543290492700,1.95649267578125,0.002742576706409454,0.0025606739509967153,0.005195819644001312
1761129543310337800,1.976337890625,-0.00010053776502609253,-0.0010955721177859231,-0.008481253359970287
1761129543330183700,1.99618359375,-0.00623626404106617,0.001734431710327044,-0.002558041319204494
1761129543350028800,2.01602880859375,-0.0083306059718132,0.003058727700205054,0.005156894710232154
1761129543369873700,2.035873779296875,-0.003093289840221405,-0.003332224579073954,0.0036491330538730832
1761129543389718800,2.05571875,-0.005936404311656951,0.006573706701351329,-0.0031623598921491063
1761129543409564000,2.07556396484375,-0.003541618129611015,-0.001755163971101865,-0.011849495104741072
1761129543429409800,2.095409912109375,0.0006482347756624221,0.0015783780655125154,-0.0007721574120310833
1761129543449254700,2.115254638671875,-0.002943652236461639,0.003989213483349885,0.004202816847301437
1761129543469099800,2.135099853515625,0.001994388687610626,0.00364966334765777,0.0016735672269191126
1761129543488945000,2.15494482421875,-0.005189385336637497,-0.0053312095266999674,-0.005211094844946637
1761129543508789800,2.174789794921875,0.00767886406481266,-0.00237410415362101,-0.006901356907517765
1761129543528635600,2.1946357421875,0.0015431377887725828,0.004410153725603595,-0.0006525793031061766
1761129543548480800,2.214480712890625,-0.009380991807579994,0.009008532632840797,0.00585393592203909
1761129543568325600,2.23432568359375,-0.00743570295870304,-0.0033978599940775894,0.0010246109320491087
1761129543588170800,2.254170654296875,0.004385667738318443,-0.00236586604823824,-0.010253027685044798
1761129543608016000,2.274015869140625,0.0030389293044805524,0.00872980702300556,0.009396721382963005
1761129543627861800,2.29386181640625,0.0036386487632989882,-0.0023345804274082184,-0.0023394033038202904
1761129543647706600,2.31370654296875,0.0007955342918634414,0.0043462239272077565,-0.006949007428792538
1761129543667551700,2.3335517578125,-0.006087795481085777,0.004713454370980617,0.006376902633506688
1761129543687396900,2.35339697265625,0.004087561574578285,0.006058738349960185,0.0013494698178634279
1761129543707241700,2.37324169921875,-0.002347439908981323,0.005759387793915812,-0.003246696011867607
1761129543727087600,2.393087646484375,-0.0024970775127410886,0.000003137238579802215,0.00617715255250514
1761129543746932700,2.4129326171875,0.002889291700720787,0.005472538243129384,-0.0032435833186405943
1761129543766777900,2.43277783203125,-0.006239771172404289,0.0006870940648834221,0.002978646488851518
1761129543786622700,2.452622802734375,0.007826748102903366,-0.0013577096357126719,0.0005238646147219697
1761129543806467800,2.4724677734375,-0.006538461858034134,0.001370274573052302,-0.0013296343186986633
1761129543826313700,2.492313720703125,-0.005041501298546791,-0.0007794713563402183,-0.0010372649176453705
1761129543846158800,2.512158935546875,0.0066296472728252405,0.0004310620607575401,-0.0028963584790355525
1761129543866003700,2.532003662109375,0.0009445873737335205,0.007396503459475934,-0.009611619942390825
1761129543885848800,2.551848876953125,-0.004741641569137573,-0.007866388276836368,-0.003345616637720377
1761129543905693700,2.571693603515625,-0.0023468553870916366,-0.0024350907929707316,-0.0034905472419661234
1761129543925539800,2.591539794921875,-0.0011503390789031982,-0.0009113952068961225,-0.0027974629693577296
1761129543945385200,2.61138525390625,-0.005790858361124992,0.006234800453053321,-0.0060630183745000975
1761129543965230300,2.631230224609375,-0.0035457097828388213,0.004103574277751613,0.0019652824657794554
1761129543985075200,2.6510751953125,0.008275660914182663,0.002829611102468334,-0.0018274540308222639
1761129544004920300,2.67092041015625,-0.007585925084352493,0.0016785413712030275,-0.006853786301345099
1761129544024766200,2.69076611328125,-0.007886369335651398,-0.0008883796574897132,-0.00011024573746544774
1761129544044611300,2.710611328125,-0.0030979660153388974,0.005105113719822839,0.004214298935007537
1761129544064456200,2.730456298828125,0.00004442366361618042,-0.0013274537780554965,0.003013342201252817
1761129544084301300,2.75030126953125,0.0009422492861747741,0.00430485302049201,-0.006189093010404031
1761129544104146200,2.770146240234375,0.009022095367312431,0.00032243232082109895,-0.0026978328115626936
1761129544123992300,2.789992431640625,-0.010730068328976631,0.0035181436391896566,0.001446744192612823
1761129544143837200,2.809837158203125,-0.0022007249146699906,0.002826074288378004,-0.00006322083727573044
1761129544163682300,2.829682373046875,0.004533551776409149,0.0013404890728532337,-0.002966914951862418
1761129544183527200,2.849527099609375,-0.01282499478161335,0.00024309260745067148,0.005883051847846946
1761129544203372300,2.869372314453125,-0.0013028992921113966,0.0017274425638257524,0.007926341157258139
1761129544223218200,2.88921826171875,0.0012409399718046187,0.004568413027236238,0.0011055968965229112
1761129544243063300,2.909063232421875,-0.00848667331635952,0.006009759525523986,0.0027307977911812486
1761129544262908200,2.928908203125,-0.007289572486281395,-0.003238201036513783,-0.0037742641207500127
1761129544282753300,2.948753173828125,0.0048310734182596205,0.005769614643696695,0.0009693639094970421
1761129544302598100,2.96859814453125,0.010218027153611182,0.00625642091310583,0.01322302222244907
1761129544322444300,2.9884443359375,0.0021381810724735257,-0.0018974516687565483,-0.0013711873176827792
1761129544342289200,3.0082890625,0.0030360066950321195,0.003395837000350002,0.0030314715129876276
1761129544362134300,3.02813427734375,0.00632861849963665,-0.0037155225249473002,0.001115229520437424
1761129544381979100,3.047979248046875,0.00004442366361618042,0.0009656735442462377,-0.006012758625141577
1761129544401824300,3.06782421875,-0.005791442883014679,0.015916320993611587,0.0028879616850928866
1761129544421670100,3.087670166015625,0.0006429740786552428,0.0018076727597624994,0.007628704780153929
1761129544441515300,3.107515380859375,-0.006090133568644523,0.0006288907543756067,-0.00535222091951
1761129544461360000,3.127360107421875,0.002588262927532196,-0.0010205455366405658,0.0035181710386532356
1761129544481205200,3.147205322265625,0.0022889877200126646,0.003019952892663423,-0.002478349408562644
1761129544501050000,3.167050048828125,-0.002799275329709053,0.0009908879006048665,0.004207656848378247
1761129544520896300,3.186896240234375,0.0013905775755643844,0.008254003921512048,0.011270296702499035
1761129544540741000,3.2067412109375,-0.0044458734929561615,0.0033011010717367752,0.0014944563626806484
1761129544560586200,3.226586181640625,0.0018394903868436813,-0.0012984971116296947,-0.005348979791297461
1761129544580431000,3.24643115234375,-0.00010579846203327178,0.004791355612513143,-0.0013549388649582396
1761129544600276200,3.266276123046875,-0.004893617260456085,-0.0009679134503938257,0.011694333084137178
1761129544620122000,3.2861220703125,0.0022889877200126646,0.0006209631762467325,-0.004168341472253086
1761129544639967200,3.30596728515625,0.00243862532377243,-0.0023268035463290286,0.0005515580517123453
1761129544659812000,3.32581201171875,-0.006539630901813507,0.0013334565438679418,-0.001780144861197914
1761129544679657200,3.3456572265625,0.0010913023680448532,0.0031115789821604266,0.0072819160486775215
1761129544699502300,3.36550244140625,-0.0008534019589424133,0.0005845196063979528,-0.0005187808725837385
1761129544719348200,3.38534814453125,0.006030512335896492,0.00022627390339039264,-0.008849103716606624
1761129544739193000,3.405193115234375,-0.0032470190972089764,-0.004337782609136775,-0.004460283327510114
1761129544759038200,3.4250380859375,0.004234861090779305,0.00406979987231316,-0.0004926360761077376
1761129544778883300,3.44488330078125,-0.002648468682169914,0.0020639810418128035,0.00985337910928065
1761129544798728200,3.464728271484375,-0.0044447044491767885,0.004707787248597014,-0.0010403918814263307
1761129544818574000,3.484573974609375,-0.009082885643839836,0.0027385056027793325,-0.0010691824386041843
1761129544838419200,3.504419189453125,0.006629062750935554,-0.0012639486713451333,-0.0084804085431766
1761129544858264300,3.524264404296875,-0.00609071809053421,-0.004976861397386528,-0.005622002316953149
1761129544878109200,3.544109130859375,-0.00369651643037796,0.0046918407607940025,-0.004167251772753661
1761129544897954300,3.563954345703125,0.005880874732136726,0.0013793529286514968,-0.004088811104281922
1761129544917800200,3.58380029296875,0.0016904373049736023,0.007224281847861129,-0.0070991941634682
1761129544937645000,3.60364501953125,0.004383329650759697,0.0006888681801501661,-0.0005308246492932084
1761129544957490000,3.623489990234375,-0.012376081970334052,-0.008472848003695252,-0.0045717694615246725
1761129544977335000,3.6433349609375,0.004234861090779305,0.01178020528628258,0.0001888142701005563
1761129544997180000,3.663179931640625,-0.013422376152873039,-0.005376452890934888,0.003829898731547291
1761129545017026000,3.683026123046875,-0.00369651643037796,-0.0033360262546455488,0.005874039707618067
1761129545036871000,3.702870849609375,-0.00609071809053421,0.0012361656152759678,-0.0032038683670049064
1761129545056716000,3.722716064453125,0.005430792877078056,-0.0004607082803500816,-0.0049920875076262744
1761129545076561000,3.742560791015625,0.0037847792357206343,-0.001395835989282932,0.003152792912782752
1761129545096406000,3.762406005859375,0.0048322424620389935,0.0009345157875795848,-0.00777131898808293
1761129545116252000,3.782251953125,0.007824994537234306,-0.0003558687995420769,0.0013942256999755044
1761129545136097000,3.802096923828125,0.0009410802423954009,-0.005207521498238202,-0.0008739960807550233
1761129545155942000,3.82194189453125,-0.008186229065060615,-0.004718196761468425,-0.000559782457363326
1761129545175787000,3.841787109375,0.00004442366361618042,0.006675265096395742,0.0011895682608825155
1761129545195631900,3.8616318359375,-0.0036959319084882733,0.006135221669252496,0.01149713457818143
1761129545215478000,3.88147802734375,0.006030512335896492,-0.004440562563599087,0.0017068809788761427
1761129545235323000,3.901322998046875,-0.006239771172404289,-0.002015385809866711,0.0026563682900130514
1761129545255168000,3.92116796875,-0.004594342052936554,0.00016837427027057857,0.005522482327834586
1761129545275012900,3.941012939453125,-0.005641805279254913,0.008459684844734148,-0.0009193593176431022
1761129545294858000,3.96085791015625,0.0043839141726493835,0.0019996471013291736,-0.006137058574956608
1761129545314704000,3.980703857421875,-0.0014519523739814758,-0.0023225246634334326,-0.008905552319801063
1761129545334548000,4.0005478515625,-0.008783610436320304,-0.002570126765931491,-0.005842408739382517
1761129545354393000,4.02039306640625,0.007527472895383834,0.003391811562492512,-0.005381344836828066
1761129545374239000,4.040239013671875,-0.006388824254274368,0.0026241014258936044,0.006382822630106239
1761129545394084000,4.060083984375,-0.002049333745241165,0.0047118104031658725,0.003669678655802272
1761129545413929000,4.079928955078125,-0.004443535405397415,0.004107857727224473,-0.004856944220099831
1761129545433774000,4.099774169921875,-0.0005529577076435089,0.0011834330643294378,0.0016275167201529256
1761129545453619000,4.119618896484375,-0.009531213933229445,-0.001196169248316437,0.00003968298559484537
1761129545473465000,4.139465087890625,-0.0033960721790790554,0.005548660802817903,0.0034596806045999982
1761129545493310000,4.15931005859375,-0.009081716600060463,0.00010553131726337596,0.009366846263685146
1761129545513155000,4.179155029296875,-0.0013005612045526504,-0.0013961510831140911,-0.01303443171463441
1761129545533000000,4.199,-0.007734978166222572,0.008292310654884203,0.0020296906131436116
1761129545552845000,4.218844970703125,-0.01267243456840515,0.012266744410921819,-0.008196149954164867
1761129545572691000,4.23869091796875,-0.009081132078170776,0.009793221303704195,0.007065142909283167
1761129545592536000,4.2585361328125,0.0046855274677276605,-0.002738813846744597,-0.0009368932618672261
1761129545612381000,4.278380859375,-0.00010287585258483886,0.0028581978761358187,-0.003989267711454886
1761129545632226000,4.29822607421875,-0.010128595304489136,0.00631914513510419,0.000779705964247114
1761129545652071000,4.31807080078125,-0.0018991116195917128,-0.0009015930488007142,-0.0034939230842079266
1761129545671917000,4.3379169921875,0.001991466078162193,0.0014689651575754395,-0.004689486119392677
1761129545691762000,4.357761962890625,-0.0018991116195917128,0.0005527179623371921,-0.0050300625933246915
1761129545711607000,4.37760693359375,0.0007949497699737549,0.004445846093492582,-0.001025307905903901
1761129545731452000,4.397451904296875,0.004086392530798912,-0.003710350876196753,-0.0036750717835500836
1761129545751297000,4.417297119140625,0.009772621473670005,0.010106214509322307,-0.003749970500532072
1761129545771144000,4.43714404296875,-0.002198386827111244,0.0031626127663650547,0.009365600729736615
1761129545790988800,4.45698876953125,0.0036374797195196148,0.004834247189457528,-0.009885692209994886
1761129545810834000,4.476833984375,-0.005640051713585853,0.0033313203967758453,0.0024752487026009472
1761129545830679000,4.496678955078125,-0.013270984983444213,0.0023427066516480406,-0.00743687029001594
1761129545850524000,4.51652392578125,-0.005191138902306556,0.0007364907311392016,-0.004026013817047351
1761129545870369800,4.536369873046875,-0.001301145726442337,-0.0014976843619835562,0.010160839906544424
1761129545890215000,4.55621484375,0.012166238611936568,-0.0034791816019802352,-0.008607991291221697
1761129545910060000,4.57606005859375,-0.007286649876832961,-0.002643922654504422,-0.0001561929254210554
1761129545929905000,4.59590478515625,0.004534720820188522,0.00717802013689652,-0.0006363924991746898
1761129545949750000,4.61575,-0.006838321587443351,0.005721371038199868,-0.003177772661234485
1761129545969596000,4.635595947265625,-0.013422376152873039,-0.0010488263496314174,-0.0019578503612836355
1761129545989441000,4.65544091796875,-0.008633972832560538,0.007763151664647739,-0.003964682971936417
1761129546009286000,4.675285888671875,-0.0026490532040596006,0.0021058154561207627,-0.0058091206744225925
1761129546029131000,4.695131103515625,-0.0001052139401435852,0.0006613888014690019,-0.00184047334259958
1761129546048976000,4.714975830078125,-0.008035422417521476,0.006054918408079538,0.0076236838284530675
1761129546068822000,4.734822021484375,0.003487257593870163,0.00742519298113184,-0.011731774451117961
1761129546088667000,4.7546669921875,-0.012673603612184524,0.008701138050947337,-0.0004111632003332488
1761129546108512000,4.774511962890625,-0.00758650960624218,0.0029022584968595765,0.0007740131548664066
1761129546128356900,4.79435693359375,-0.0021989713490009307,0.001889622272038832,-0.0006158132187381852
1761129546148202000,4.814201904296875,-0.004893032738566398,0.00812006164380582,0.0006816427132755052
1761129546168047900,4.8340478515625,-0.005790858361124992,0.002730274347262457,-0.00041483130351989525
1761129546187893000,4.85389306640625,-0.006837737065553665,0.004594442517636343,-0.007937245572940446
1761129546207737900,4.87373779296875,-0.003995207116007805,-0.0028619447527802547,-0.005699626138916937
1761129546227583000,4.8935830078125,0.002439209845662117,-0.0025407134417793713,0.0072522755373065585
1761129546247427800,4.913427734375,0.0027390695750713345,0.0016010123057174496,0.005032159223110648
1761129546267274000,4.93327392578125,0.0033370354682207104,-0.000284244318457786,0.0009782099404779727
1761129546287118800,4.953118896484375,-0.010429624077677726,-0.008067552855145186,-0.0028460553471930322
1761129546306964000,4.9729638671875,0.0021399346381425857,-0.0003515077182557434,-0.0038432165833131872
1761129546326808800,4.992808837890625,0.002589431971311569,0.004814921434479765,-0.008151104094396578
1761129546346654000,5.012654052734375,0.005132686713337898,0.0130214923179592,-0.006760213137467508
1761129546366499800,5.032499755859375,0.00962123030424118,0.010357510972826275,-0.0017707165916159282
1761129546386345000,5.052344970703125,-0.003547463348507881,0.001416874210734386,0.0008700893739063758
1761129546406189800,5.07218994140625,-0.002050502789020538,-0.003309702220011968,-0.0015280070058332057
1761129546426035000,5.092034912109375,-0.003845569512248039,0.002042908571031876,-0.00142630019702774
1761129546445880000,5.111880126953125,0.013512392523884772,-0.001436387195379939,0.005005320306890644
1761129546465726000,5.131725830078125,0.011267828467488288,-0.00556221440413501,-0.00592408140291227
1761129546485570800,5.15157080078125,-0.002049333745241165,-0.0016568295796052551,-0.0022838394749705913
1761129546505416000,5.171416015625,-0.002498246556520462,0.005666037821501959,-0.007920294438139535
1761129546525260800,5.1912607421875,0.0009434183299541472,-0.0034018557491828686,-0.0022573264982027465
1761129546545106000,5.21110595703125,0.0063303720653057095,0.004402931683661882,-0.004543988117921981
1761129546564951800,5.230951904296875,-0.00519055438041687,-0.0031396360328653826,-0.0024279680740844924
1761129546584797000,5.250796875,0.001692190870642662,0.0006644278586376458,-0.0030565574343607294
1761129546604641800,5.270641845703125,-0.007136427751183509,0.0026102783965179697,0.0017526329456537496
1761129546624487000,5.29048681640625,-0.005340776506066322,0.005124307044059969,-0.0002942679555504583
1761129546644332000,5.31033203125,0.005433130964636802,-0.003923020945920143,-0.004164481001999229
1761129546664177000,5.330177001953125,0.00019523031115531922,0.0056823656185064466,0.004607762081868714
1761129546684022800,5.350022705078125,0.007826163581013679,0.002670333454106003,-0.0032958027004671747
1761129546703868000,5.369867919921875,-0.002348608952760696,0.004105161163350567,-0.0038915572285768574
1761129546723713000,5.389713134765625,0.0018406594306230545,0.005312785670731682,-0.006896940456482116
1761129546743558000,5.409557861328125,-0.0010024550408124922,-0.0022819803072023203,0.00540714942329796
1761129546763403000,5.429403076171875,0.010070143115520477,-0.002144179271708708,-0.0012121842347783966
1761129546783249000,5.449248779296875,0.002289572241902351,0.0058929556122864594,0.0001521035554818809
1761129546803094000,5.469093994140625,-0.011926000115275382,0.005667168049374595,-0.006278383866453077
1761129546822939000,5.48893896484375,-0.002648468682169914,-0.003803958860225975,-0.009344813099212479
1761129546842784000,5.508783935546875,0.002289572241902351,-0.005197648558195214,0.0018341052506060803
1761129546862628900,5.52862890625,-0.003845569512248039,-0.0025250797645188865,-0.005250440474646166
1761129546882475000,5.54847509765625,0.0013905775755643844,0.0009798093841644003,-0.005325429381529102
1761129546902319900,5.56831982421875,0.00004442366361618042,-0.006825343374861404,0.003768533066284726
1761129546922165000,5.5881650390625,-0.0026490532040596006,0.007553381371486466,0.0030870427625253796
1761129546942010000,5.608010009765625,0.009472761744260788,0.0024054377235122955,-0.006261710151220904
1761129546961855200,5.627855224609375,-0.013721066838502884,-0.0008669532769708893,-0.0059786805423151235
1761129546981701000,5.647701171875,-0.0008516483932733535,0.0043191578237689095,0.009494188124779611
1761129547001546200,5.667546142578125,0.003338204512000084,0.004883214597450569,-0.012875350429094396
1761129547021391000,5.68739111328125,-0.006088380002975464,-0.002413426950434223,-0.005833261314302217
1761129547041236200,5.707236328125,-0.0007014262676239013,-0.008133928055665455,-0.001176772711391095
1761129547061081000,5.7270810546875,0.002291325807571411,0.0066481122279888945,0.007495355015847599
1761129547080927200,5.74692724609375,0.0064805941909551615,0.002490727687056642,-0.003476272692263592
1761129547100772000,5.766772216796875,-0.0007025953114032745,0.008087917506450321,0.00033520617907051927
1761129547120617200,5.7866171875,-0.003995207116007805,0.005495131384138949,0.002632839000664535
1761129547140462000,5.806462158203125,0.00034486791491508483,0.0007118175141862593,-0.007472716209065401
1761129547160307200,5.82630712890625,-0.00010462941825389861,0.0015770788742811418,-0.00003695103074715007
1761129547180153000,5.846153076171875,-0.0025000001221895216,-0.004569657419540453,0.004932071836767136
1761129547199998200,5.865998291015625,0.00243862532377243,0.0033069942396949043,-0.0046839839646127075
1761129547219843000,5.885843017578125,-0.010878536888957024,0.007187984408484772,-0.0019298732256807852
1761129547239688200,5.905688232421875,0.015457681372761725,-0.0015853329626843331,0.00027812282163649794
1761129547259533000,5.925532958984375,0.0021399346381425857,0.002271408680838067,0.00441725589489215
1761129547279379200,5.945379150390625,-0.0030979660153388974,-0.00044361786494264376,-0.006400070592429256
1761129547299224000,5.96522412109375,-0.003547463348507881,-0.005469503752538003,-0.0061391181013023014
1761129547319069200,5.985069091796875,-0.002799275329709053,-0.0016363598970230667,-0.005894783384836046
1761129547338914000,6.0049140625,0.015605565410852432,-0.002009832851914689,0.009526830019056796
1761129547358759200,6.02475927734375,0.0051303486257791514,-0.000135529163305182,-0.0002116083405097015
1761129547378604300,6.044604248046875,-0.004745733222365379,-0.004956302666547708,-0.003895275564113399
1761129547398450200,6.0644501953125,-0.001603343543410301,-0.0015171516808564773,0.0004755188320588786
1761129547418295000,6.084294921875,-0.0045960956186056135,0.0015071988257113844,-0.011531363358057569
1761129547438140200,6.10414013671875,0.006327449455857276,0.0017723114687250925,0.004947027948126196
1761129547457985300,6.1239853515625,-0.0062421092599630355,-0.003661372051760554,0.0012039883702353107
1761129547477831200,6.1438310546875,-0.0029500819772481915,0.004643622271472123,-0.005195989749004365
1761129547497676000,6.163676025390625,-0.004745733222365379,-0.008115643480303697,-0.008551046072749886
1761129547517521200,6.183521240234375,-0.0002566051095724106,0.0009437379903625697,-0.001591727312497096
1761129547537366300,6.2033662109375,0.001838321343064308,0.000109479123307392,-0.0011395802228711545
1761129547557211100,6.223211181640625,-0.0019026187509298324,0.010352837080997414,-0.004415518312243512
1761129547577056300,6.24305615234375,0.0016880992174148558,-0.006720876070100348,0.0014033742667001205
1761129547596902100,6.262902099609375,0.005129764103889465,0.003156717315118294,-0.004284435853548348
1761129547616747300,6.282747314453125,-0.0011550152540206909,0.0037143648976110852,0.006258480439451522
1761129547636592000,6.302592041015625,0.002286649632453918,-0.001659957685030531,0.0037271159229741897
1761129547656437200,6.322437255859375,0.0033346973806619644,-0.00701323747964343,-0.0004476204699138179
1761129547676282000,6.3422822265625,0.0006406359910964965,0.0014884964085300453,-0.0101381485841237
1761129547696128300,6.362128173828125,-0.002052256354689598,-0.005476721227902453,-0.0020460286849469413
1761129547715973000,6.38197314453125,0.0010907178461551665,-0.004271880049363244,0.007309905171545688
1761129547735818200,6.401818359375,-0.003099135059118271,0.0024589808419230395,0.00017649821122176943
1761129547755663000,6.4216630859375,-0.010581015247106551,0.004284228074282873,-0.0014400381739018485
1761129547775508200,6.44150830078125,-0.00923427681326866,-0.004980713305308018,-0.009425243082904489
1761129547795354000,6.46135400390625,0.005431377398967743,-0.004728843736357521,-0.0014821500077785458
1761129547815199200,6.48119921875,0.004533551776409149,0.0008530777319567278,0.000793739626999013
1761129547835044000,6.501044189453125,0.0043839141726493835,0.002992076221760362,-0.007216364544531098
1761129547854889200,6.52088916015625,0.007227613165974617,-0.009379098961304407,-0.007815438974311108
1761129547874734000,6.540734130859375,-0.004743395134806633,-0.004835861474520061,0.0029923913155915213
1761129547894580200,6.560580322265625,0.004234861090779305,0.0021719805940869264,-0.00838974999723723
1761129547914425000,6.580425048828125,-0.0017506430596113203,-0.0033175498830387367,-0.0018884886192332487
1761129547934270200,6.600270263671875,0.0013917466193437576,-0.017509985676512588,0.003679536754469154
1761129547954115000,6.620114990234375,-0.004594342052936554,-0.00923328358271392,-0.00010077979362104088
1761129547973960000,6.6399599609375,-0.009681436058878898,0.015446783236123154,-0.004657082257955335
1761129547993806000,6.65980615234375,0.00573123712837696,-0.00008973780979868025,-0.0026203785237798
1761129548013651200,6.679651123046875,-0.010129764348268509,-0.004360866657202132,-0.0008718908886366989
1761129548033496000,6.69949609375,0.006929507002234459,0.009833258769859094,-0.0025299876934324855
1761129548053341200,6.719341064453125,-0.004442950883507728,0.01832873873047065,-0.010362475983955665
1761129548073186000,6.73918603515625,0.0022907412856817246,0.004952475874801166,0.00013131877906853332
1761129548093031000,6.759031005859375,0.00004617722928524017,0.0003836153229931369,-0.009127217975910753
1761129548112877000,6.778876953125,0.0016927753925323485,0.008435520801146049,-0.010165383650921284
1761129548132722200,6.79872216796875,-0.0020487492233514783,-0.0013216519416426307,0.0015844835793133824
1761129548152567000,6.818567138671875,0.003487257593870163,0.005121925574017223,0.0001620472774724476
1761129548172412200,6.838412109375,0.002589431971311569,0.019370103292854036,-0.008066368969989707
1761129548192257000,6.858257080078125,-0.007585340562462807,-0.0019284792779712006,-0.007372780090593733
1761129548212103200,6.878103271484375,0.0031879823863506314,-0.01865589060889324,0.006262534418416908
1761129548231948000,6.897947998046875,-0.009231938725709914,0.010152225058537441,-0.006600563883880386
1761129548251793200,6.917793212890625,-0.003995207116007805,0.020236460631492082,0.0005743886547395959
1761129548271638300,6.93763818359375,-0.005641220757365227,-0.008190902956889476,-0.002332446694181999
1761129548291483000,6.95748291015625,0.0018406594306230545,-0.009835418760904576,-0.018128637023019836
1761129548311329000,6.9773291015625,-0.010280570995807647,0.012757324956438968,-0.0048312321068195154
1761129548331174100,6.997174072265625,-0.001900280663371086,0.011376268694468308,0.0008751685494673438
1761129548351019300,7.017019287109375,0.0028869536131620405,-0.00816701290793717,-0.0018897615526453592
1761129548370864000,7.036864013671875,-0.006389408776164054,0.006331979500502348,-0.004021914743131492
1761129548390709000,7.056708984375,-0.0027981062859296795,0.002428955596417654,-0.012011165639589308
1761129548410555100,7.07655517578125,-0.0033966567009687423,0.0008750087192631326,0.0007310724872164428
1761129548430400300,7.096400146484375,-0.006689268505573272,-0.004670355014770757,0.009441405341483187
1761129548450245000,7.1162451171875,-0.0044447044491767885,-0.003871137778344564,0.0025469325491896595
1761129548470090200,7.13609033203125,0.005579845958948135,-0.000465391305333469,-0.011500148519175126
1761129548489934800,7.155934814453125,-0.0023509470403194426,0.004016507915651891,0.012627311076823388
1761129548509781200,7.17578125,0.0012397709280252457,0.0065233761700452305,-0.0024978606807417236
1761129548529626000,7.195626220703125,-0.005793196448683738,0.004997089051373769,0.005310575447336305
1761129548549471200,7.21547119140625,-0.01073182189464569,0.001616579767607618,-0.008827480402443324
1761129548569316000,7.235316162109375,-0.0060930561780929565,-0.005553528774180449,-0.012846418878843541
1761129548589161200,7.2551611328125,-0.003100304102897644,-0.005490656138421036,-0.016575911705283216
1761129548609005800,7.275005859375,0.001239186406135559,-0.005170283343945629,0.005299479806231102
1761129548628852200,7.294852294921875,-0.009683774146437644,0.004514853925805073,0.0032974700719903918
1761129548648697000,7.314697021484375,-0.0029500819772481915,0.0038661739088594912,-0.011544646389671833
1761129548668542200,7.334542236328125,-0.007288987964391708,0.0014016629418707452,-0.008829689484194386
1761129548688387000,7.354386962890625,0.0064770870596170425,-0.005847787596576381,-0.00044534403114812447
1761129548708232000,7.37423193359375,-0.0036976854741573332,-0.00042303401792887597,0.006253897308345767
1761129548728078000,7.394078125,-0.0010047931283712387,0.00658643146889517,0.010408845009485957
1761129548747923200,7.413923095703125,-0.004745733222365379,-0.007774465359817259,-0.000009931163903092965
1761129548767768000,7.43376806640625,-0.009384498938918113,0.00008086495017632841,-0.022470854920323472
1761129548787613200,7.45361328125,0.0021370120286941527,0.006522339557006489,-0.0023859920958813744
1761129548807458000,7.4734580078125,0.002286649632453918,0.0045345541401184165,0.013736686816031579
1761129548827304200,7.49330419921875,-0.00414835185110569,-0.002117763905529864,0.002821294223627774
1761129548847149000,7.513149169921875,-0.005345452681183815,-0.004221175058721565,0.005238412110134959
1761129548866994200,7.532994140625,0.002583586752414703,-0.004150199031608645,-0.012444660544383805
1761129548886839000,7.552839111328125,0.014552256965637207,0.014037121934175957,-0.030863340297341346
1761129548906684000,7.572683837890625,-0.007144026535749435,-0.01139270608932711,0.007042603425556444
1761129548926530000,7.592530029296875,0.0010877952367067335,0.005719179081113543,0.02270139172358904
1761129548946375700,7.612375732421875,-0.003999298769235611,0.019577654229465405,0.007641149274018244
