time,seconds_elapsed,z,y,x
1761132299192034600,0.12003466796875,0.29184088110923767,-0.20410534739494324,-0.21319197118282318
1761132299222046500,0.15004638671875,0.29184088110923767,-0.20410534739494324,-0.21319197118282318
1761132299232054800,0.1600546875,0.29184088110923767,-0.20410534739494324,-0.21319197118282318
1761132299242061000,0.17006103515625,0.2539672255516052,0.9547060132026672,-1.1032226085662842
1761132299252066000,0.180066162109375,0.32910364866256714,0.9467647671699524,-1.073290228843689
1761132299262070300,0.1900703125,0.3773620128631592,0.8276460766792297,-1.047023057937622
1761132299272073700,0.20007373046875,0.4054618179798126,0.6230061650276184,-1.036027431488037
1761132299282077000,0.210076904296875,0.4170682430267334,0.349338561296463,-1.0293079614639282
1761132299292079600,0.22007958984375,0.33276882767677307,0.03107776865363121,-0.9908234477043152
1761132299302082300,0.230082275390625,0.30833423137664795,-0.08009970188140869,-0.8851437568664551
1761132299312084500,0.24008447265625,0.36331209540367126,-0.1460731476545334,-0.7837401032447815
1761132299322086700,0.250086669921875,0.45433104038238525,-0.2407572716474533,-0.6633996367454529
1761132299332088600,0.260088623046875,0.517861008644104,-0.2719113826751709,-0.4917465150356293
1761132299342090200,0.27009033203125,0.5355761051177979,-0.23770293593406677,-0.3066543638706207
1761132299352092000,0.280091796875,0.5007568001747131,-0.2114357352256775,-0.13744467496871948
1761132299362093300,0.29009326171875,0.43050727248191833,-0.15218180418014526,0.00427605677396059
1761132299372095000,0.300094970703125,0.4109596014022827,0.0164170041680336,0.07635815441608429
1761132299382096400,0.310096435546875,0.3627012372016907,-0.28962647914886475,-0.16798794269561768
1761132299392097500,0.32009765625,0.33826664090156555,-0.2303725630044937,-0.2840523421764374
1761132299402097700,0.33009765625,0.34987306594848633,0.368886262178421,-0.3176499307155609
1761132299412098800,0.340098876953125,0.3608686327934265,0.9705885052680969,-0.4392121136188507
1761132299422100000,0.350099853515625,0.31444287300109863,1.0011317729949951,-0.7238753437995911
1761132299432101000,0.36010107421875,0.2509129047393799,0.8050440549850464,-1.06657075881958
1761132299442102000,0.37010205078125,0.17638733983039856,0.4702898859977722,-1.4288138151168823
1761132299452103200,0.380103271484375,-0.08567385375499725,-0.2755765914916992,-2.0189096927642822
1761132299462104000,0.39010400390625,-0.5071708559989929,-1.1039098501205444,-2.8014280796051025
1761132299472105000,0.40010498046875,-0.6892086863517761,-2.01715350151062,-3.573561668395996
1761132299482105900,0.41010595703125,-0.44058656692504883,-2.817997694015503,-3.8643336296081543
1761132299492106800,0.420106689453125,0.04382958263158798,-3.0256919860839844,-3.3964107036590576
1761132299502107600,0.430107666015625,0.6534730792045593,-2.44659161567688,-2.280970811843872
1761132299512107500,0.440107421875,1.1812607049942017,-1.4649312496185303,-0.8051204085350037
1761132299522107600,0.450107666015625,1.723708987236023,-0.5816200971603394,0.4196644127368927
1761132299532107500,0.460107421875,2.1183278560638428,0.13981178402900696,1.0543533563613892
1761132299542107600,0.470107666015625,2.2209532260894775,0.6285039782524109,1.151481032371521
1761132299552107500,0.480107421875,2.0535762310028076,0.8752935528755188,0.940121591091156
1761132299562107600,0.490107666015625,1.6980526447296143,0.856967568397522,0.6114761233329773
1761132299572107500,0.500107421875,1.3315335512161255,0.7170794606208801,0.22846360504627228
1761132299582107600,0.510107666015625,1.107956886291504,0.4623486399650574,-0.08735372871160507
1761132299592107500,0.520107421875,1.0713049173355103,0.13614659011363983,-0.2541199326515198
1761132299602106600,0.530106689453125,1.1604912281036377,-0.1857793927192688,-0.17043140530586243
1761132299612106800,0.540106689453125,1.3211487531661987,-0.6921866536140442,0.3237585723400116
1761132299622106600,0.550106689453125,1.2258538007736206,-0.9841802716255188,0.7214318513870239
1761132299632106800,0.560106689453125,0.8782715201377869,-1.1918745040893555,0.9334021210670471
1761132299642106600,0.570106689453125,0.38835757970809937,-1.309160590171814,0.8967501521110535
1761132299652106800,0.580106689453125,-0.1137736514210701,-1.240743637084961,0.6829473376274109
1761132299662106600,0.590106689453125,-0.5291619896888733,-1.0171669721603394,0.3536909818649292
1761132299672106800,0.600106689453125,-0.8376489877700806,-0.6689738035202026,0.025045474991202354
1761132299682106600,0.610106689453125,-0.9854783415794373,-0.2908482253551483,-0.19120082259178162
1761132299692106800,0.620106689453125,-0.9812023043632507,0.01947133056819439,-0.2565633952617645
1761132299702107600,0.630107666015625,-0.8571966290473938,0.25526532530784607,-0.16737708449363708
1761132299712107500,0.640107421875,-0.6745479702949524,0.439746618270874,0.02687807008624077
1761132299722107600,0.650107666015625,-0.5560401082038879,0.5026657581329346,0.26145032048225403
1761132299732107500,0.660107421875,-0.5212207436561584,0.4507421851158142,0.5009095072746277
1761132299742107600,0.670107666015625,-0.342237263917923,0.37377315759658813,0.7195992469787598
1761132299752107500,0.680107421875,-0.15714508295059204,0.3456733822822571,0.8649851679801941
1761132299762107600,0.690107666015625,-0.10094548016786575,0.33223432302474976,0.9065240025520325
1761132299772107500,0.700107421875,-0.14126259088516235,0.3450624942779541,0.8552113175392151
1761132299782107600,0.710107666015625,-0.19196440279483795,0.3603341281414032,0.720820963382721
1761132299792107500,0.720107421875,-0.251218318939209,0.4214206635951996,0.50335294008255
1761132299802107000,0.73010693359375,-0.29275718331336975,0.5191590785980225,0.23640485107898712
1761132299812106800,0.740106689453125,-0.3068070709705353,0.6333909034729004,-0.03237585723400116
1761132299822107000,0.75010693359375,-0.2915354371070862,0.7268533110618591,-0.26939156651496887
1761132299832106800,0.760106689453125,-0.2658790946006775,0.7690029740333557,-0.46547931432724
1761132299842107000,0.77010693359375,-0.2664899528026581,0.733572781085968,-0.6548475623130798
1761132299852106800,0.780106689453125,-0.3049744665622711,0.6645449995994568,-0.7006624341011047
1761132299862107000,0.79010693359375,-0.3599523603916168,0.5515349507331848,-0.7018841505050659
1761132299872106800,0.800106689453125,-0.37522396445274353,0.4147011339664459,-0.6597344875335693
1761132299882107000,0.81010693359375,-0.3220787048339844,0.24976752698421478,-0.6017022728919983
1761132299892106800,0.820106689453125,-0.2292271852493286,0.029245173558592796,-0.5772676467895508
1761132299902107600,0.830107666015625,-0.11255192011594772,-0.25908321142196655,-0.5754350423812866
1761132299912107500,0.840107421875,-0.0007635815418325365,-0.5932264924049377,-0.5021312236785889
1761132299922107600,0.850107666015625,0.0682641938328743,-0.9243154525756836,-0.3640756905078888
1761132299932107500,0.860107421875,0.1189660057425499,-1.2248611450195312,-0.26145032048225403
1761132299942107600,0.870107666015625,0.23380866646766663,-1.6310865879058838,-0.3072652220726013
1761132299952107500,0.880107421875,0.3602577745914459,-2.194915294647217,-0.47708576917648315
1761132299962107100,0.890107177734375,0.4207334518432617,-2.745304822921753,-0.8069530129432678
1761132299972107300,0.900107177734375,0.46532660722732544,-3.1008284091949463,-1.313360333442688
1761132299982107100,0.910107177734375,0.5221370458602905,-3.250490427017212,-1.8637498617172241
1761132299992107300,0.920107177734375,0.6461427211761475,-3.1790192127227783,-2.0366246700286865
1761132300002106400,0.9301064453125,0.889267086982727,-2.54738450050354,-1.7049249410629272
1761132300022106400,0.9501064453125,1.2374602556228638,-0.994564950466156,-0.5155702829360962
1761132300032106200,0.960106201171875,1.1580477952957153,-0.662254273891449,-0.06658431142568588
1761132300042106400,0.9701064453125,0.9552405476570129,-0.5840635299682617,0.19547687470912933
1761132300052106200,0.980106201171875,0.6876815557479858,-0.6463717818260193,0.36163222789764404
1761132300062106400,0.9901064453125,0.46960264444351196,-0.7306711673736572,0.4746423065662384
1761132300072106200,1.000106201171875,0.3413209617137909,-0.8387943506240845,0.6743952035903931
1761132300082106400,1.0101064453125,0.3724750876426697,-0.7942011952400208,0.8784242272377014
1761132300092106200,1.020106201171875,0.48976120352745056,-0.711123526096344,1.06657075881958
1761132300102107100,1.030107177734375,0.6687447428703308,-0.6451500654220581,1.3084733486175537
1761132300112107000,1.04010693359375,0.8239045143127441,-0.5840635299682617,1.6273449659347534
1761132300122107100,1.050107177734375,0.8843801617622375,-0.4227951169013977,2.0555615425109863
1761132300132107000,1.06010693359375,0.8575021028518677,-0.23892466723918915,2.484389066696167
1761132300142107100,1.070107177734375,0.7841982841491699,-0.16928602755069733,2.7708847522735596
1761132300152107000,1.08010693359375,0.6803511381149292,-0.20715968310832977,2.9016098976135254
1761132300162107100,1.090107177734375,0.5624541640281677,-0.32505667209625244,2.8942794799804688
1761132300172107000,1.10010693359375,0.47571131587028503,-0.4398993253707886,2.8038713932037354
1761132300182107100,1.110107177734375,0.4231768846511841,-0.5180900692939758,2.6645941734313965
1761132300192107000,1.12010693359375,0.4005748927593231,-0.45700356364250183,2.528982162475586
1761132300202106400,1.1301064453125,0.3706424832344055,-0.24381159245967865,2.3829853534698486
1761132300212106200,1.140106201171875,0.29306259751319885,0.06956227868795395,2.2070560455322266
1761132300222106400,1.1501064453125,0.15195272862911224,0.43791401386260986,1.9840903282165527
1761132300232106200,1.160106201171875,-0.023365596309304237,0.7714464664459229,1.700037956237793
1761132300242106400,1.1701064453125,-0.2096794992685318,1.0365619659423828,1.3744467496871948
1761132300252106200,1.180106201171875,-0.4082106947898865,1.2497539520263672,1.0250319242477417
1761132300262106600,1.190106689453125,-0.6177374720573425,1.4128549098968506,0.6798930168151855
1761132300272106800,1.200106689453125,-0.8150469660758972,1.5252541303634644,0.34574973583221436
1761132300282106600,1.210106689453125,-0.9592111706733704,1.6266578435897827,0.04886921867728233
1761132300292106800,1.220106689453125,-1.0276280641555786,1.6999616622924805,-0.19120082259178162
1761132300302107600,1.230107666015625,-1.0257954597473145,1.7427221536636353,-0.3885102868080139
1761132300312107300,1.240107177734375,-0.9689850211143494,1.7298940420150757,-0.4337143301963806
1761132300322107100,1.250107177734375,-0.8950703144073486,1.750052571296692,-0.423329621553421
1761132300332107300,1.260107177734375,-0.8345946669578552,1.7842609882354736,-0.4129449129104614
1761132300342107100,1.270107177734375,-0.7979426980018616,1.7848719358444214,-0.4508185386657715
1761132300352107300,1.280107177734375,-0.794277548789978,1.7005724906921387,-0.5656611919403076
1761132300362107100,1.290107177734375,-0.8266534209251404,1.626046895980835,-0.694553792476654
1761132300372107000,1.30010693359375,-0.8498662710189819,1.506317377090454,-0.7476990818977356
1761132300382107100,1.310107177734375,-0.7600690722465515,1.2595278024673462,-0.6591235995292664
1761132300392107000,1.32010693359375,-0.48029279708862305,0.8545241355895996,-0.35735616087913513
1761132300402106000,1.330106201171875,0.08109235763549805,0.4220315217971802,0.19058994948863983
1761132300412106200,1.340106201171875,0.879493236541748,0.14897476136684418,0.9242390990257263
1761132300422106000,1.350106201171875,1.659568190574646,-0.2609158158302307,1.6285667419433594
1761132300432106200,1.360106201171875,2.1934642791748047,-1.353753685951233,2.188119411468506
1761132300442106000,1.370106201171875,2.4188735485076904,-2.799060821533203,2.439795732498169
1761132300452106200,1.380106201171875,2.2459988594055176,-4.033008575439453,1.9248363971710205
1761132300462106000,1.390106201171875,1.869094967842102,-4.885776519775391,0.4294382631778717
1761132300472106200,1.400106201171875,1.75608491897583,-5.6194257736206055,-1.5460999011993408
1761132300482106000,1.410106201171875,1.7835737466812134,-5.1618876457214355,-2.8484647274017334
1761132300492106200,1.420106201171875,1.6491833925247192,-3.5113298892974854,-3.1386256217956543
1761132300502107100,1.430107177734375,1.5771013498306274,-1.098412036895752,-2.4196372032165527
1761132300512107000,1.44010693359375,1.5056301355361938,1.0096838474273682,-1.5919147729873657
1761132300522107100,1.450107177734375,1.280220866203308,1.9455294609069824,-1.2809844017028809
1761132300532107000,1.46010693359375,0.41951170563697815,1.8166369199752808,-1.528384804725647
1761132300542107100,1.470107177734375,-0.3006984293460846,1.4873805046081543,-1.7996090650558472
1761132300552107000,1.48010693359375,-0.8156577944755554,1.2057716846466064,-2.0109684467315674
1761132300562107100,1.490107177734375,-1.00502610206604,0.8239808678627014,-2.1068742275238037
1761132300572107000,1.50010693359375,-0.9891435503959656,0.3145192563533783,-1.95965576171875
1761132300582107100,1.510107177734375,-0.9237809777259827,-0.16195565462112427,-1.4269812107086182
1761132300592107000,1.52010693359375,-0.8681922554969788,-0.367817223072052,-0.6444628238677979
1761132300602106400,1.5301064453125,-0.7954992651939392,-0.3378848433494568,0.04398229718208313
1761132300612106800,1.540106689453125,-0.7386888265609741,-0.1863902509212494,0.46853363513946533
1761132300622106600,1.550106689453125,-0.7105889916419983,0.06039930135011673,0.6786713004112244
1761132300632106800,1.560106689453125,-0.6586654782295227,0.3853796124458313,0.7586946487426758
1761132300644968700,1.57296875,-0.6000223755836487,0.7121925354003906,0.7782423496246338
1761132300654968600,1.582968505859375,-0.5248859524726868,0.9565386176109314,0.7867944240570068
1761132300664968700,1.59296875,-0.42409318685531616,1.0701595544815063,0.7959573864936829
1761132300674968800,1.60296875,-0.3153591752052307,1.1019245386123657,0.8063421249389648
1761132300684968700,1.61296875,-0.21578814089298248,1.0445032119750977,0.8234463334083557
1761132300694968800,1.62296875,-0.1485929638147354,0.9192758202552795,0.8582656979560852
1761132300704969700,1.6329697265625,-0.13209961354732513,0.7690029740333557,0.9108000993728638
1761132300714969600,1.642969482421875,-0.168751522898674,0.6425538659095764,0.9572258591651917
1761132300724969700,1.6529697265625,-0.25244006514549255,0.5686391592025757,0.9272934198379517
1761132300734969900,1.662969970703125,-0.3703370690345764,0.5301546454429626,0.769079327583313
1761132300744969700,1.6729697265625,-0.4918992519378662,0.5521458387374878,0.50335294008255
1761132300754969900,1.682969970703125,-0.5810855627059937,0.6706537008285522,0.1661553531885147
1761132300764969700,1.6929697265625,-0.6207917928695679,0.9168323874473572,-0.33475416898727417
1761132300774969900,1.702969970703125,-0.6012440919876099,1.0609965324401855,-0.5754350423812866
1761132300784969700,1.7129697265625,-0.5480988621711731,1.164232850074768,-0.7220427393913269
1761132300794969900,1.722969970703125,-0.4674646258354187,1.2503647804260254,-0.7739662528038025
1761132300804969000,1.732968994140625,-0.37400224804878235,1.285794973373413,-0.7336491346359253
1761132300814968800,1.74296875,-0.2799290120601654,1.2882384061813354,-0.656680166721344
1761132300824969000,1.752968994140625,-0.18585574626922607,1.2338714599609375,-0.6017022728919983
1761132300834968800,1.76296875,-0.09178250283002853,1.0225120782852173,-0.5742133259773254
1761132300844969000,1.772968994140625,-0.00809396430850029,0.8038222789764404,-0.49235737323760986
1761132300854968800,1.78296875,0.0633772686123848,0.5405393838882446,-0.3591887652873993
1761132300864969000,1.792968994140625,0.18310685455799103,0.30230194330215454,-0.2321287989616394
1761132300874968800,1.80296875,0.3627012372016907,0.16607898473739624,-0.25595253705978394
1761132300884969000,1.812968994140625,0.517861008644104,0.11293371021747589,-0.5259549617767334
1761132300894968800,1.82296875,0.5490151643753052,-0.07704538106918335,-1.0519099235534668
1761132300904969700,1.8329697265625,0.4616613984107971,-0.4899902939796448,-1.7275269031524658
1761132300914969600,1.842969482421875,0.29245173931121826,-1.1827114820480347,-2.4104743003845215
1761132300924969700,1.8529697265625,0.14767667651176453,-2.0867919921875,-2.9327640533447266
1761132300934969600,1.862969482421875,0.17150041460990906,-2.7019333839416504,-3.0689868927001953
1761132300944969700,1.8729697265625,0.45921793580055237,-2.698268175125122,-2.877786159515381
1761132300954969600,1.882969482421875,0.9656252264976501,-1.8467220067977905,-2.22171688079834
1761132300964969700,1.8929697265625,1.4243850708007812,-0.8168032169342041,-1.493565559387207
1761132300974969600,1.902969482421875,1.7261524200439453,-0.01595885492861271,-0.8411614298820496
1761132300984969700,1.9129697265625,1.8507689237594604,0.6724863052368164,-0.27122417092323303
1761132300994969600,1.922969482421875,1.8025106191635132,1.7726545333862305,0.39217549562454224
1761132301004968700,1.93296875,1.8031214475631714,2.2552380561828613,0.6640105247497559
1761132301014968800,1.94296875,1.8031214475631714,2.4904212951660156,0.778853178024292
1761132301024968700,1.95296875,1.751808762550354,2.4922537803649902,0.8729264140129089
1761132301034968800,1.96296875,1.649794340133667,2.3425917625427246,1.0225883722305298
1761132301044968700,1.97296875,1.5856534242630005,2.098245859146118,1.2467759847640991
1761132301054968800,1.98296875,1.6088663339614868,1.8612300157546997,1.5735888481140137
1761132301064968700,1.99296875,1.7133243083953857,1.684689998626709,1.9724838733673096
1761132301074968800,2.00296875,1.8666514158248901,1.511815071105957,2.4074199199676514
1761132301084968700,2.01296875,1.9869918823242188,1.2515865564346313,2.8625144958496094
1761132301094968800,2.02296875,2.032806873321533,0.8838456273078918,3.3157765865325928
1761132301104969500,2.032969482421875,2.009593963623047,0.4763985276222229,3.6468656063079834
1761132301114969600,2.042969482421875,1.9008599519729614,0.15202908217906952,3.7421605587005615
1761132301124969500,2.052969482421875,1.7377588748931885,0.04024074971675873,3.5503487586975098
1761132301134969600,2.062969482421875,1.5569428205490112,0.18073976039886475,3.1618385314941406
1761132301144969500,2.072969482421875,1.3119858503341675,0.4269184470176697,2.6933047771453857
1761132301154969600,2.082969482421875,0.9845620393753052,0.7097490429878235,2.2003366947174072
1761132301164969500,2.092969482421875,0.6131559610366821,0.9559277296066284,1.7140878438949585
1761132301174969600,2.102969482421875,0.23380866646766663,1.1452959775924683,1.254717230796814
1761132301184969500,2.112969482421875,-0.14676037430763245,1.3028992414474487,0.8405506014823914
1761132301194969600,2.122969482421875,-0.5071708559989929,1.4079680442810059,0.4899139404296875
1761132301204968700,2.13296875,-0.8242099285125732,1.4330135583877563,0.19425514340400696
1761132301214968600,2.142968505859375,-1.0728321075439453,1.3823117017745972,-0.06108652427792549
1761132301224968700,2.15296875,-1.2359330654144287,1.31511652469635,-0.27061331272125244
1761132301234968800,2.16296875,-1.3153456449508667,1.2320388555526733,-0.4813618063926697
1761132301244968700,2.17296875,-1.2738068103790283,1.1947760581970215,-0.5626068711280823
1761132301254968800,2.18296875,-1.1858421564102173,1.122083067893982,-0.6041457056999207
1761132301264968700,2.19296875,-1.087492823600769,1.002353549003601,-0.6151412725448608
1761132301274968600,2.202968505859375,-0.9799805879592896,0.8820130825042725,-0.5962044596672058
1761132301284968700,2.21296875,-0.8339837789535522,0.7329619526863098,-0.5858197808265686
1761132301294968600,2.222968505859375,-0.64217209815979,0.491670161485672,-0.5962044596672058
1761132301304969500,2.232969482421875,-0.41493022441864014,0.20150917768478394,-0.6200281977653503
1761132301314969600,2.242969482421875,-0.1437060534954071,-0.16256651282310486,-0.6603453159332275
1761132301324969500,2.252969482421875,0.10430523753166199,-0.6176611185073853,-0.7031059265136719
1761132301334969600,2.262969482421875,0.2802344262599945,-1.006171464920044,-0.7360926270484924
1761132301344969500,2.272969482421875,0.3663664162158966,-1.317712664604187,-0.8497135639190674
1761132301354969600,2.282969482421875,0.36942076683044434,-1.737987995147705,-1.208902359008789
1761132301364969500,2.292969482421875,0.2790127098560333,-2.4148266315460205,-1.8252654075622559
1761132301374969600,2.302969482421875,0.12018773704767227,-3.3861024379730225,-2.5161540508270264
1761132301384969500,2.312969482421875,0.01817324012517929,-4.398305892944336,-2.9852983951568604
1761132301394969600,2.322969482421875,0.15012013912200928,-4.964578151702881,-2.9107728004455566
1761132301404968700,2.33296875,0.5740606188774109,-4.414188385009766,-2.1710150241851807
1761132301414968600,2.342968505859375,1.153160810470581,-3.033633232116699,-1.1301007270812988
1761132301424968700,2.35296875,1.7340936660766602,-1.5583935976028442,-0.2535090744495392
1761132301434968600,2.362968505859375,2.0004310607910156,-0.4344015419483185,0.2535090744495392
1761132301444968700,2.37296875,1.7579174041748047,0.035353824496269226,0.5259549617767334
1761132301454968600,2.382968505859375,1.1940888166427612,0.009697485715150833,0.5338962078094482
1761132301464968700,2.39296875,0.2893974184989929,0.041462477296590805,0.28038713335990906
1761132301474968800,2.40296875,-0.08750644326210022,0.23266330361366272,-0.00733038317412138
1761132301484968700,2.41296875,-0.31352660059928894,0.5185482501983643,-0.2871066629886627
1761132301494968800,2.42296875,-0.42531493306159973,0.8300895094871521,-0.4758640229701996
1761132301504969500,2.432969482421875,-0.4833471179008484,1.0933724641799927,-0.5192354321479797
1761132301514969600,2.442969482421875,-0.5352706909179688,1.2179889678955078,-0.4355469346046448
1761132301524969500,2.452969482421875,-0.5871942043304443,1.1581240892410278,-0.26939156651496887
1761132301534969600,2.462969482421875,-0.6116288304328918,0.9705885052680969,-0.0555887371301651
1761132301544969500,2.472969482421875,-0.5468770861625671,0.723798930644989,0.15515977144241333
1761132301554969600,2.482969482421875,-0.46868637204170227,0.4348596930503845,0.3787364661693573
1761132301564969500,2.492969482421875,-0.403323769569397,0.0768926590681076,0.617584764957428
1761132301574969600,2.502969482421875,-0.35262197256088257,-0.24014639854431152,0.8875871896743774
1761132301584969500,2.512969482421875,-0.3171917796134949,-0.44600799679756165,1.1496484279632568
1761132301594969600,2.522969482421875,-0.2921462953090668,-0.5034292936325073,1.33168625831604
1761132301604968700,2.53296875,-0.25182920694351196,-0.4289037585258484,1.3878858089447021
1761132301614968600,2.542968505859375,-0.2145664244890213,-0.23342688381671906,1.3329079151153564
1761132301624968700,2.55296875,-0.1889100819826126,0.015195272862911224,1.1911872625350952
1761132301634968600,2.562968505859375,-0.1889100819826126,0.23083069920539856,1.0054842233657837
1761132301644968700,2.57296875,-0.2292271852493286,0.4165337383747101,0.8100073337554932
1761132301654968600,2.582968505859375,-0.3098613917827606,0.6162866950035095,0.6383541822433472
1761132301664968700,2.59296875,-0.4173736870288849,0.7763333916664124,0.4691445231437683
1761132301674968600,2.602968505859375,-0.5450445413589478,0.8429176807403564,0.2828305959701538
1761132301684968700,2.61296875,-0.6806566119194031,0.8685740232467651,0.07819075137376785
1761132301694968600,2.622968505859375,-0.7863363027572632,0.8239808678627014,-0.24068090319633484
1761132301704969500,2.632969482421875,-0.7771732807159424,0.7286858558654785,-0.4306600093841553
1761132301714969600,2.642969482421875,-0.7252497673034668,0.5802456140518188,-0.5674937963485718
1761132301724969500,2.652969482421875,-0.6348416805267334,0.34200817346572876,-0.6585127115249634
1761132301734969600,2.662969482421875,-0.5438227653503418,0.05123632401227951,-0.6902777552604675
1761132301744969500,2.672969482421875,-0.4778493344783783,-0.24564418196678162,-0.6389650702476501
1761132301754969600,2.682969482421875,-0.4014911949634552,-0.5284748077392578,-0.5381723046302795
1761132301764969500,2.692969482421875,-0.29825496673583984,-0.7905359864234924,-0.40072759985923767
1761132301774969600,2.702969482421875,-0.15836681425571442,-1.050764560699463,-0.26633724570274353
1761132301784969500,2.712969482421875,-0.01237002108246088,-1.3348169326782227,-0.22296582162380219
1761132301794969600,2.722969482421875,0.07131851464509964,-1.667738437652588,-0.3500257730484009
1761132301804968700,2.73296875,0.06948592513799667,-1.9536234140396118,-0.6340781450271606
1761132301814968600,2.742968505859375,0.028557950630784035,-2.170480489730835,-1.0073168277740479
1761132301824968700,2.75296875,-0.062460970133543015,-2.284712314605713,-1.5326608419418335
1761132301834968600,2.762968505859375,-0.25793784856796265,-2.430098295211792,-2.2119431495666504
1761132301844968700,2.77296875,-0.5065600275993347,-2.5986971855163574,-2.7287349700927734
1761132301854968600,2.782968505859375,-0.7185302376747131,-2.4203245639801025,-2.8240299224853516
1761132301864968700,2.79296875,-0.7851145267486572,-1.687286138534546,-2.6639833450317383
1761132301874968600,2.802968505859375,-0.6947064995765686,-0.38492146134376526,-2.3878722190856934
1761132301884968700,2.81296875,-0.5499314665794373,1.2784645557403564,-2.093435287475586
1761132301894968600,2.822968505859375,-0.4576907753944397,2.7243826389312744,-1.7831156253814697
1761132301904969500,2.832969482421875,-0.461355984210968,3.451312303543091,-1.4831807613372803
1761132301914969600,2.842969482421875,-0.5462662577629089,3.4726924896240234,-1.2034045457839966
1761132301924969500,2.852969482421875,-0.7026477456092834,2.7891342639923096,-0.8356636762619019
1761132301934969600,2.862969482421875,-0.755793035030365,2.170938730239868,-0.6591235995292664
1761132301944969500,2.872969482421875,-0.7295258045196533,1.6614770889282227,-0.5308418869972229
1761132301954969600,2.882969482421875,-0.5890268087387085,1.3633748292922974,-0.42210787534713745
1761132301964969700,2.8929697265625,-0.3929390609264374,1.2412018775939941,-0.2883284091949463
1761132301974969600,2.902969482421875,-0.19868391752243042,1.225319266319275,-0.09529497474431992
1761132301984969700,2.9129697265625,-0.03375030308961868,1.2363148927688599,0.16432274878025055
1761132301994969600,2.922969482421875,0.09758572280406952,1.2167671918869019,0.4954117238521576
1761132302004968700,2.93296875,0.27779096364974976,1.1837804317474365,0.9108000993728638
1761132302014968800,2.94296875,0.4812090992927551,1.1343003511428833,1.3628404140472412
1761132302024968700,2.95296875,0.670577347278595,1.0322859287261963,1.7886134386062622
1761132302034968800,2.96296875,0.8477282524108887,0.8105418086051941,2.1423044204711914
1761132302044968700,2.97296875,0.9949467778205872,0.48861584067344666,2.4104743003845215
1761132302054968800,2.98296875,1.0798569917678833,0.1679115891456604,2.5894577503204346
1761132302064968700,2.99296875,1.0975720882415771,-0.06055201590061188,2.6865854263305664
1761132302074968800,3.00296875,1.0615310668945312,-0.16806429624557495,2.6920831203460693
1761132302084968700,3.01296875,0.954018771648407,-0.18211419880390167,2.58457088470459
1761132302094968800,3.02296875,0.7866417169570923,-0.1509600728750229,2.347555160522461
1761132302104969500,3.032969482421875,0.5710062980651855,-0.09598220139741898,2.0280725955963135
1761132302114969600,3.042969482421875,0.2912299931049347,-0.012293662875890732,1.6676621437072754
1761132302124969500,3.052969482421875,-0.04108068719506264,0.07994698733091354,1.2919800281524658
1761132302134969600,3.062969482421875,-0.3764457106590271,0.13492485880851746,0.9077457785606384
1761132302144969500,3.072969482421875,-0.6574437022209167,0.1831832081079483,0.5387831330299377
1761132302154969600,3.082969482421875,-0.9378308653831482,0.27236953377723694,0.10018189996480942
1761132302164969500,3.092969482421875,-1.0288498401641846,0.3096323311328888,-0.1264491081237793
1761132302174969600,3.102969482421875,-1.0288498401641846,0.3499494194984436,-0.32681289315223694
1761132302184969500,3.112969482421875,-0.945772111415863,0.40431642532348633,-0.49357911944389343
1761132302194969600,3.122969482421875,-0.803440511226654,0.43241623044013977,-0.5925393104553223
1761132302204968700,3.13296875,-0.6311765313148499,0.4360814392566681,-0.6041457056999207
1761132302214968600,3.142968505859375,-0.4778493344783783,0.4006512463092804,-0.5607742667198181
1761132302224968700,3.15296875,-0.3520110845565796,0.30657798051834106,-0.48258355259895325
1761132302234968800,3.16296875,-0.25182920694351196,0.12515102326869965,-0.3982841372489929
1761132302244968700,3.17296875,-0.15653422474861145,-0.10758864134550095,-0.3170390725135803
1761132302254968800,3.18296875,-0.05513058975338936,-0.38614320755004883,-0.2687807083129883
1761132302264968700,3.19296875,0.07009678333997726,-0.6830236911773682,-0.2565633952617645
1761132302274968600,3.202968505859375,0.22403483092784882,-1.003727912902832,-0.2125810980796814
1761132302284968700,3.21296875,0.46593746542930603,-1.2016483545303345,-0.1319468915462494
1761132302294968600,3.222968505859375,0.8043568134307861,-1.4148402214050293,-0.16432274878025055
1761132302304969500,3.232969482421875,1.117730736732483,-1.8283960819244385,-0.35246923565864563
1761132302314969600,3.242969482421875,1.2234103679656982,-2.753856897354126,-0.6927211880683899
1761132302324969500,3.252969482421875,1.1452195644378662,-4.118529796600342,-1.0024298429489136
1761132302334969600,3.262969482421875,0.9729556441307068,-5.151503086090088,-0.9975429177284241
1761132302344969500,3.272969482421875,0.7371616363525391,-5.410510063171387,-0.8142833709716797
1761132302354969600,3.282969482421875,0.4384485185146332,-5.110575199127197,-0.9859365224838257
1761132302364969500,3.292969482421875,0.24724771082401276,-4.149073123931885,-1.483791708946228
1761132302374969300,3.30296923828125,0.17699819803237915,-2.4233787059783936,-2.0054705142974854
1761132302384969500,3.312969482421875,0.031612277030944824,0.3902665376663208,-2.520430088043213
1761132302394969300,3.32296923828125,-0.1644754707813263,1.6028339862823486,-2.775160789489746
1761132302404968700,3.33296875,-0.3929390609264374,2.231414318084717,-3.0188961029052734
1761132302414968600,3.342968505859375,-0.6281222105026245,2.3700807094573975,-3.2424726486206055
1761132302424968700,3.35296875,-0.8364272117614746,2.0933587551116943,-3.416569232940674
1761132302434968600,3.362968505859375,-0.9946413636207581,1.5539648532867432,-3.5301902294158936
1761132302444968700,3.37296875,-1.1192578077316284,0.9412670135498047,-3.5161404609680176
1761132302454968600,3.382968505859375,-1.201724648475647,0.4061490297317505,-3.308446168899536
1761132302464968700,3.39296875,-1.193172574043274,0.06528622657060623,-2.916881561279297
1761132302474968600,3.402968505859375,-1.0600038766860962,-0.05077817291021347,-2.375654935836792
1761132302484968700,3.41296875,-0.8187121152877808,0.006032294128090143,-1.768454909324646
1761132302494968600,3.422968505859375,-0.5401576161384583,0.09338602423667908,-1.1465940475463867
1761132302504969500,3.432969482421875,-0.2444988191127777,-0.00557414535433054,-0.5516113042831421
1761132302514969600,3.442969482421875,0.009621127508580685,-0.3110067546367645,-0.04337143152952194
1761132302524969500,3.452969482421875,0.17272214591503143,-0.701349675655365,0.39095374941825867
1761132302534969600,3.462969482421875,0.2454151064157486,-1.0141127109527588,0.7770205736160278
1761132302544969500,3.472969482421875,0.2716823220252991,-1.1723268032073975,1.0983357429504395
1761132302554969600,3.482969482421875,0.29367345571517944,-1.1888201236724854,1.3170254230499268
1761132302564969200,3.49296923828125,0.3217732608318329,-1.137507438659668,1.4569135904312134
1761132302574969000,3.502968994140625,0.33887749910354614,-1.0312168598175049,1.5711454153060913
1761132302584969200,3.51296923828125,0.30222558975219727,-0.833907425403595,1.6468926668167114
1761132302594969000,3.522968994140625,0.20693060755729675,-0.4930446147918701,1.6395623683929443
1761132302604968200,3.53296826171875,0.0884227454662323,-0.10636691004037857,1.511891484260559
1761132302614968300,3.54296826171875,-0.07528914511203766,0.35727980732917786,1.1850786209106445
1761132302624968200,3.55296826171875,-0.15592335164546967,0.5906303524971008,0.9651671051979065
1761132302634968300,3.56296826171875,-0.23167064785957336,0.7176902890205383,0.7935139536857605
1761132302644968200,3.57296826171875,-0.3068070709705353,0.7323510646820068,0.7110471725463867
1761132302654968300,3.58296826171875,-0.37827831506729126,0.6999751925468445,0.7195992469787598
1761132302664968200,3.59296826171875,-0.4424191415309906,0.6138432025909424,0.8002334833145142
1761132302674968300,3.60296826171875,-0.5035057067871094,0.4867832362651825,0.9297369122505188
1761132302684968200,3.61296826171875,-0.5450445413589478,0.3242930769920349,1.0787880420684814
1761132302694968300,3.62296826171875,-0.5529857873916626,0.15019649267196655,1.2296717166900635
1761132302704969200,3.63296923828125,-0.5291619896888733,-0.0037415495608001947,1.3713924884796143
1761132302714969000,3.642968994140625,-0.47907108068466187,-0.05077817291021347,1.513113260269165
1761132302724969200,3.65296923828125,-0.42470407485961914,-0.04528038576245308,1.6322319507598877
1761132302734969000,3.662968994140625,-0.4112650156021118,-0.10453431308269501,1.7275269031524658
1761132302744969200,3.67296923828125,-0.4124867618083954,-0.22792910039424896,1.797776460647583
1761132302754969000,3.682968994140625,-0.41004329919815063,-0.4783838391304016,1.825876235961914
1761132302764969200,3.69296923828125,-0.3623957931995392,-0.8161923289299011,1.8851301670074463
1761132302774969000,3.702968994140625,-0.22189679741859436,-0.9805150628089905,2.05433988571167
1761132302784969200,3.71296923828125,0.04566217586398125,-1.0434341430664062,2.163073778152466
1761132302794969000,3.722968994140625,0.3517056703567505,-1.412396788597107,1.947438359260559
1761132302804968200,3.73296826171875,0.4726569950580597,-2.4545328617095947,1.2809844017028809
1761132302814968300,3.74296826171875,0.2503020465373993,-3.8082103729248047,0.31642818450927734
1761132302824968200,3.75296826171875,-0.21273382008075714,-4.753829479217529,-0.608421802520752
1761132302834968300,3.76296826171875,-0.6910412907600403,-4.824689865112305,-1.2577714920043945
1761132302844968200,3.77296826171875,-0.9915869832038879,-3.7605628967285156,-1.642616629600525
1761132302854968300,3.78296826171875,-0.9036223888397217,-0.8974373936653137,-2.0274617671966553
1761132302864968700,3.79296875,-0.584139883518219,1.028620719909668,-2.263866662979126
1761132302874968800,3.80296875,-0.18707747757434845,2.3358724117279053,-2.4947736263275146
1761132302884968700,3.81296875,0.1391245573759079,2.938185453414917,-2.618779420852661
1761132302894968800,3.82296875,0.31749722361564636,3.0505847930908203,-2.549140691757202
1761132302904969500,3.832969482421875,0.4060726761817932,2.754315137863159,-2.29440975189209
1761132302914969600,3.842969482421875,0.4928155243396759,2.2363014221191406,-1.9052886962890625
1761132302924969500,3.852969482421875,0.5984952449798584,1.704237699508667,-1.474017858505249
1761132302934969600,3.862969482421875,0.709061861038208,1.3169491291046143,-1.0714576244354248
1761132302944969500,3.872969482421875,0.8281805515289307,1.1257482767105103,-0.7312057018280029
1761132302954969600,3.882969482421875,0.9576839804649353,1.1062005758285522,-0.4648684561252594
1761132302964969700,3.8929697265625,1.070694088935852,1.2063825130462646,-0.2791654169559479
1761132302974969900,3.902969970703125,1.1812607049942017,1.3786464929580688,-0.14233160018920898
1761132302984969700,3.9129697265625,1.3016011714935303,1.5545756816864014,-0.0006108652451075613
1761132302994969900,3.922969970703125,1.4262176752090454,1.5924493074417114,0.18997909128665924
1761132303004969000,3.932968994140625,1.5361733436584473,1.4201853275299072,0.44165557622909546
1761132303014968800,3.94296875,1.5887078046798706,1.0713813304901123,0.749531626701355
1761132303024969000,3.952968994140625,1.5709927082061768,0.6413321495056152,1.0726794004440308
1761132303034968800,3.96296875,1.496467113494873,0.2387719452381134,1.3628404140472412
1761132303044969000,3.972968994140625,1.3773484230041504,-0.0996473953127861,1.5699236392974854
1761132303054968800,3.98296875,1.213025689125061,-0.36048686504364014,1.6780468225479126
1761132303064969000,3.992968994140625,1.010829210281372,-0.47166433930397034,1.7122552394866943
1761132303074968800,4.00296875,0.7976372838020325,-0.4496731758117676,1.680490255355835
1761132303084969000,4.012968994140625,0.4970915913581848,-0.2462550550699234,1.521665334701538
1761132303094968800,4.02296875,0.3419318199157715,-0.04772384837269783,1.3671164512634277
1761132303104969700,4.0329697265625,0.23319780826568604,0.13981178402900696,1.187522053718567
1761132303114969600,4.042969482421875,0.15806138515472412,0.27236953377723694,1.006095051765442
1761132303124969700,4.0529697265625,0.10002918541431427,0.2949715554714203,0.8576548099517822
1761132303134969900,4.062969970703125,0.05726861581206322,0.22716552019119263,0.7782423496246338
1761132303144969700,4.0729697265625,0.021838432177901268,0.10560332983732224,0.7745771408081055
1761132303154969900,4.082969970703125,-0.014202617108821869,-0.004352414980530739,0.8356636762619019
1761132303164969700,4.0929697265625,-0.044135015457868576,-0.09292787313461304,0.9254608750343323
1761132303174969900,4.102969970703125,-0.06918048858642578,-0.24503332376480103,1.018923282623291
1761132303184969700,4.1129697265625,-0.078343465924263,-0.4673882722854614,1.1099421977996826
1761132303194969600,4.122969482421875,-0.024587325751781464,-0.6775259375572205,1.1954632997512817
1761132303204969000,4.132968994140625,0.05726861581206322,-0.8980482816696167,1.2870930433273315
1761132303214968800,4.14296875,0.12690725922584534,-1.1039098501205444,1.4306464195251465
1761132303224969000,4.152968994140625,0.22892175614833832,-1.3164910078048706,1.6108516454696655
1761132303234968800,4.16296875,0.40973785519599915,-1.489365816116333,1.7996090650558472
1761132303244969000,4.172968994140625,0.7011205554008484,-1.605430245399475,1.8918496370315552
1761132303254968800,4.18296875,1.0560332536697388,-1.8369481563568115,1.7495180368423462
1761132303264968700,4.19296875,1.3687963485717773,-2.271273374557495,1.3683381080627441
1761132303274968600,4.202968505859375,1.4543174505233765,-2.9096274375915527,0.8399397134780884
1761132303284968700,4.21296875,1.2777774333953857,-3.6035704612731934,0.3066543638706207
1761132303294968600,4.222968505859375,0.9821186065673828,-4.004909038543701,-0.10751228034496307
1761132303304969500,4.232969482421875,0.688903272151947,-3.780721426010132,-0.40194934606552124
1761132303314969600,4.242969482421875,0.5600107312202454,-2.0232620239257812,-0.6933320760726929
1761132303324969500,4.252969482421875,0.48976120352745056,-0.4948772192001343,-1.0128145217895508
1761132303334969600,4.262969482421875,0.4115704596042633,1.0964267253875732,-1.3927727937698364
1761132303344969500,4.272969482421875,0.34926220774650574,2.161775827407837,-1.8869627714157104
1761132303354969600,4.282969482421875,0.1849394589662552,2.876487970352173,-2.3383922576904297
1761132303364969500,4.292969482421875,0.04505131021142006,3.301650285720825,-2.719572067260742
1761132303374969600,4.302969482421875,-0.020922135561704636,3.393890857696533,-3.051882743835449
1761132303384969500,4.312969482421875,-0.03680463135242462,3.195359706878662,-3.299283266067505
1761132303394969600,4.322969482421875,-0.03436116874217987,2.8471665382385254,-3.428786516189575
1761132303404968700,4.33296875,-0.003817907767370343,2.4421629905700684,-3.4129040241241455
1761132303414968600,4.342968505859375,0.02122756652534008,2.0188331604003906,-3.2430834770202637
1761132303424968700,4.35296875,0.012675453908741474,1.6407077312469482,-2.945592164993286
1761132303434968600,4.362968505859375,0.0010690141934901476,1.3639857769012451,-2.5723536014556885
1761132303444968700,4.37296875,0.05910121276974678,1.2057716846466064,-2.171625852584839
1761132303454968600,4.382968505859375,0.17088955640792847,0.9724211096763611,-1.795332908630371
1761132303464968700,4.39296875,0.26740625500679016,0.5771912932395935,-1.3982704877853394
1761132303474968600,4.402968505859375,0.34315356612205505,0.04085161164402962,-0.9578366875648499
1761132303484968700,4.41296875,0.34376442432403564,-0.5565745830535889,-0.5253441333770752
1761132303494968600,4.422968505859375,0.23869559168815613,-1.053818941116333,-0.08491026610136032
1761132303504969500,4.432969482421875,0.07864890247583389,-1.3806318044662476,0.3194825351238251
1761132303514969600,4.442969482421875,-0.07406741380691528,-1.5266286134719849,0.5742133259773254
1761132303524969500,4.452969482421875,-0.1638645976781845,-1.423392415046692,0.6340781450271606
1761132303534969600,4.462969482421875,-0.20357084274291992,-1.1711050271987915,0.5455026626586914
1761132303544969500,4.472969482421875,-0.2402227520942688,-0.6549239158630371,0.4056145250797272
1761132303554969600,4.482969482421875,-0.27748554944992065,-0.38431060314178467,0.384845107793808
1761132303564969500,4.492969482421875,-0.3355177342891693,-0.24992024898529053,0.4129449129104614
1761132303574969600,4.502969482421875,-0.4369213581085205,-0.18944458663463593,0.4703662395477295
1761132303584969500,4.512969482421875,-0.5664247870445251,-0.2016618847846985,0.5363397002220154
1761132303594969600,4.522969482421875,-0.7044803500175476,-0.24564418196678162,0.588263213634491
1761132303604968700,4.53296875,-0.8101600408554077,-0.27863091230392456,0.6010913848876953
1761132303614968600,4.542968505859375,-0.877966046333313,-0.2920699417591095,0.5656611919403076
1761132303624968700,4.55296875,-0.927446186542511,-0.2822960913181305,0.4856378734111786
1761132303634968600,4.562968505859375,-0.9671524167060852,-0.31467196345329285,0.3927863538265228
1761132303644968700,4.57296875,-1.00502610206604,-0.40141481161117554,0.33292156457901
1761132303654968600,4.582968505859375,-1.041067123413086,-0.49548807740211487,0.3549126982688904
1761132303664968700,4.59296875,-1.0392345190048218,-0.500985860824585,0.4709770977497101
1761132303674968600,4.602968505859375,-1.0068585872650146,-0.467999130487442,0.6212499737739563
1761132303684968700,4.61296875,-0.9592111706733704,-0.45639270544052124,0.7849618196487427
1761132303694968600,4.622968505859375,-0.9066767692565918,-0.5180900692939758,0.9731083512306213
1761132303704969500,4.632969482421875,-0.8529205918312073,-0.6866888999938965,1.1814134120941162
1761132303714969600,4.642969482421875,-0.7667886018753052,-0.8394051790237427,1.4605787992477417
1761132303724969500,4.652969482421875,-0.5682573914527893,-0.891328752040863,1.8167132139205933
1761132303734969600,4.662969482421875,-0.251218318939209,-0.9829585552215576,2.1905627250671387
1761132303744969500,4.672969482421875,0.0884227454662323,-1.08314049243927,2.5130996704101562
1761132303754969600,4.682969482421875,0.28267788887023926,-1.2065352201461792,2.5558602809906006
1761132303764969500,4.692969482421875,0.2942843437194824,-1.2902237176895142,2.180178165435791
1761132303774969600,4.702969482421875,-0.0936150997877121,-1.7276033163070679,0.8124507665634155
1761132303784969500,4.712969482421875,-0.48945578932762146,-2.340301036834717,-0.34758231043815613
1761132303794969600,4.722969482421875,-0.7081455588340759,-2.5412757396698,-1.207680583000183
1761132303804968700,4.73296875,-0.6849326491355896,-2.089235544204712,-1.557706356048584
1761132303814968600,4.742968505859375,-0.5047274231910706,-1.0214430093765259,-1.4501941204071045
1761132303824968700,4.75296875,-0.2744311988353729,0.2949715554714203,-1.151481032371521
1761132303834968600,4.762968505859375,-0.04535674303770065,1.5533539056777954,-0.9169087409973145
1761132303844968700,4.77296875,0.16783522069454193,2.4116196632385254,-0.9193521738052368
1761132303854968600,4.782968505859375,0.28756481409072876,2.9039769172668457,-1.073290228843689
1761132303864968700,4.79296875,0.31383201479911804,3.0896799564361572,-1.2455542087554932
1761132303874968600,4.802968505859375,0.3419318199157715,3.024928331375122,-1.3396275043487549
1761132303884968700,4.81296875,0.40424007177352905,2.8141798973083496,-1.3298536539077759
1761132303894968600,4.822968505859375,0.49098294973373413,2.5899922847747803,-1.2388347387313843
1761132303904969500,4.832969482421875,0.6039929986000061,2.3670265674591064,-1.0995573997497559
1761132303914969600,4.842969482421875,0.7267768979072571,2.109241247177124,-0.9364564418792725
1761132303924969500,4.852969482421875,0.8141306638717651,1.8001434803009033,-0.7635815739631653
1761132303934969600,4.862969482421875,0.8532260060310364,1.4519503116607666,-0.5723807215690613
1761132303944969500,4.872969482421875,0.8813258409500122,1.105589747428894,-0.35613444447517395
1761132303954969600,4.882969482421875,0.8996517658233643,0.7781659364700317,-0.11728613078594208
1761132303964969500,4.892969482421875,0.8831584453582764,0.4360814392566681,0.11789698898792267
1761132303974969600,4.902969482421875,0.8465065360069275,0.06345362961292267,0.30970868468284607
1761132303984969500,4.912969482421875,0.8177958726882935,-0.27313312888145447,0.4251621961593628
1761132303994969600,4.922969482421875,0.8104654550552368,-0.5046510696411133,0.4691445231437683
1761132304004968700,4.93296875,0.803135097026825,-0.6213263273239136,0.47219884395599365
1761132304014968600,4.942968505859375,0.7677049040794373,-0.6646977663040161,0.46731191873550415
1761132304024968700,4.95296875,0.7066183686256409,-0.5852852463722229,0.504574716091156
1761132304034968600,4.962968505859375,0.6663012504577637,-0.49060115218162537,0.5125159621238708
1761132304044968700,4.97296875,0.6155994534492493,-0.47655123472213745,0.5259549617767334
1761132304054968600,4.982968505859375,0.5251913666725159,-0.38064539432525635,0.6218608021736145
1761132304064968700,4.99296875,0.43417248129844666,-0.2767983078956604,0.7195992469787598
1761132304074968600,5.002968505859375,0.3608686327934265,-0.20960313081741333,0.7715228199958801
1761132304084968700,5.01296875,0.28267788887023926,-0.12774719297885895,0.7867944240570068
1761132304094968600,5.022968505859375,0.2093740701675415,-0.0898735523223877,0.759305477142334
1761132304104969500,5.032969482421875,0.16661348938941956,-0.029397889971733093,0.7318165898323059
1761132304114969600,5.042969482421875,0.15622878074645996,0.050014592707157135,0.7024950385093689
1761132304124969500,5.052969482421875,0.16294831037521362,0.08483391255140305,0.6860016584396362
1761132304134969600,5.062969482421875,0.18310685455799103,0.053068917244672775,0.6890559792518616
1761132304144969500,5.072969482421875,0.22403483092784882,-0.07276932150125504,0.7092145681381226
1761132304154969600,5.082969482421875,0.2710714638233185,-0.2309834212064743,0.7648032903671265
1761132304164969500,5.092969482421875,0.3010038435459137,-0.3763693571090698,0.8484918475151062
1761132304174969600,5.102969482421875,0.33399057388305664,-0.5144249200820923,0.9419541954994202
1761132304184969500,5.112969482421875,0.37430769205093384,-0.6365979313850403,1.056796908378601
1761132304194969600,5.122969482421875,0.4579962193965912,-0.7508297562599182,1.1869112253189087
1761132304204968700,5.13296875,0.5392413139343262,-0.8613963723182678,1.3487904071807861
1761132304214968600,5.142968505859375,0.5557346343994141,-1.0025062561035156,1.5522085428237915
1761132304224968700,5.15296875,0.4787656366825104,-1.186376690864563,1.700037956237793
1761132304234968800,5.16296875,0.16111570596694946,-1.4911984205245972,1.6688838005065918
1761132304244968700,5.17296875,-0.23105977475643158,-1.3983469009399414,1.406822681427002
1761132304254968600,5.182968505859375,-0.6385068893432617,-1.0489319562911987,0.7800748944282532
1761132304264968700,5.19296875,-0.9250026941299438,-0.529085636138916,-0.13072516024112701
1761132304274968600,5.202968505859375,-1.0764973163604736,-0.00007635815563844517,-1.1478158235549927
1761132304284968700,5.21296875,-1.1675162315368652,0.28214338421821594,-2.0977113246917725
1761132304294968600,5.222968505859375,-1.3135130405426025,0.3255148231983185,-2.8270843029022217
1761132304304969500,5.232969482421875,-1.5315918922424316,0.3004693388938904,-3.2375857830047607
1761132304314969600,5.242969482421875,-1.7038558721542358,0.4562399685382843,-3.361591339111328
1761132304324969500,5.252969482421875,-1.697136402130127,0.8386416435241699,-3.327383041381836
1761132304334969600,5.262969482421875,-1.6543757915496826,1.2717450857162476,-3.2821788787841797
1761132304344969500,5.272969482421875,-1.6525431871414185,1.6712509393692017,-3.244305372238159
1761132304354969600,5.282969482421875,-1.6250542402267456,1.9461402893066406,-3.2058207988739014
1761132304364969500,5.292969482421875,-1.591456651687622,2.0609829425811768,-3.1679470539093018
1761132304374969600,5.302969482421875,-1.6116151809692383,2.0017290115356445,-3.116023540496826
1761132304384969500,5.312969482421875,-1.6562083959579468,1.7836501598358154,-3.0243937969207764
1761132304394969600,5.322969482421875,-1.6439911127090454,1.4482851028442383,-2.8845057487487793
1761132304404968700,5.33296875,-1.5248724222183228,1.1074223518371582,-2.6206119060516357
1761132304414968600,5.342968505859375,-1.2475395202636719,0.8423067927360535,-2.1789562702178955
1761132304424968700,5.35296875,-0.7985535860061646,0.753120481967926,-1.5497651100158691
1761132304434968600,5.362968505859375,-0.2854267954826355,0.7305184602737427,-0.7861835956573486
1761132304444968700,5.37296875,0.1794416606426239,0.6834818720817566,0.029932396486401558
1761132304454968600,5.382968505859375,0.5429064631462097,0.5674174427986145,0.7941248416900635
1761132304464968700,5.39296875,0.9106473922729492,0.25587618350982666,1.6951510906219482
1761132304474968800,5.40296875,1.060920238494873,0.035353824496269226,2.0592267513275146
1761132304484968700,5.41296875,1.1268936395645142,-0.07154759019613266,2.2461514472961426
1761132304494968800,5.42296875,1.069472312927246,-0.051999904215335846,2.2986860275268555
1761132304504969500,5.432969482421875,0.925308108329773,0.03107776865363121,2.2272145748138428
1761132304514969600,5.442969482421875,0.7396050691604614,0.18012888729572296,2.0836613178253174
1761132304524969500,5.452969482421875,0.5258022546768188,0.38782307505607605,1.8918496370315552
1761132304534969600,5.462969482421875,0.3016147017478943,0.5802456140518188,1.6780468225479126
1761132304544969500,5.472969482421875,0.10552696883678436,0.7354053854942322,1.4605787992477417
1761132304554969600,5.482969482421875,-0.02825251780450344,0.8032114505767822,1.2669345140457153
1761132304564969500,5.492969482421875,-0.08628471940755844,0.7696138620376587,1.1233811378479004
1761132304574969600,5.502969482421875,-0.09728029370307922,0.6327800154685974,1.0500773191452026
1761132304584969500,5.512969482421875,-0.11010845750570297,0.45257478952407837,1.036027431488037
1761132304594969600,5.522969482421875,-0.13759739696979523,0.22777637839317322,1.0500773191452026
1761132304604968700,5.53296875,-0.19196440279483795,-0.014737123623490334,1.0598511695861816
1761132304614968800,5.54296875,-0.24694228172302246,-0.2621375620365143,1.054964303970337
1761132304624968700,5.55296875,-0.2402227520942688,-0.4936554729938507,1.0659598112106323
1761132304634968800,5.56296875,-0.1547016203403473,-0.6347653269767761,1.1520918607711792
1761132304644968700,5.57296875,-0.006261368747800589,-0.6317110061645508,1.289536476135254
1761132304654968800,5.58296875,0.164170041680336,-0.5761222839355469,1.5143349170684814
1761132304664968700,5.59296875,0.28206703066825867,-0.6042220592498779,1.8118263483047485
1761132304674968800,5.60296875,0.3620903789997101,-0.7221190929412842,2.12397837638855
1761132304684968700,5.61296875,0.38347065448760986,-0.8668941259384155,2.37321138381958
1761132304694968800,5.62296875,0.3107776939868927,-1.0373255014419556,2.481945514678955
1761132304704969500,5.632969482421875,0.2393064647912979,-1.1252901554107666,2.4196372032165527
1761132304714969600,5.642969482421875,0.2808452844619751,-0.9902889132499695,2.194227933883667
1761132304724969500,5.652969482421875,0.285121351480484,-0.9273697733879089,1.6139060258865356
1761132304734969600,5.662969482421875,0.24419337511062622,-0.9298132658004761,0.7141014933586121
1761132304744969500,5.672969482421875,0.164170041680336,-0.8369617462158203,-0.3237585723400116
1761132304754969600,5.682969482421875,0.04444044828414917,-0.8558985590934753,-1.3939944505691528
1761132304764969700,5.6929697265625,-0.11071932315826416,-0.9719629883766174,-2.334116220474243
1761132304774969600,5.702969482421875,-0.2542726695537567,-0.9536370038986206,-3.0085113048553467
1761132304784969500,5.712969482421875,-0.41370847821235657,-0.7770969271659851,-3.3713653087615967
1761132304794969600,5.722969482421875,-0.4521929919719696,-0.23525947332382202,-3.3884694576263428
1761132304804968700,5.73296875,-0.31902438402175903,0.5863542556762695,-3.2259793281555176
1761132304834968800,5.76296875,0.10491610318422318,1.6920204162597656,-3.1471776962280273
1761132304844968700,5.77296875,0.12996158003807068,1.5454126596450806,-3.0665435791015625
1761132304854968800,5.78296875,0.12507465481758118,1.303510069847107,-2.819143056869507
1761132304864968700,5.79296875,0.13729196786880493,1.0506118535995483,-2.461786985397339
1761132304874968800,5.80296875,0.19776763021945953,0.8728500604629517,-2.0482311248779297
1761132304884968700,5.81296875,0.29306259751319885,0.7299076318740845,-1.613295078277588
1761132304894968800,5.82296875,0.41401392221450806,0.5417611002922058,-1.1850786209106445
1761132304904969500,5.832969482421875,0.5539020895957947,0.32673653960227966,-0.7770205736160278
1761132304914969600,5.842969482421875,0.7121161818504333,0.10621419548988342,-0.3842342495918274
1761132304924969500,5.852969482421875,0.8672759532928467,-0.08865182101726532,-0.00733038317412138
1761132304934969600,5.862969482421875,1.0432051420211792,-0.3177262842655182,0.5064072608947754
1761132304944969500,5.872969482421875,1.0975720882415771,-0.4380667507648468,0.7916813492774963
1761132304954969600,5.882969482421875,1.109789490699768,-0.4942663311958313,1.004873275756836
1761132304964969500,5.892969482421875,1.080467939376831,-0.449062317609787,1.1264355182647705
1761132304974969600,5.902969482421875,1.0175487995147705,-0.31406110525131226,1.1661417484283447
1761132304984969500,5.912969482421875,0.9246972799301147,-0.11308643221855164,1.1386528015136719
1761132304994969600,5.922969482421875,0.7982481718063354,0.0518471859395504,1.0604621171951294
1761132305004968700,5.93296875,0.669966459274292,0.17463110387325287,0.9480628371238708
1761132305014968800,5.94296875,0.5337435007095337,0.20700696110725403,0.8002334833145142
1761132305024968700,5.95296875,0.39874228835105896,0.21189388632774353,0.6707300543785095
1761132305034968600,5.962968505859375,0.294895201921463,0.1984548419713974,0.5711590051651001
1761132305044968700,5.97296875,0.19837848842144012,0.08849909901618958,0.5216789245605469
1761132305054968600,5.982968505859375,0.0682641938328743,-0.022678371518850327,0.5626068711280823
1761132305064968700,5.99296875,-0.06551529467105865,-0.1558469980955124,0.6316346526145935
1761132305074968600,6.002968505859375,-0.18219055235385895,-0.32016974687576294,0.694553792476654
1761132305084968700,6.01296875,-0.270766019821167,-0.477772980928421,0.7141014933586121
1761132305094968600,6.022968505859375,-0.32879820466041565,-0.6482043862342834,0.6896668672561646
1761132305104969500,6.032969482421875,-0.3721696436405182,-0.8785005807876587,0.6493497490882874
1761132305114969600,6.042969482421875,-0.40882155299186707,-1.1430052518844604,0.656069278717041
1761132305124969500,6.052969482421875,-0.4027129113674164,-1.3207670450210571,0.788016140460968
1761132305134969600,6.062969482421875,-0.30802878737449646,-1.3335951566696167,1.034194827079773
1761132305144969500,6.072969482421875,-0.14004085958003998,-1.185154914855957,1.3194689750671387
1761132305154969600,6.082969482421875,0.019394971430301666,-1.0403798818588257,1.5485434532165527
1761132305164969500,6.092969482421875,0.11774427443742752,-1.3109931945800781,1.5192219018936157
1761132305174969600,6.102969482421875,0.05910121276974678,-1.715385913848877,1.3048081398010254
1761132305184969500,6.112969482421875,-0.15164729952812195,-1.9670624732971191,0.99876469373703
1761132305194969600,6.122969482421875,-0.4265366494655609,-2.122833013534546,0.4917465150356293
1761132305204968700,6.13296875,-0.6940956115722656,-2.1307742595672607,-0.24678955972194672
1761132305214968600,6.142968505859375,-0.946382999420166,-1.7984635829925537,-1.1264355182647705
1761132305224968700,6.15296875,-1.1320860385894775,-1.0544297695159912,-1.9675970077514648
1761132305234968600,6.162968505859375,-1.2444852590560913,-0.12896892428398132,-2.6193902492523193
1761132305244968700,6.17296875,-1.2536481618881226,0.7097490429878235,-2.933985710144043
1761132305254968600,6.182968505859375,-1.1687378883361816,1.436067819595337,-2.850297212600708
1761132305264968700,6.19296875,-1.0123564004898071,2.017611503601074,-2.5442538261413574
1761132305274968600,6.202968505859375,-0.8547531962394714,2.346867799758911,-2.238821029663086
1761132305284968700,6.21296875,-0.7338019013404846,2.4012348651885986,-2.032959461212158
1761132305294968600,6.222968505859375,-0.6385068893432617,2.2619576454162598,-1.9168951511383057
1761132305304969500,6.232969482421875,-0.5474879741668701,2.07564377784729,-1.8319848775863647
1761132305314969600,6.242969482421875,-0.43447789549827576,1.9577467441558838,-1.6896532773971558
1761132305324969500,6.252969482421875,-0.3196352422237396,1.8459584712982178,-1.4618005752563477
1761132305334969600,6.262969482421875,-0.2041817009449005,1.7298940420150757,-1.1759155988693237
1761132305344969500,6.272969482421875,-0.038637228310108185,1.63704252243042,-0.8680394887924194
1761132305354969600,6.282969482421875,0.18127426505088806,1.5002087354660034,-0.5693264007568359
1761132305364969500,6.292969482421875,0.4329507350921631,1.2601386308670044,-0.27977627515792847
1761132305374969600,6.302969482421875,0.7237225770950317,0.8985064029693604,0.01160643994808197
1761132305384969500,6.312969482421875,1.0224356651306152,0.4647921025753021,0.2675589919090271
1761132305394969600,6.322969482421875,1.2826642990112305,-0.16623170673847198,0.49724429845809937
1761132305404968700,6.33296875,1.221577763557434,-0.43134722113609314,0.6743952035903931
1761132305414968600,6.342968505859375,1.0083857774734497,-0.46127963066101074,0.9169087409973145
1761132305424968700,6.35296875,0.7334964275360107,-0.32078060507774353,1.0836749076843262
1761132305434968600,6.362968505859375,0.4262312352657318,-0.07338018715381622,1.1062769889831543
1761132305444968700,6.37296875,0.18860463798046112,0.23755022883415222,0.9859365224838257
1761132305454968600,6.382968505859375,0.04382958263158798,0.5271003246307373,0.7562511563301086
1761132305464968700,6.39296875,-0.05451972410082817,0.6529386043548584,0.4862487316131592
1761132305474968600,6.402968505859375,-0.14187344908714294,0.6718754172325134,0.2932153046131134
1761132305484968700,6.41296875,-0.2102903574705124,0.6156758069992065,0.16982053220272064
1761132305494968600,6.422968505859375,-0.2713768780231476,0.4867832362651825,0.13377949595451355
1761132305504969500,6.432969482421875,-0.3159700334072113,0.349338561296463,0.20525072515010834
1761132305514969600,6.442969482421875,-0.35262197256088257,0.2754238545894623,0.3341432809829712
1761132305524969500,6.452969482421875,-0.40515637397766113,0.28153252601623535,0.455705463886261
1761132305534969600,6.462969482421875,-0.45402559638023376,0.3084105849266052,0.5363397002220154
1761132305544969500,6.472969482421875,-0.4509712755680084,0.29130637645721436,0.5516113042831421
1761132305554969600,6.482969482421875,-0.40943244099617004,0.2680934965610504,0.5229006409645081
1761132305564969500,6.492969482421875,-0.36361753940582275,0.24121540784835815,0.46303585171699524
1761132305574969600,6.502969482421875,-0.3263547718524933,0.13431400060653687,0.4031710624694824
1761132305584969500,6.512969482421875,-0.2701551616191864,-0.052610769867897034,0.40194934606552124
1761132305594969600,6.522969482421875,-0.19074267148971558,-0.41057780385017395,0.5253441333770752
1761132305604968700,6.53296875,-0.11438451707363129,-0.7887033820152283,0.8509352803230286
1761132305614968800,6.54296875,0.025503624230623245,-0.9603565335273743,1.3176363706588745
1761132305624968700,6.55296875,0.3358231782913208,-1.1509464979171753,1.793500304222107
1761132305634968800,6.56296875,0.5642867684364319,-1.3604732751846313,1.8723019361495972
1761132305644968700,6.57296875,0.7976372838020325,-1.5706108808517456,1.8503108024597168
1761132305654968800,6.58296875,0.8862127661705017,-1.8571066856384277,1.7116444110870361
1761132305664968700,6.59296875,0.7170031070709229,-2.273716688156128,1.4037683010101318
1761132305674968800,6.60296875,0.3767511546611786,-2.6164121627807617,0.8973610401153564
1761132305684968700,6.61296875,0.012064588256180286,-2.6548967361450195,0.14782938361167908
1761132305694968800,6.62296875,-0.2548835277557373,-2.4783565998077393,-0.8753699064254761
1761132305704969500,6.632969482421875,-0.4662429094314575,-2.1051180362701416,-1.834428310394287
1761132305714969600,6.642969482421875,-0.5761986374855042,-1.5669456720352173,-2.3066272735595703
1761132305724969500,6.652969482421875,-0.5071708559989929,-0.6311001777648926,-2.0366246700286865
1761132305734969600,6.662969482421875,-0.33429601788520813,0.4757876694202423,-1.4092661142349243
1761132305744969500,6.672969482421875,-0.15653422474861145,1.3297772407531738,-0.8338310718536377
1761132305754969600,6.682969482421875,0.011453723534941673,1.9003254175186157,-0.4508185386657715
1761132305764969700,6.6929697265625,0.12446379661560059,2.204536199569702,-0.2681698501110077
1761132305774969600,6.702969482421875,0.2050980031490326,2.2228622436523438,-0.16982053220272064
1761132305784969500,6.712969482421875,0.2600758671760559,2.039602756500244,-0.06352998316287994
1761132305794969600,6.722969482421875,0.29917123913764954,1.7036267518997192,0.15454891324043274
1761132305804968700,6.73296875,0.3315471112728119,1.306564450263977,0.5467243790626526
1761132305814968800,6.74296875,0.3675881624221802,0.9369909167289734,1.140485405921936
1761132305824968700,6.75296875,0.4268420934677124,0.640110433101654,1.8961256742477417
1761132305834968600,6.762968505859375,0.5404630303382874,0.339564710855484,2.649933338165283
1761132305844968700,6.77296875,0.7041749358177185,-0.011071932502090931,3.2345314025878906
1761132305854968600,6.782968505859375,0.9387471675872803,-0.5498550534248352,3.7287213802337646
1761132305864968700,6.79296875,0.9998337030410767,-0.8558985590934753,3.8460075855255127
1761132305874968600,6.802968505859375,0.9772316813468933,-1.0666470527648926,3.8484511375427246
1761132305884968700,6.81296875,0.870330274105072,-1.1717158555984497,3.7421605587005615
1761132305894968600,6.822968505859375,0.6950119137763977,-1.127733588218689,3.4917056560516357
1761132305904969500,6.832969482421875,0.5105306506156921,-0.9438631534576416,3.1007518768310547
1761132305914969600,6.842969482421875,0.34865134954452515,-0.6237697601318359,2.626720666885376
1761132305924969500,6.852969482421875,0.15561792254447937,-0.18883371353149414,2.104430675506592
1761132305934969600,6.862969482421875,-0.03130684420466423,0.2754238545894623,1.5601497888565063
1761132305944969500,6.872969482421875,-0.16752979159355164,0.6682102084159851,1.0580185651779175
1761132305954969600,6.882969482421875,-0.2554943859577179,0.8911760449409485,0.6499606370925903
1761132305964971000,6.892970947265625,-0.33368512988090515,0.9229410290718079,0.34574973583221436
1761132305974971100,6.90297119140625,-0.422871470451355,0.7867180705070496,0.13377949595451355
1761132305984971000,6.912970947265625,-0.5181664228439331,0.5881868600845337,0.01038470957428217
1761132305994971100,6.92297119140625,-0.6122397184371948,0.3389538526535034,-0.06902777403593063
1761132306004970200,6.93297021484375,-0.7154759168624878,0.02802344225347042,-0.12950342893600464
1761132306014970400,6.942970458984375,-0.7954992651939392,-0.23709207773208618,-0.15332718193531036
1761132306024970200,6.95297021484375,-0.7777841687202454,-0.3788128197193146,-0.0861319974064827
1761132306034970400,6.962970458984375,-0.6989825367927551,-0.41546472907066345,-0.05497787147760391
1761132306044970200,6.97297021484375,-0.5725334286689758,-0.4136321246623993,-0.04703662544488907
1761132306054970400,6.982970458984375,-0.4583016633987427,-0.3476586937904358,-0.05925392732024193
1761132306064970200,6.99297021484375,-0.361174076795578,-0.19982929527759552,-0.039095375686883926
1761132306074970400,7.002970458984375,-0.3196352422237396,0.02863430790603161,0.10201449692249298
1761132306084970200,7.01297021484375,-0.37522396445274353,0.5234351754188538,0.5705481171607971
1761132306094970400,7.022970458984375,-0.4014911949634552,0.7653377652168274,0.8570439219474792
1761132306104971000,7.032970947265625,-0.3520110845565796,0.9095019698143005,0.988379955291748
1761132306114971100,7.04297119140625,-0.2762638032436371,0.9620364308357239,0.9150761365890503
1761132306124971000,7.052970947265625,-0.29397889971733093,0.8325329422950745,0.5711590051651001
1761132306144971000,7.072970947265625,-0.4662429094314575,-0.4625013470649719,-0.9358455538749695
1761132306154971100,7.08297119140625,-0.6110179424285889,-1.2358567714691162,-1.806328535079956
1761132306164971000,7.092970947265625,-0.7631233930587769,-1.8241199254989624,-2.5314254760742188
1761132306174971100,7.10297119140625,-0.8327620625495911,-2.148489475250244,-2.9779679775238037
1761132306184971000,7.112970947265625,-0.77472984790802,-2.103285312652588,-3.006678819656372
1761132306194971100,7.12297119140625,-0.6024658679962158,-1.7031686305999756,-2.668870210647583
1761132306204970200,7.13297021484375,-0.38866302371025085,-1.2938889265060425,-2.186286687850952
1761132306214970000,7.14297021484375,-0.16569720208644867,-1.0122801065444946,-1.643227458000183
1761132306224970200,7.15297021484375,0.05604688450694084,-0.749608039855957,-1.0348057746887207
1761132306234970400,7.162970458984375,0.2802344262599945,-0.41974079608917236,-0.45326200127601624
1761132306244970200,7.17297021484375,0.48426342010498047,-0.055665094405412674,0.02932153269648552
1761132306254970400,7.182970458984375,0.6357579827308655,0.3310126066207886,0.35246923565864563
1761132306264968700,7.19296875,0.7060074806213379,0.5802456140518188,0.41722095012664795
1761132306274968600,7.202968505859375,0.6467535495758057,0.5759695768356323,0.19058994948863983
1761132306284968700,7.21296875,0.4537201523780823,0.39393171668052673,-0.1966986060142517
1761132306294968600,7.222968505859375,0.22220222651958466,0.22716552019119263,-0.5650503635406494
1761132306304969500,7.232969482421875,0.03588833287358284,0.16180293262004852,-0.8191702961921692
1761132306314969300,7.24296923828125,-0.09728029370307922,0.2442697435617447,-0.9095783233642578
1761132306324969500,7.252969482421875,-0.22067506611347198,0.3707188367843628,-0.7855727076530457
1761132306334969300,7.26296923828125,-0.24144448339939117,0.5130504369735718,-0.5607742667198181
1761132306344969500,7.272969482421875,-0.23900102078914642,0.5497023463249207,-0.2541199326515198
1761132306354969300,7.28296923828125,-0.23716843128204346,0.5393176674842834,0.13988813757896423
1761132306364969500,7.292969482421875,-0.2292271852493286,0.48983755707740784,0.523511528968811
1761132306374969300,7.30296923828125,-0.23594669997692108,0.37316229939460754,0.8032878041267395
1761132306384969500,7.312969482421875,-0.2652682363986969,0.2735912799835205,0.9541715383529663
1761132306394969300,7.32296923828125,-0.29825496673583984,0.18929186463356018,0.9957103729248047
1761132306404968700,7.33296875,-0.3312416672706604,0.09949467331171036,0.9633345007896423
1761132306414968600,7.342968505859375,-0.34956762194633484,0.010919216088950634,0.901637077331543
1761132306424968400,7.352968505859375,-0.3300199508666992,-0.00862847175449133,0.8674286603927612
1761132306434968600,7.362968505859375,-0.29886582493782043,0.035353824496269226,0.8546004891395569
1761132306444968400,7.372968505859375,-0.26771169900894165,0.10804679244756699,0.8423831462860107
1761132306454968600,7.382968505859375,-0.24877487123012543,0.19601137936115265,0.799011766910553
1761132306464968400,7.392968505859375,-0.2542726695537567,0.25709789991378784,0.7122688889503479
1761132306474968600,7.402968505859375,-0.2860376536846161,0.24610233306884766,0.6114761233329773
1761132306484968700,7.41296875,-0.33857205510139465,0.1636355221271515,0.5296201705932617
1761132306494968600,7.422968505859375,-0.3929390609264374,0.04634939879179001,0.49235737323760986
1761132306504969500,7.432969482421875,-0.4424191415309906,-0.12469286471605301,0.46670106053352356
1761132306514969600,7.442969482421875,-0.4918992519378662,-0.34399348497390747,0.4202753007411957
1761132306524969500,7.452969482421875,-0.5187773108482361,-0.529085636138916,0.43799036741256714
1761132306534969600,7.462969482421875,-0.5035057067871094,-0.6243806481361389,0.6004805564880371
1761132306544969500,7.472969482421875,-0.42470407485961914,-0.4172973334789276,1.0054842233657837
1761132306554969600,7.482969482421875,-0.1235474944114685,0.014584408141672611,1.4972307682037354
1761132306564969500,7.492969482421875,0.10980302840471268,0.29619327187538147,1.5638149976730347
1761132306574969600,7.502969482421875,0.28267788887023926,0.6627124547958374,1.3933836221694946
1761132306584969500,7.512969482421875,0.3956879675388336,1.002353549003601,1.0286970138549805
1761132306594969600,7.522969482421875,0.46410486102104187,0.9565386176109314,0.46670106053352356
1761132306614968600,7.542968505859375,0.1391245573759079,-0.9023243188858032,-1.49906325340271
1761132306624968700,7.55296875,-0.24694228172302246,-2.042198896408081,-2.495384454727173
1761132306634968600,7.562968505859375,-0.6110179424285889,-2.6329054832458496,-3.0976977348327637
1761132306644968700,7.57296875,-0.7961101531982422,-2.416659355163574,-3.308446168899536
1761132306654968600,7.582968505859375,-0.7661777138710022,-1.6286431550979614,-3.263242244720459
1761132306664968700,7.59296875,-0.5603161454200745,-0.5669593214988708,-3.0305025577545166
1761132306674968600,7.602968505859375,-0.24572055041790009,0.5887977480888367,-2.5558602809906006
1761132306684968700,7.61296875,0.11224649101495743,1.4305700063705444,-2.0580050945281982
1761132306694968600,7.622968505859375,0.35903605818748474,1.8642843961715698,-1.6896532773971558
1761132306704969500,7.632969482421875,0.44577890634536743,1.9192622900009155,-1.4874569177627563
1761132306714969600,7.642969482421875,0.41462478041648865,1.6877442598342896,-1.425148606300354
1761132306724969500,7.652969482421875,0.3822489380836487,1.418352723121643,-1.4245377779006958
1761132306734969600,7.662969482421875,0.41828998923301697,1.1966086626052856,-1.3927727937698364
1761132306744969500,7.672969482421875,0.5050328373908997,0.9608146548271179,-1.2553280591964722
1761132306754969600,7.682969482421875,0.6113234162330627,0.6840927004814148,-0.9779952764511108
1761132306764969500,7.692969482421875,0.7273877859115601,0.36644279956817627,-0.5919284224510193
1761132306774969600,7.702969482421875,0.7878634333610535,0.1373683214187622,-0.22663100063800812
1761132306784969500,7.712969482421875,0.7499898076057434,0.002367102773860097,-0.0024434609804302454
1761132306794969600,7.722969482421875,0.6583600044250488,-0.0012980886967852712,0.02076941914856434
1761132306804968700,7.73296875,0.5251913666725159,0.02557998150587082,0.056810468435287476
1761132306814968800,7.74296875,0.45066583156585693,0.01947133056819439,0.06536258012056351
1761132306824968700,7.75296875,0.37308594584465027,0.006643159314990044,0.09529497474431992
1761132306834968600,7.762968505859375,0.25763240456581116,0.018249599263072014,0.14905111491680145
1761132306844968700,7.77296875,0.14523321390151978,0.013973542489111423,0.15393804013729095
1761132306854968600,7.782968505859375,0.04382958263158798,0.030466904863715172,0.07208210229873657
1761132306864968700,7.79296875,-0.07712173461914062,-0.0214566420763731,-0.06230825558304787
1761132306874968600,7.802968505859375,-0.18341228365898132,-0.084375761449337,-0.14782938361167908
1761132306884968700,7.81296875,-0.2396118938922882,-0.14729487895965576,-0.17531833052635193
1761132306894968600,7.822968505859375,-0.2451096773147583,-0.2364812046289444,-0.1966986060142517
1761132306904969500,7.832969482421875,-0.2255619913339615,-0.3433826267719269,-0.22113321721553802
1761132306914969600,7.842969482421875,-0.21823160350322723,-0.4429536461830139,-0.18570303916931152
1761132306924969500,7.852969482421875,-0.2200642079114914,-0.4600578844547272,-0.07330382615327835
1761132306934969600,7.862969482421875,-0.21334469318389893,-0.42096251249313354,0.08368854224681854
1761132306944969500,7.872969482421875,-0.19562959671020508,-0.32566753029823303,0.27000242471694946
1761132306954969600,7.882969482421875,-0.1498146951198578,-0.11369729042053223,0.5393940210342407
1761132306964969500,7.892969482421875,-0.09300423413515091,0.17646369338035583,0.8381071090698242
1761132306974969600,7.902969482421875,-0.08811730891466141,0.26748260855674744,1.0958921909332275
1761132306984969500,7.912969482421875,-0.11194105446338654,0.25526532530784607,1.318858027458191
1761132306994969600,7.922969482421875,-0.10277807712554932,0.07383833825588226,1.4422528743743896
1761132307004968700,7.93296875,-0.0007635815418325365,-0.3537673354148865,1.4880677461624146
1761132307014968800,7.94296875,0.3504839241504669,-0.9542478919029236,1.7043139934539795
1761132307024968700,7.95296875,0.6375905871391296,-1.1344531774520874,1.919338583946228
1761132307034968600,7.962968505859375,0.8287914395332336,-1.3067171573638916,1.977981686592102
1761132307044968700,7.97296875,0.8776606321334839,-1.3647493124008179,1.8008307218551636
1761132307054968600,7.982968505859375,0.7121161818504333,-1.3641384840011597,1.2614367008209229
1761132307064968700,7.99296875,0.29184088110923767,-1.4484378099441528,0.3237585723400116
1761132307074968600,8.002968505859375,-0.35750889778137207,-1.554728388786316,-0.9199630618095398
1761132307084968700,8.01296875,-1.107040524482727,-1.6011542081832886,-2.2430970668792725
1761132307094968600,8.022968505859374,-1.7136297225952148,-1.356808066368103,-3.316387414932251
1761132307104969500,8.032969482421874,-1.9115500450134277,-0.6665303111076355,-3.9455785751342773
1761132307114969600,8.042969482421874,-1.6690365076065063,0.449520468711853,-4.019493103027344
1761132307124969500,8.052969482421876,-1.2328788042068481,1.4995977878570557,-3.754988670349121
1761132307134969600,8.062969482421876,-0.8553640842437744,2.0719785690307617,-3.403130292892456
1761132307144969500,8.072969482421875,-0.6000223755836487,2.1611647605895996,-3.0195069313049316
1761132307154969600,8.082969482421875,-0.3911064863204956,1.7903696298599243,-2.5864033699035645
1761132307164969500,8.092969482421875,-0.0832303911447525,1.2607494592666626,-1.9559905529022217
1761132307174969600,8.102969482421875,0.365755558013916,0.8502480387687683,-1.1410962343215942
1761132307184969500,8.112969482421875,0.8391761183738708,0.552756667137146,-0.2834414839744568
1761132307194969600,8.122969482421874,1.2692252397537231,0.33223432302474976,0.47769662737846375
1761132307204968700,8.13296875,1.6131423711776733,0.14592044055461884,1.017701506614685
1761132307214968600,8.142968505859375,1.8861991167068481,0.010919216088950634,1.3041973114013672
1761132307224968700,8.15296875,2.141540765762329,-0.0214566420763731,1.4037683010101318
1761132307234968600,8.162968505859375,2.38100004196167,0.010308351367712021,1.398881435394287
1761132307244968700,8.17296875,2.5783095359802246,0.10621419548988342,1.3628404140472412
1761132307254968600,8.182968505859375,2.4836254119873047,0.2436588704586029,1.4190399646759033
1761132307264968700,8.19296875,2.2203423976898193,0.420809805393219,1.5473216772079468
1761132307274968600,8.202968505859374,1.8996381759643555,0.7506770491600037,1.7330247163772583
1761132307284968700,8.21296875,1.469589114189148,0.9699776768684387,1.7916678190231323
1761132307294968600,8.222968505859376,1.0047205686569214,1.0011317729949951,1.793500304222107
1761132307304969500,8.232969482421876,0.6327036619186401,0.8001571297645569,1.8442021608352661
1761132307314969600,8.242969482421875,0.3407101035118103,0.5191590785980225,1.7507398128509521
1761132307324969500,8.252969482421875,0.15622878074645996,0.27236953377723694,1.5833626985549927
1761132307334969600,8.262969482421875,0.060933809727430344,0.002367102773860097,1.4208725690841675
1761132307354969600,8.282969482421874,-0.1540907621383667,-0.6054438352584839,1.1105530261993408
1761132307364969500,8.292969482421874,-0.3147483170032501,-0.7062366008758545,1.0042624473571777
1761132307374969600,8.302969482421876,-0.5371032953262329,-0.4838816225528717,0.7550294399261475
1761132307384969500,8.312969482421876,-0.6776022911071777,-0.6280458569526672,0.4349360466003418
1761132307394969600,8.322969482421875,-0.6721044778823853,-1.0367146730422974,0.36713001132011414
1761132307404968700,8.33296875,-0.5603161454200745,-0.47532951831817627,0.7666358947753906
1761132307414968600,8.342968505859375,-0.403323769569397,0.47762027382850647,1.2113457918167114
1761132307424968700,8.35296875,-0.2396118938922882,1.2082151174545288,1.4819591045379639
1761132307434968600,8.362968505859374,-0.13087788224220276,1.7097355127334595,1.6383405923843384
1761132307444968700,8.37296875,-0.1186605766415596,2.158721446990967,1.7873916625976562
1761132307454968600,8.382968505859376,-0.09117163717746735,2.5789966583251953,1.8387043476104736
1761132307464968700,8.39296875,0.06520986557006836,2.2949442863464355,1.6676621437072754
1761132307474968600,8.402968505859375,0.1794416606426239,-0.40630173683166504,0.788016140460968
1761132307484968700,8.41296875,-0.2554943859577179,-2.164371967315674,-0.1514945775270462
1761132307494968600,8.422968505859375,-0.6708827614784241,-2.7355308532714844,-0.9162978529930115
1761132307504969500,8.432969482421875,-0.9030115604400635,-2.335414171218872,-1.3548991680145264
1761132307514969600,8.442969482421875,-1.0172433853149414,-1.2737303972244263,-1.557706356048584
1761132307524969500,8.452969482421874,-0.9518807530403137,-0.03306308016180992,-1.5796974897384644
1761132307534969600,8.462969482421874,-0.6287330389022827,0.7763333916664124,-1.6438384056091309
1761132307544969500,8.472969482421876,-0.2096794992685318,1.4635567665100098,-1.855197787284851
1761132307554969600,8.482969482421876,0.004734205547720194,2.064648151397705,-1.7134770154953003
1761132307564969500,8.492969482421875,0.04138612002134323,1.6981290578842163,-1.493565559387207
1761132307574969600,8.502969482421875,-0.12171489745378494,0.7451792359352112,-1.3249666690826416
1761132307584969500,8.512969482421875,-0.5083925724029541,-0.19494237005710602,-1.2113457918167114
1761132307594969600,8.522969482421875,-0.9317222237586975,-1.1527791023254395,-1.1759155988693237
1761132307604968700,8.53296875,-1.3122912645339966,-1.630475640296936,-1.2394455671310425
1761132307614968600,8.542968505859376,-1.505935549736023,-1.9236910343170166,-1.4269812107086182
1761132307624968700,8.55296875,-1.5193746089935303,-1.9768363237380981,-1.6071864366531372
1761132307634968600,8.562968505859375,-1.4240796566009521,-1.6897295713424683,-1.663996934890747
1761132307644968700,8.57296875,-1.3238977193832397,-1.2010374069213867,-1.6126842498779297
1761132307654968600,8.582968505859375,-1.2334896326065063,-0.3384957015514374,-1.4233160018920898
1761132307664968700,8.59296875,-1.0343475341796875,0.45807257294654846,-1.0855075120925903
1761132307674968600,8.602968505859375,-0.764345109462738,0.8942303657531738,-0.7397578358650208
1761132307684968700,8.61296875,-0.5010622143745422,0.9864709973335266,-0.5161811113357544
1761132307694968600,8.622968505859374,-0.22250767052173615,0.7158576846122742,-0.4129449129104614
1761132307704969500,8.632969482421874,0.12079860270023346,0.2693152129650116,-0.3066543638706207
1761132307714969600,8.642969482421876,0.21242839097976685,0.04512767121195793,-0.19425514340400696
1761132307724969500,8.652969482421875,0.164170041680336,-0.1760055422782898,-0.01160643994808197
1761132307734969600,8.662969482421875,0.051770828664302826,-0.3012329339981079,0.2223549485206604
1761132307744969500,8.672969482421875,-0.030695978552103043,-0.30367639660835266,0.46547931432724
1761132307754969600,8.682969482421875,-0.06429356336593628,-0.1460731476545334,0.6872233748435974
1761132307764969500,8.692969482421875,-0.05207626149058342,0.12454015016555786,0.8216137290000916
1761132307774969600,8.702969482421874,0.05054909735918045,0.9876927137374878,0.8863654732704163
1761132307784969500,8.712969482421874,0.1794416606426239,1.0047969818115234,0.7831292152404785
1761132307794969600,8.722969482421876,0.19349156320095062,0.7231881022453308,0.6090326309204102
1761132307804968700,8.73296875,0.11468994617462158,0.3554472029209137,0.4893030524253845
1761132307814968800,8.74296875,0.02977968007326126,-0.24992024898529053,0.3903428912162781
1761132307824968700,8.75296875,-0.06123924255371094,-0.7850381731987,0.38728857040405273
1761132307834968600,8.762968505859375,-0.1388191282749176,-0.9933432340621948,0.5283984541893005
1761132307844968700,8.77296875,-0.19868391752243042,-0.9737955331802368,0.7422012686729431
1761132307854968600,8.782968505859374,-0.260992169380188,-0.9212611317634583,0.8619308471679688
1761132307864968700,8.79296875,-0.2762638032436371,-0.6763041615486145,0.9419541954994202
1761132307874968600,8.802968505859376,-0.23594669997692108,-0.377591073513031,0.959669291973114
1761132307884968700,8.81296875,-0.16508632898330688,-0.11736248433589935,0.8888089060783386
1761132307894968600,8.822968505859375,-0.078343465924263,0.16058120131492615,0.7812966704368591
1761132307904969500,8.832969482421875,-0.008704829961061478,0.4977788031101227,0.6762278079986572
1761132307914969300,8.84296923828125,0.019394971430301666,0.8142070174217224,0.5583308339118958
1761132307924969500,8.852969482421875,0.03649919852614403,1.0640509128570557,0.42577308416366577
1761132307934969300,8.86296923828125,0.11468994617462158,1.304731845855713,0.23518311977386475
1761132307944969500,8.872969482421874,0.204487144947052,1.3389402627944946,0.13072516024112701
1761132307954969300,8.88296923828125,0.3199406862258911,1.266247272491455,0.05864306539297104
1761132307964969500,8.892969482421876,0.4482223689556122,1.092761516571045,0.030543262138962746
1761132307974969600,8.902969482421875,0.5740606188774109,0.9119454622268677,0.05253441259264946
1761132307994969600,8.922969482421875,0.7255551815032959,0.7567856907844543,0.1563815027475357
1761132308004968700,8.93296875,0.7457137703895569,0.7787768244743347,0.19608774781227112
1761132308014968600,8.942968505859374,0.709061861038208,0.7940484881401062,0.23335053026676178
1761132308024968700,8.95296875,0.6174320578575134,0.7427358031272888,0.2736676335334778
1761132308034968600,8.962968505859376,0.4818199574947357,0.5478697419166565,0.31031954288482666
1761132308044968700,8.97296875,0.3419318199157715,0.23266330361366272,0.30482175946235657
1761132308054968600,8.982968505859375,0.2295326143503189,-0.12347114086151123,0.25045475363731384
1761132308064968400,8.992968505859375,0.15622878074645996,-0.43684500455856323,0.1716531366109848
1761132308074968600,9.002968505859375,0.1342376321554184,-0.5981134176254272,0.12217304855585098
1761132308084968400,9.012968505859375,0.15317445993423462,-0.5712353587150574,0.1258382350206375
1761132308094968600,9.022968505859374,0.20326541364192963,-0.3714824318885803,0.18814650177955627
1761132308104969500,9.032969482421874,0.26740625500679016,-0.08620835840702057,0.2889392673969269
1761132308114969300,9.04296923828125,0.31871894001960754,0.19234620034694672,0.36713001132011414
1761132308124969500,9.052969482421876,0.3413209617137909,0.4104250967502594,0.3781255781650543
1761132308134969300,9.06296923828125,0.3400992155075073,0.5130504369735718,0.30604347586631775
1761132308144969500,9.072969482421875,0.3364340364933014,0.4666246771812439,0.16493362188339233
1761132308154969300,9.08296923828125,0.31749722361564636,0.38415786623954773,0.12400564551353455
1761132308164969500,9.092969482421875,0.2765692472457886,-0.34399348497390747,-0.05742133408784866
1761132308174969300,9.10296923828125,0.28695395588874817,-0.5028184652328491,-0.18325957655906677
1761132308184969500,9.112969482421875,0.2344195395708084,-0.42584943771362305,-0.2724458873271942
1761132308194969300,9.12296923828125,0.12568552792072296,-0.30917418003082275,-0.33475416898727417
1761132308204968400,9.132968505859376,0.043218716979026794,-0.1601230502128601,-0.3646865487098694
