time,seconds_elapsed,z,y,x
1761131570697372400,0.129372314453125,0.5579824447631836,-0.23603057861328125,-0.4979010224342346
1761131570717372400,0.149372314453125,0.4934825897216797,-0.19206714630126953,-0.42462998628616333
1761131570727372800,0.159372802734375,0.4611039161682129,-0.16918087005615234,-0.3893424868583679
1761131570737373000,0.169373046875,0.4297771453857422,-0.14675188064575195,-0.3547210097312927
1761131570747372800,0.179372802734375,0.37690162658691406,-0.10237979888916016,-0.3375092148780823
1761131570757373000,0.189373046875,0.3269491195678711,-0.05880117416381836,-0.3285372853279114
1761131570767372800,0.199372802734375,0.28665685653686523,-0.023514747619628906,-0.3190695643424988
1761131570777373000,0.209373046875,0.25505971908569336,0.002364635467529297,-0.29650771617889404
1761131570787373000,0.219373046875,0.23396730422973633,0.015309810638427734,-0.24752908945083618
1761131570797373000,0.229373046875,0.22044849395751953,0.018285274505615234,-0.17093396186828613
1761131570807373000,0.239373046875,0.2116861343383789,0.015886783599853516,-0.07767331600189209
1761131570817372400,0.249372314453125,0.20813417434692383,0.009488582611083984,0.019711315631866455
1761131570827372500,0.25937255859375,0.20928668975830078,0.0007276535034179688,0.10854828357696533
1761131570837372400,0.269372314453125,0.21289348602294922,-0.007951736450195312,0.17944186925888062
1761131570847372500,0.27937255859375,0.21582508087158203,-0.013971805572509766,0.22890058159828186
1761131570857371000,0.289370849609375,0.2173910140991211,-0.016963481903076172,0.2540619969367981
1761131570867370800,0.299370849609375,0.21758365631103516,-0.017605304718017578,0.26187801361083984
1761131570877371000,0.309370849609375,0.21667909622192383,-0.016785144805908203,0.26209309697151184
1761131570887370800,0.319370849609375,0.21456527709960938,-0.014861106872558594,0.26261356472969055
1761131570897371000,0.329370849609375,0.21147918701171875,-0.012466907501220703,0.2705092132091522
1761131570907370800,0.339370849609375,0.20867681503295898,-0.011059761047363281,0.2917187809944153
1761131570917371000,0.349370849609375,-0.9944930076599121,-4.494082450866699,1.4546741247177124
1761131570927370800,0.359370849609375,-0.9981875419616699,-4.493037223815918,1.5066556930541992
1761131570937371000,0.369370849609375,-2.0245699882507324,-4.341113567352295,0.8827052116394043
1761131570947370800,0.379370849609375,-2.268601894378662,-4.180333614349365,0.6575371026992798
1761131570957371000,0.389370849609375,-2.278214931488037,-4.052190780639648,0.6528714895248413
1761131570967370800,0.399370849609375,-2.1817851066589355,-4.089303970336914,0.7263466119766235
1761131570977371000,0.409370849609375,-2.041846752166748,-4.150181770324707,0.8242201805114746
1761131570987370800,0.419370849609375,-1.8962006568908691,-4.189869403839111,0.8906955122947693
1761131570997371000,0.429370849609375,-1.8249526023864746,-4.159411907196045,0.9887348413467407
1761131571007370800,0.439370849609375,-1.653214454650879,-4.013385772705078,1.167345643043518
1761131571017370400,0.449370361328125,-1.658033847808838,-4.007269859313965,1.2119560241699219
1761131571027370500,0.45937060546875,-1.0371413230895996,-3.574023962020874,1.343302845954895
1761131571037370400,0.469370361328125,-0.5570130348205566,-3.4127166271209717,1.2485105991363525
1761131571047370500,0.47937060546875,0.0912160873413086,-3.45871901512146,0.9327760934829712
1761131571057369600,0.48936962890625,0.8681135177612305,-3.6818795204162598,0.6856964826583862
1761131571067369500,0.499369384765625,1.8048548698425293,-3.98602557182312,0.4985315799713135
1761131571077369600,0.50936962890625,2.723977565765381,-4.226595878601074,0.349264532327652
1761131571087369500,0.519369384765625,3.340449333190918,-4.400371551513672,0.15270166099071503
1761131571097369600,0.52936962890625,3.6693172454833984,-4.454927921295166,-0.03786343336105347
1761131571107369500,0.539369384765625,3.66672420501709,-4.307875633239746,-0.2780482769012451
1761131571117369900,0.549369873046875,3.4773268699645996,-4.10135555267334,-0.4207518994808197
1761131571127369700,0.55936962890625,3.0333309173583984,-3.9277467727661133,-0.5692937970161438
1761131571137369900,0.569369873046875,2.510366916656494,-3.67033052444458,-0.7156227231025696
1761131571147369700,0.57936962890625,2.073521137237549,-3.340912342071533,-0.8616071939468384
1761131571157370600,0.58937060546875,1.7481474876403809,-2.9173243045806885,-1.0163946151733398
1761131571167370500,0.59937060546875,1.5180621147155762,-2.609325885772705,-1.030369520187378
1761131571177370600,0.60937060546875,1.460129737854004,-2.358518600463867,-0.9564056396484375
1761131571187370500,0.61937060546875,1.3395066261291504,-2.1683106422424316,-0.6947194337844849
1761131571197370600,0.62937060546875,1.329206943511963,-2.1454944610595703,-0.6304244995117188
1761131571207370500,0.63937060546875,1.7905282974243164,-1.8894433975219727,-0.5678402185440063
1761131571217369900,0.649369873046875,2.324636459350586,-1.940514087677002,-0.11479151248931885
1761131571227369700,0.65936962890625,2.694774627685547,-1.9943938255310059,0.3080352544784546
1761131571237369900,0.669369873046875,2.9752044677734375,-1.904073715209961,0.3048604726791382
1761131571247369700,0.67936962890625,3.6722073554992676,-1.8372869491577148,0.16790759563446045
1761131571257368800,0.689368896484375,4.778206825256348,-2.006221294403076,0.2714359760284424
1761131571267369000,0.699368896484375,5.990549087524414,-2.4006805419921875,0.4809604287147522
1761131571277368800,0.709368896484375,7.3420586585998535,-2.9690001010894775,0.8217189908027649
1761131571287369000,0.719368896484375,8.228708267211914,-3.32706618309021,0.9889582991600037
1761131571297368800,0.729368896484375,8.771441459655762,-3.500838279724121,1.1412875652313232
1761131571307369000,0.739368896484375,8.818225860595703,-3.472336769104004,1.1317907571792603
1761131571317369300,0.749369384765625,8.546188354492188,-3.277907133102417,1.1878727674484253
1761131571327369200,0.759369140625,7.845607280731201,-3.0470051765441895,1.4501521587371826
1761131571337369300,0.769369384765625,6.729600429534912,-2.944808006286621,1.755784273147583
1761131571347369200,0.779369140625,5.627648830413818,-3.067091941833496,1.8708183765411377
1761131571357370000,0.7893701171875,4.623048782348633,-3.2992770671844482,1.8547418117523193
1761131571367370200,0.799370361328125,3.89646053314209,-3.47745680809021,1.795300841331482
1761131571377370000,0.8093701171875,3.594909191131592,-3.4840290546417236,1.8487852811813354
1761131571387370200,0.819370361328125,3.55116605758667,-3.3381385803222656,2.063638687133789
1761131571397370000,0.8293701171875,3.5778093338012695,-3.352936267852783,2.448406934738159
1761131571407370200,0.839370361328125,3.6460165977478027,-3.4805917739868164,2.835470199584961
1761131571417369300,0.849369384765625,3.755042552947998,-3.64105486869812,3.0941059589385986
1761131571427369200,0.859369140625,3.7287425994873047,-3.760655164718628,3.124344825744629
1761131571437369300,0.869369384765625,3.728233814239502,-3.7151522636413574,2.9132583141326904
1761131571447369200,0.879369140625,4.011312484741211,-3.611105442047119,2.546391725540161
1761131571457368300,0.889368408203125,4.317272663116455,-3.727987766265869,2.303245782852173
1761131571467368400,0.899368408203125,4.807384967803955,-4.043572425842285,2.0695536136627197
1761131571477368600,0.90936865234375,5.457193374633789,-4.351956367492676,1.8394169807434082
1761131571487368400,0.919368408203125,6.0714874267578125,-4.736270427703857,1.5615849494934082
1761131571497368600,0.92936865234375,6.53926420211792,-5.119748592376709,1.1858484745025635
1761131571507368400,0.939368408203125,6.717638969421387,-5.554155349731445,0.840733528137207
1761131571527369200,0.959369140625,5.776919841766357,-5.81810188293457,0.06884901225566864
1761131571537369300,0.969369384765625,4.814521312713623,-5.7156596183776855,-0.3974018394947052
1761131571547369200,0.979369140625,3.7250142097473145,-5.486043930053711,-0.8221532702445984
1761131571557370000,0.9893701171875,2.6716623306274414,-5.243548393249512,-1.160393476486206
1761131571567370200,0.999370361328125,1.5697526931762695,-5.084644794464111,-1.4154142141342163
1761131571577370000,1.0093701171875,0.7387738227844238,-5.079771995544434,-1.5951169729232788
1761131571587370200,1.019370361328125,0.08399152755737305,-5.1492462158203125,-1.5699533224105835
1761131571597370000,1.0293701171875,-0.42730712890625,-5.177590847015381,-1.2908616065979004
1761131571607370200,1.039370361328125,-0.8993091583251953,-5.401892185211182,-1.0487380027770996
1761131571617369300,1.049369384765625,-1.2913308143615723,-5.593504905700684,-0.45834577083587646
1761131571627369200,1.059369140625,-1.7348051071166992,-5.377109527587891,0.03875511884689331
1761131571637369300,1.069369384765625,-2.132901668548584,-5.521638870239258,0.15697365999221802
1761131571647369200,1.079369140625,-2.427950859069824,-5.5064826011657715,0.5261484384536743
1761131571657368300,1.089368408203125,-2.6773223876953125,-5.465167045593262,0.873828113079071
1761131571667368400,1.099368408203125,-2.825756549835205,-5.347066879272461,1.25026273727417
1761131571677368300,1.109368408203125,-3.0834436416625977,-5.367998123168945,1.622746229171753
1761131571687368400,1.119368408203125,-3.2103850841522217,-5.398436546325684,1.9337213039398193
1761131571697368300,1.129368408203125,-3.367971897125244,-5.287243843078613,1.97092866897583
1761131571707368400,1.139368408203125,-3.3130645751953125,-5.407010078430176,2.251486301422119
1761131571717369000,1.149369140625,-3.3617782592773438,-5.454357147216797,2.322458505630493
1761131571727369200,1.159369140625,-3.2938709259033203,-5.511797904968262,2.2340474128723145
1761131571737369300,1.169369384765625,-3.256641387939453,-5.133697032928467,2.3405568599700928
1761131571747369200,1.179369140625,-2.926248788833618,-4.680882930755615,2.3141000270843506
1761131571757370000,1.1893701171875,-2.5636215209960938,-4.324553489685059,2.231797456741333
1761131571767370200,1.199370361328125,-2.0626320838928223,-4.18129825592041,2.345379114151001
1761131571777370000,1.2093701171875,-1.4644155502319336,-4.121896743774414,2.174189329147339
1761131571787370000,1.219369873046875,-0.7684097290039062,-4.1204423904418945,1.9043045043945312
1761131571797370000,1.2293701171875,0.2066197395324707,-4.200802326202393,1.411710262298584
1761131571817370000,1.2493701171875,2.6121816635131836,-4.515685081481934,0.651045024394989
1761131571827370000,1.259369873046875,2.541656494140625,-4.458979606628418,0.6820018887519836
1761131571837370000,1.2693701171875,5.449010372161865,-4.730307579040527,0.3284606337547302
1761131571847370000,1.279369873046875,6.5843000411987305,-4.839980125427246,0.32198163866996765
1761131571857369300,1.289369384765625,7.54539155960083,-4.909843444824219,0.3187226355075836
1761131571867369200,1.299369140625,7.9408860206604,-4.874016761779785,0.24738259613513947
1761131571877369300,1.309369384765625,8.006976127624512,-4.665709495544434,0.10491503775119781
1761131571887369200,1.319369140625,7.898709774017334,-4.286549091339111,-0.03063128888607025
1761131571897369300,1.329369384765625,7.809918403625488,-3.8686554431915283,-0.10019391775131226
1761131571907369200,1.339369140625,7.59997034072876,-3.6140289306640625,-0.003178924322128296
1761131571917370000,1.3493701171875,7.2199177742004395,-3.5193324089050293,0.26056402921676636
1761131571927370200,1.359370361328125,6.923436641693115,-3.460272789001465,0.545643150806427
1761131571937370000,1.3693701171875,6.875230312347412,-3.2355659008026123,0.7107107639312744
1761131571947370200,1.379370361328125,7.0557403564453125,-3.1422932147979736,1.0098023414611816
1761131571957371000,1.389370849609375,7.304412364959717,-3.233827829360962,1.385613203048706
1761131571967371000,1.39937109375,7.637580394744873,-3.5604870319366455,1.739506721496582
1761131571977371100,1.40937109375,7.682150363922119,-3.9002838134765625,2.0272374153137207
1761131571987371000,1.41937109375,7.5001749992370605,-4.2485198974609375,2.199643850326538
1761131571997370600,1.42937060546875,7.113057613372803,-4.590423583984375,2.3849611282348633
1761131572007370800,1.439370849609375,7.110875129699707,-4.574592590332031,2.453394651412964
1761131572017371000,1.449370849609375,5.9133100509643555,-5.004508018493652,2.866299629211426
1761131572027370800,1.459370849609375,5.001785755157471,-5.172390460968018,3.231860876083374
1761131572037370600,1.46937060546875,4.202567100524902,-5.227147102355957,3.486236572265625
1761131572047370800,1.479370849609375,3.3793463706970215,-5.202178478240967,3.712433338165283
1761131572057369900,1.489369873046875,2.601834774017334,-5.088306427001953,3.87954044342041
1761131572067370000,1.499369873046875,1.9039335250854492,-4.946282386779785,4.025318622589111
1761131572077369900,1.509369873046875,1.2689318656921387,-4.848453998565674,4.157173156738281
1761131572087370000,1.519369873046875,0.5541677474975586,-4.760237693786621,4.307475566864014
1761131572097369900,1.529369873046875,-0.06620550155639648,-4.661714553833008,4.349854469299316
1761131572110417700,1.542417724609375,-0.5986328125,-4.566001892089844,4.170485496520996
1761131572120417800,1.552417724609375,-1.0016288757324219,-4.474869728088379,3.9242889881134033
1761131572130417700,1.562417724609375,-1.3737316131591797,-4.442878723144531,3.6584458351135254
1761131572140417800,1.572417724609375,-1.6989731788635254,-4.426290512084961,3.431079864501953
1761131572150417700,1.582417724609375,-2.004823684692383,-4.385504722595215,3.2061517238616943
1761131572160418600,1.59241845703125,-2.201538562774658,-4.304044723510742,3.0281405448913574
1761131572170418700,1.602418701171875,-2.3566064834594727,-4.175823211669922,2.9276247024536133
1761131572180418600,1.61241845703125,-2.4489169120788574,-4.047801971435547,2.838627338409424
1761131572190418700,1.622418701171875,-2.471989631652832,-3.918966293334961,2.8318350315093994
1761131572200418600,1.63241845703125,-2.4125537872314453,-3.7332980632781982,2.908203601837158
1761131572210418700,1.642418701171875,-2.197014808654785,-3.4825632572174072,2.904940128326416
1761131572220418600,1.65241845703125,-2.0104317665100098,-3.275542736053467,2.9781460762023926
1761131572230418700,1.662418701171875,-1.8893241882324219,-3.064941644668579,3.04546856880188
1761131572240418600,1.67241845703125,-1.831474781036377,-2.901028633117676,3.109872817993164
1761131572250418700,1.682418701171875,-1.7895798683166504,-2.686746120452881,3.132422924041748
1761131572260417800,1.692417724609375,-1.5644621849060059,-2.4390108585357666,3.1370580196380615
1761131572270418000,1.70241796875,-1.2552285194396973,-2.2004685401916504,3.1068742275238037
1761131572280417800,1.712417724609375,-0.9563808441162109,-2.0259361267089844,2.954897165298462
1761131572290418000,1.72241796875,-0.5053591728210449,-1.853184700012207,2.7798895835876465
1761131572300418000,1.73241796875,0.10642051696777344,-1.734910488128662,2.647948741912842
1761131572310418200,1.742418212890625,0.8567600250244141,-1.6882681846618652,2.555440902709961
1761131572320418000,1.75241796875,1.9290838241577148,-1.547368049621582,2.610464096069336
1761131572330418200,1.762418212890625,2.8841018676757812,-1.512094497680664,2.7045445442199707
1761131572340418000,1.77241796875,3.7196035385131836,-1.5511188507080078,2.7163944244384766
1761131572350418200,1.782418212890625,4.416121482849121,-1.6581239700317383,2.5375404357910156
1761131572360418800,1.792418701171875,4.998928546905518,-1.6607942581176758,2.2107653617858887
1761131572370419000,1.8024189453125,5.318915367126465,-1.626114845275879,1.842086911201477
1761131572380419000,1.812419189453125,5.282525062561035,-1.4810972213745117,1.4926472902297974
1761131572390419000,1.8224189453125,5.124491214752197,-1.2164497375488281,1.1528401374816895
1761131572400419000,1.832419189453125,5.046541213989258,-0.9465856552124023,0.8691589832305908
1761131572410419000,1.8424189453125,5.0513596534729,-0.7969074249267578,0.6807801723480225
1761131572420418800,1.852418701171875,5.252217769622803,-0.7679805755615234,0.6754722595214844
1761131572430419000,1.8624189453125,5.520875930786133,-0.8310985565185547,0.7884211540222168
1761131572440418800,1.872418701171875,5.7164411544799805,-0.9272565841674805,0.8493766784667969
1761131572450419000,1.8824189453125,5.736632347106934,-0.9126715660095215,0.8590168952941895
1761131572460418300,1.892418212890625,5.7664384841918945,-0.7226161956787109,0.8345043659210205
1761131572470418200,1.902418212890625,5.834877967834473,-0.44119691848754883,0.9383969306945801
1761131572480418300,1.912418212890625,5.901059627532959,-0.26959800720214844,1.152146339416504
1761131572490418200,1.922418212890625,6.050546646118164,-0.3092155456542969,1.3043231964111328
1761131572500418300,1.932418212890625,6.40001916885376,-0.4524998664855957,1.2560288906097412
1761131572510418200,1.942418212890625,6.861724376678467,-0.7537722587585449,1.1567881107330322
1761131572520418300,1.952418212890625,7.162365913391113,-1.2478737831115723,1.0891807079315186
1761131572530418200,1.962418212890625,7.183530330657959,-1.8030946254730225,1.0774734020233154
1761131572540418300,1.972418212890625,6.924586296081543,-2.1831276416778564,1.0025265216827393
1761131572550418200,1.982418212890625,6.538342475891113,-2.3314311504364014,0.9858295917510986
1761131572560419000,1.992419189453125,6.2103657722473145,-2.3578240871429443,1.2582623958587646
1761131572570419000,2.0024189453125,6.019192695617676,-2.470428228378296,1.9314135313034058
1761131572580419000,2.012419189453125,5.841066360473633,-2.6256227493286133,2.7565793991088867
1761131572590419000,2.0224189453125,5.689754962921143,-2.7011289596557617,3.403336524963379
1761131572600419000,2.032419189453125,5.614661693572998,-2.670980215072632,3.791393756866455
1761131572610419000,2.0424189453125,5.780946254730225,-2.7490954399108887,3.82956862449646
1761131572620419000,2.052419189453125,6.021456241607666,-3.093360185623169,3.7364096641540527
1761131572630419000,2.0624189453125,6.1235785484313965,-3.6554744243621826,3.697596311569214
1761131572640419000,2.072419189453125,5.872060298919678,-4.139958381652832,3.7534420490264893
1761131572650419000,2.0824189453125,5.3399152755737305,-4.485775947570801,3.6972532272338867
1761131572660418000,2.09241796875,4.5644354820251465,-4.695343494415283,3.5806150436401367
1761131572670418200,2.102418212890625,3.746865749359131,-4.626344203948975,3.394434928894043
1761131572680418000,2.11241796875,3.1669135093688965,-4.473101615905762,3.3530828952789307
1761131572690418200,2.122418212890625,2.6095223426818848,-4.350677490234375,3.457615852355957
1761131572700418000,2.13241796875,2.077674388885498,-4.235222339630127,3.7427611351013184
1761131572710418200,2.142418212890625,1.463104248046875,-4.1522321701049805,4.1682329177856445
1761131572720418000,2.15241796875,0.7973933219909668,-4.015328407287598,4.4999003410339355
1761131572730418200,2.162418212890625,0.013640403747558594,-3.8842146396636963,4.6726460456848145
1761131572740418000,2.17241796875,-0.49285221099853516,-3.739757537841797,4.886816501617432
1761131572750418200,2.182418212890625,-0.9000234603881836,-3.6068294048309326,4.887368202209473
1761131572760418800,2.192418701171875,-1.0647320747375488,-3.530200481414795,4.837637424468994
1761131572770418700,2.202418701171875,-1.2129669189453125,-3.6881799697875977,4.919379711151123
1761131572780418800,2.212418701171875,-1.3211960792541504,-3.7395734786987305,5.0347981452941895
1761131572790418700,2.222418701171875,-1.497683048248291,-3.714668035507202,5.242237567901611
1761131572800418800,2.232418701171875,-1.6432185173034668,-3.6456797122955322,5.427811622619629
1761131572810418700,2.242418701171875,-1.811244249343872,-3.5064644813537598,5.5447821617126465
1761131572820418800,2.252418701171875,-1.8964869976043701,-3.296011447906494,5.3935089111328125
1761131572830418700,2.262418701171875,-1.8113629817962646,-3.3988089561462402,5.322139739990234
1761131572840418800,2.272418701171875,-1.696751356124878,-3.223073959350586,5.0042948722839355
1761131572850418700,2.282418701171875,-0.9073662757873535,-3.1698312759399414,4.532957553863525
1761131572860418000,2.29241796875,-0.42360973358154297,-3.3492865562438965,4.297119617462158
1761131572870418000,2.30241796875,-0.37360048294067383,-3.392533779144287,4.279475688934326
1761131572880418000,2.31241796875,0.296417236328125,-3.390707492828369,3.7344205379486084
1761131572890418000,2.32241796875,0.4124116897583008,-3.154858112335205,3.3350610733032227
1761131572900418000,2.33241796875,0.7160062789916992,-2.7793455123901367,2.8796377182006836
1761131572910418000,2.34241796875,1.0487923622131348,-2.591500759124756,2.754687547683716
1761131572920418000,2.35241796875,1.4896621704101562,-2.6016902923583984,2.781247138977051
1761131572930418000,2.36241796875,1.8983564376831055,-2.7256412506103516,2.9747891426086426
1761131572940418000,2.37241796875,1.9651780128479004,-2.8441410064697266,3.187869071960449
1761131572950418000,2.38241796875,2.139735698699951,-2.7856597900390625,3.2893121242523193
1761131572970419000,2.4024189453125,3.6463069915771484,-2.5506434440612793,2.998533248901367
1761131572980418800,2.412418701171875,5.2104172706604,-2.9126811027526855,3.12214732170105
1761131572990419000,2.4224189453125,6.923312664031982,-3.554945230484009,3.4504716396331787
1761131573000418800,2.432418701171875,8.149839401245117,-4.1329345703125,3.5658388137817383
1761131573010419000,2.4424189453125,8.687176704406738,-4.665029048919678,3.656860113143921
1761131573020418800,2.452418701171875,8.542431831359863,-4.546098232269287,3.6594350337982178
1761131573030419000,2.4624189453125,8.244071006774902,-4.278029441833496,3.2536914348602295
1761131573040418800,2.472418701171875,8.35244369506836,-4.1690263748168945,3.482980489730835
1761131573050419000,2.4824189453125,8.927882194519043,-3.7355566024780273,3.738856792449951
1761131573060418000,2.49241796875,9.123659133911133,-3.284679889678955,3.804926872253418
1761131573070418200,2.502418212890625,8.80072021484375,-3.090329170227051,3.8464159965515137
1761131573080418000,2.51241796875,7.944919586181641,-3.3222544193267822,3.951345920562744
1761131573090418000,2.52241796875,6.815390110015869,-3.687638282775879,4.032964706420898
1761131573100418000,2.53241796875,6.858734607696533,-3.705014228820801,4.072218418121338
1761131573110418000,2.54241796875,4.292301654815674,-3.801823139190674,4.081619739532471
1761131573120418000,2.55241796875,3.126939296722412,-3.4663827419281006,4.277611255645752
1761131573130418000,2.56241796875,2.0395236015319824,-2.9427173137664795,4.60499382019043
1761131573140418000,2.57241796875,1.259866714477539,-2.3991169929504395,4.8140997886657715
1761131573150418000,2.58241796875,0.6050667762756348,-2.0259227752685547,4.941974639892578
1761131573160418800,2.592418701171875,0.12838220596313477,-1.8032984733581543,4.868342876434326
1761131573170419000,2.6024189453125,-0.11182212829589844,-1.711073398590088,4.665754318237305
1761131573180418800,2.612418701171875,-0.061289310455322266,-1.785560131072998,4.417988300323486
1761131573190419000,2.6224189453125,0.13601303100585938,-2.097827911376953,4.283697605133057
1761131573200418800,2.632418701171875,0.27281951904296875,-2.4114556312561035,4.242498874664307
1761131573210419000,2.6424189453125,0.31922388076782227,-2.587310314178467,4.283785820007324
1761131573220418800,2.652418701171875,0.2498774528503418,-2.533027172088623,4.263313293457031
1761131573230419000,2.6624189453125,0.026830673217773438,-2.551433563232422,4.102938175201416
1761131573240418800,2.672418701171875,-0.22457647323608398,-2.470702648162842,3.837268352508545
1761131573250419000,2.6824189453125,-0.45344972610473633,-2.3868613243103027,3.5780086517333984
1761131573260418000,2.69241796875,-0.6618704795837402,-2.3405919075012207,3.501783609390259
1761131573270418200,2.702418212890625,-0.8852677345275879,-2.2962303161621094,3.6272225379943848
1761131573280418000,2.71241796875,-1.1225547790527344,-2.114243507385254,3.8032140731811523
1761131573290418200,2.722418212890625,-1.3540287017822266,-1.9141473770141602,4.00792932510376
1761131573300418000,2.73241796875,-1.6130356788635254,-1.693899154663086,4.161023139953613
1761131573310418200,2.742418212890625,-1.9958982467651367,-1.5005707740783691,4.209800720214844
1761131573320418000,2.75241796875,-2.2344274520874023,-1.3387479782104492,4.148210525512695
1761131573330418200,2.762418212890625,-2.3591079711914062,-1.275418758392334,4.089806079864502
1761131573340418000,2.77241796875,-2.4026129245758057,-1.323155403137207,4.109766960144043
1761131573350418200,2.782418212890625,-2.304807186126709,-1.4256916046142578,4.124763011932373
1761131573360418800,2.792418701171875,-2.0208826065063477,-1.5085363388061523,4.044890403747559
1761131573370419000,2.8024189453125,-1.6343822479248047,-1.502312183380127,3.87184739112854
1761131573380418800,2.812418701171875,-0.9691619873046875,-1.4111604690551758,3.6055688858032227
1761131573390419000,2.8224189453125,-0.032135963439941406,-1.38344144821167,3.3138906955718994
1761131573400418800,2.832418701171875,0.9295806884765625,-1.4091682434082031,3.0909385681152344
1761131573410419000,2.8424189453125,1.7506213188171387,-1.4907569885253906,2.8186049461364746
1761131573420418800,2.852418701171875,2.3338370323181152,-1.532379150390625,2.518669605255127
1761131573430419000,2.8624189453125,2.5592494010925293,-1.5150680541992188,2.190887928009033
1761131573440418800,2.872418701171875,2.5989089012145996,-1.4087190628051758,1.857522964477539
1761131573450419000,2.8824189453125,2.521768093109131,-1.2608118057250977,1.510570764541626
1761131573460418000,2.89241796875,2.5146799087524414,-1.124068260192871,1.1852495670318604
1761131573470418200,2.902418212890625,2.7006754875183105,-1.0548067092895508,1.0562243461608887
1761131573480418000,2.91241796875,3.0353708267211914,-1.0905780792236328,1.2500574588775635
1761131573490418200,2.922418212890625,3.4551658630371094,-1.0872492790222168,1.5574555397033691
1761131573500418000,2.93241796875,3.978455066680908,-1.0034685134887695,1.824643850326538
1761131573510418200,2.942418212890625,4.421686172485352,-0.8371100425720215,1.9631781578063965
1761131573520418000,2.95241796875,4.584648132324219,-0.7208590507507324,2.0454609394073486
1761131573530418200,2.962418212890625,4.5068769454956055,-0.6090836524963379,2.135211229324341
1761131573540418000,2.97241796875,4.4077653884887695,-0.5725765228271484,2.2570958137512207
1761131573550418200,2.982418212890625,4.367982864379883,-0.5504093170166016,2.2215890884399414
1761131573560418800,2.992418701171875,5.050799369812012,-0.48664331436157227,2.295104503631592
1761131573570418700,3.002418701171875,5.613366603851318,-0.6582250595092773,2.204458713531494
1761131573580418800,3.012418701171875,6.140264511108398,-0.9108099937438965,1.9877135753631592
1761131573590418700,3.022418701171875,6.463444232940674,-1.171605110168457,1.6908068656921387
1761131573600418800,3.032418701171875,6.371562480926514,-1.3732962608337402,1.4466378688812256
1761131573610418700,3.042418701171875,5.929747104644775,-1.3468966484069824,1.350839376449585
1761131573620418800,3.052418701171875,5.269589900970459,-1.1802725791931152,1.3554093837738037
1761131573630418700,3.062418701171875,4.677571773529053,-1.0287165641784668,1.6270089149475098
1761131573640418800,3.072418701171875,4.688488006591797,-1.0765514373779297,1.5796849727630615
1761131573650418700,3.082418701171875,3.953892230987549,-0.8183283805847168,2.7318460941314697
1761131573660418000,3.09241796875,4.179605484008789,-0.7100191116333008,3.173462152481079
1761131573670418200,3.102418212890625,4.756382942199707,-0.8233604431152344,3.398597240447998
1761131573680418000,3.11241796875,5.436821937561035,-1.310340404510498,3.6151247024536133
1761131573690418000,3.12241796875,5.948814868927002,-2.0290367603302,3.987380266189575
1761131573700418000,3.13241796875,6.011608123779297,-2.6781325340270996,4.324217796325684
1761131573710418000,3.14241796875,5.500404357910156,-3.13173770904541,4.610038757324219
1761131573720418000,3.15241796875,4.665047645568848,-3.260364532470703,4.6886305809021
1761131573730418200,3.162418212890625,3.5519890785217285,-3.2090678215026855,4.603108882904053
1761131573740418000,3.17241796875,2.365398406982422,-3.0775086879730225,4.482820510864258
1761131573750418000,3.18241796875,1.2332797050476074,-2.937359571456909,4.4022369384765625
1761131573760418800,3.192418701171875,0.260739803314209,-2.8343424797058105,4.378181457519531
1761131573770419000,3.2024189453125,-0.6284470558166504,-2.7972846031188965,4.397015571594238
1761131573780418800,3.212418701171875,-1.1970343589782715,-2.784611701965332,4.406906604766846
1761131573790419000,3.2224189453125,-1.6282057762145996,-2.837676763534546,4.486423492431641
1761131573800418800,3.232418701171875,-2.1059775352478027,-2.960239887237549,4.718990325927734
1761131573810419000,3.2424189453125,-2.466324806213379,-3.0753655433654785,4.959049224853516
1761131573820418800,3.252418701171875,-2.787813186645508,-3.147916316986084,5.157160758972168
1761131573830419000,3.2624189453125,-2.9764232635498047,-3.175548553466797,5.187633037567139
1761131573840418800,3.272418701171875,-3.0361061096191406,-3.1560471057891846,5.161515235900879
1761131573850419000,3.2824189453125,-3.0412845611572266,-3.193551778793335,5.018810272216797
1761131573860418000,3.29241796875,-2.936725616455078,-3.3449978828430176,4.8858842849731445
1761131573870418200,3.302418212890625,-2.847407341003418,-3.499591827392578,4.717846870422363
1761131573880418000,3.31241796875,-2.6246213912963867,-3.7244784832000732,4.5394392013549805
1761131573890418200,3.322418212890625,-2.3540382385253906,-3.9406490325927734,4.299590110778809
1761131573900418000,3.33241796875,-1.9776062965393066,-3.9902429580688477,4.013390064239502
1761131573910418200,3.342418212890625,-1.979027271270752,-4.009886741638184,3.9599108695983887
1761131573920418000,3.35241796875,-1.0834379196166992,-3.9524741172790527,3.1988368034362793
1761131573930418200,3.362418212890625,-0.5640444755554199,-3.901712656021118,2.7117764949798584
1761131573940418000,3.37241796875,-0.5677142143249512,-3.912134885787964,2.6733038425445557
1761131573950418200,3.382418212890625,-0.3446187973022461,-3.916078805923462,2.014674663543701
1761131573960418800,3.392418701171875,-0.36649513244628906,-3.7821948528289795,1.8361992835998535
1761131573970418700,3.402418701171875,-0.286405086517334,-3.5461301803588867,1.9389570951461792
1761131573980418800,3.412418701171875,-0.2928643226623535,-3.5509204864501953,1.9056533575057983
1761131573990419000,3.4224189453125,0.6553773880004883,-3.154379367828369,2.588797092437744
1761131574000418800,3.432418701171875,1.6917576789855957,-3.1554956436157227,2.940967559814453
1761131574010419000,3.4424189453125,2.755915641784668,-3.2810981273651123,2.9758548736572266
1761131574020418800,3.452418701171875,4.158975124359131,-3.4133734703063965,2.7157845497131348
1761131574030418700,3.462418701171875,5.759552001953125,-3.5663444995880127,2.2666656970977783
1761131574040418800,3.472418701171875,7.268852233886719,-3.675631046295166,1.7865980863571167
1761131574050418700,3.482418701171875,8.465906143188477,-3.70942759513855,1.3394205570220947
1761131574060418000,3.49241796875,9.296550750732422,-3.7317168712615967,1.009217619895935
1761131574070418000,3.50241796875,9.641525268554688,-3.577887773513794,0.8191360235214233
1761131574080418000,3.51241796875,9.855894088745117,-3.274855852127075,0.6388019323348999
1761131574090418000,3.52241796875,9.857192993164062,-3.0653910636901855,0.5456892251968384
1761131574100418000,3.53241796875,9.587934494018555,-3.033743381500244,0.38414835929870605
1761131574110418000,3.54241796875,9.174291610717773,-3.007985830307007,0.28865957260131836
1761131574120418000,3.55241796875,8.580795288085938,-2.934814214706421,0.17493057250976562
1761131574130418000,3.56241796875,8.02308177947998,-2.9370663166046143,0.19965147972106934
1761131574140418000,3.57241796875,8.047738075256348,-2.9268949031829834,0.28649210929870605
1761131574150418000,3.58241796875,6.656638145446777,-2.9339897632598877,1.073590874671936
1761131574160418800,3.592418701171875,5.836077690124512,-2.931508779525757,1.7898154258728027
1761131574170418700,3.602418701171875,4.953083038330078,-2.825094223022461,2.6413722038269043
1761131574180418800,3.612418701171875,3.9730005264282227,-2.582688093185425,3.6454381942749023
1761131574190418700,3.622418701171875,3.265075206756592,-2.3785512447357178,4.4020209312438965
1761131574200418800,3.632418701171875,2.655179023742676,-2.230565071105957,5.0019402503967285
1761131574210418700,3.642418701171875,2.2237491607666016,-2.1741156578063965,5.393976211547852
1761131574220418800,3.652418701171875,2.050429344177246,-2.213137149810791,5.597304821014404
1761131574230419000,3.6624189453125,1.9717278480529785,-2.392364978790283,5.595905303955078
1761131574240418800,3.672418701171875,1.955756664276123,-2.7062220573425293,5.296652793884277
1761131574250419000,3.6824189453125,1.7811379432678223,-3.0172488689422607,4.950221538543701
1761131574260418000,3.69241796875,1.3889808654785156,-3.2160215377807617,4.550168514251709
1761131574270418000,3.70241796875,0.872340202331543,-3.286097526550293,4.105924129486084
1761131574280418000,3.71241796875,0.2351827621459961,-3.3484997749328613,3.7848525047302246
1761131574290418000,3.72241796875,-0.5190129280090332,-3.3747642040252686,3.586986780166626
1761131574300418000,3.73241796875,-1.1559181213378906,-3.3895184993743896,3.478848934173584
1761131574310418000,3.74241796875,-1.7002286911010742,-3.354616165161133,3.4262824058532715
1761131574320418000,3.75241796875,-2.0658302307128906,-3.240401268005371,3.523003101348877
1761131574330418000,3.76241796875,-2.2955212593078613,-3.0667450428009033,3.7686078548431396
1761131574340418000,3.77241796875,-2.6459383964538574,-3.165611982345581,3.9552805423736572
1761131574350418000,3.78241796875,-2.9889283180236816,-3.151470899581909,4.242916584014893
1761131574360418800,3.792418701171875,-3.2766289710998535,-2.974578857421875,4.319399356842041
1761131574370418700,3.802418701171875,-3.3606882095336914,-2.746053457260132,4.304017543792725
1761131574380418800,3.812418701171875,-3.319458484649658,-2.6088428497314453,4.378500938415527
1761131574390418700,3.822418701171875,-3.17673397064209,-2.5768134593963623,4.424134731292725
1761131574400418800,3.832418701171875,-2.9645392894744873,-2.5737268924713135,4.3924994468688965
1761131574410418700,3.842418701171875,-2.58482027053833,-2.6502034664154053,4.3587422370910645
1761131574420418800,3.852418701171875,-2.217957019805908,-2.6917788982391357,4.398894786834717
1761131574430418700,3.862418701171875,-1.612764835357666,-2.59387469291687,4.33047342300415
1761131574440418800,3.872418701171875,-0.741401195526123,-2.5865747928619385,4.111075401306152
1761131574450418700,3.882418701171875,0.23363351821899414,-2.6152613162994385,3.868525505065918
1761131574460417800,3.892417724609375,1.2134928703308105,-2.6422531604766846,3.669273853302002
1761131574470418000,3.90241796875,2.2567286491394043,-2.636045217514038,3.4609272480010986
1761131574480418000,3.91241796875,3.227573871612549,-2.540121555328369,3.2788033485412598
1761131574490418000,3.92241796875,4.080653190612793,-2.519550085067749,3.045628070831299
1761131574500418000,3.93241796875,4.746142387390137,-2.58708119392395,2.7676162719726562
1761131574510418000,3.94241796875,5.255733489990234,-2.602635622024536,2.4497711658477783
1761131574520417800,3.952417724609375,5.641674995422363,-2.4825193881988525,2.153831720352173
1761131574530418000,3.96241796875,5.7402496337890625,-2.382796049118042,2.0333948135375977
1761131574540417800,3.972417724609375,5.648534774780273,-2.305464744567871,2.153059482574463
1761131574550418000,3.98241796875,5.493314743041992,-2.2965216636657715,2.3143420219421387
1761131574560418800,3.992418701171875,5.410278797149658,-2.2993459701538086,2.3786003589630127
1761131574570418700,4.002418701171875,5.40505838394165,-2.3170783519744873,2.4055120944976807
1761131574580418800,4.012418701171875,5.261472702026367,-2.496873617172241,2.475679874420166
1761131574590418700,4.022418701171875,4.671350479125977,-2.679762840270996,2.512622356414795
1761131574600418800,4.032418701171875,3.4787158966064453,-2.6424660682678223,2.4445559978485107
1761131574610418700,4.042418701171875,1.9357619285583496,-2.3699095249176025,2.330665111541748
1761131574620418000,4.05241796875,0.5404973030090332,-1.8159213066101074,2.0894007682800293
1761131574630418000,4.06241796875,-0.3680744171142578,-1.1131629943847656,1.8439924716949463
1761131574640418000,4.07241796875,-0.5945115089416504,-0.42853784561157227,1.662959098815918
1761131574650418000,4.08241796875,-0.21356582641601562,-0.08516120910644531,1.593826174736023
1761131574660417300,4.092417236328125,-0.20238256454467773,-0.05950498580932617,1.6600803136825562
1761131574670417200,4.102417236328125,0.999666690826416,0.027275562286376953,1.4422533512115479
1761131574680417300,4.112417236328125,1.3844060897827148,0.13687801361083984,1.412088394165039
1761131574690417200,4.122417236328125,1.3470125198364258,0.2867851257324219,1.6801486015319824
1761131574700417300,4.132417236328125,1.5524415969848633,0.6382279396057129,1.8490837812423706
1761131574710417200,4.142417236328125,2.786184787750244,1.016343593597412,1.7722333669662476
1761131574720417300,4.152417236328125,4.762438774108887,1.106285572052002,1.559154987335205
1761131574730417200,4.162417236328125,6.9673895835876465,0.7330374717712402,1.4119880199432373
1761131574740417300,4.172417236328125,8.87828254699707,-0.00010204315185546875,1.485924243927002
1761131574750417200,4.182417236328125,10.097454071044922,-1.038097858428955,1.7262283563613892
1761131574760418000,4.19241796875,10.608475685119629,-1.782949447631836,2.114447832107544
1761131574770418200,4.202418212890625,10.673534393310547,-2.295523166656494,2.3030619621276855
1761131574780418000,4.21241796875,10.596717834472656,-2.536665916442871,2.3266024589538574
1761131574790418200,4.222418212890625,10.29553508758545,-2.58872652053833,2.2945213317871094
1761131574800418000,4.23241796875,9.692815780639648,-2.64331316947937,2.221531867980957
1761131574810418200,4.242418212890625,8.648134231567383,-2.678670644760132,2.149036407470703
1761131574820418000,4.25241796875,7.444361686706543,-2.8262457847595215,2.157777786254883
1761131574830418200,4.262418212890625,5.889388561248779,-3.2067296504974365,2.3712544441223145
1761131574840418000,4.27241796875,4.143383502960205,-3.5556535720825195,2.719761371612549
1761131574850418200,4.282418212890625,2.4112162590026855,-3.819814920425415,2.9998655319213867
1761131574860417300,4.292417236328125,0.8014330863952637,-3.907156229019165,3.2830095291137695
1761131574870417200,4.302417236328125,-0.6433277130126953,-3.8057737350463867,3.540097236633301
1761131574880417300,4.312417236328125,-1.7135400772094727,-3.9487547874450684,3.821577787399292
1761131574890417200,4.322417236328125,-2.4138174057006836,-3.999514102935791,4.120405673980713
1761131574900417300,4.332417236328125,-2.947638988494873,-4.053840637207031,4.365698337554932
1761131574910417200,4.342417236328125,-3.2048399448394775,-4.135212421417236,4.4932756423950195
1761131574920417800,4.352417724609375,-3.242371082305908,-4.230138301849365,4.515020370483398
1761131574930418000,4.36241796875,-3.1047849655151367,-4.412529945373535,4.480700492858887
1761131574940417800,4.372417724609375,-2.7536118030548096,-4.707886695861816,4.476068019866943
1761131574950418000,4.38241796875,-2.3835039138793945,-5.000524997711182,4.543273448944092
1761131574960418800,4.392418701171875,-2.0639002323150635,-5.225200176239014,4.492424964904785
1761131574970418700,4.402418701171875,-1.8549118041992188,-5.368007659912109,4.412697792053223
1761131574980418800,4.412418701171875,-1.6751580238342285,-5.463269233703613,4.27561616897583
1761131574990418700,4.422418701171875,-1.4045801162719727,-5.456827640533447,4.086373329162598
1761131575000418800,4.432418701171875,-1.3009533882141113,-5.477599620819092,3.830415725708008
1761131575010418700,4.442418701171875,-1.2757515907287598,-5.4564690589904785,3.4534285068511963
1761131575020418800,4.452418701171875,-1.216775894165039,-5.518673419952393,3.4266273975372314
1761131575030418700,4.462418701171875,-1.3117551803588867,-5.2314348220825195,2.833484649658203
1761131575040418800,4.472418701171875,-1.5069890022277832,-5.051499366760254,2.472364902496338
1761131575050418700,4.482418701171875,-1.7393083572387695,-4.817440986633301,2.151268482208252
1761131575060418000,4.49241796875,-1.7525043487548828,-4.646996974945068,2.076294422149658
1761131575070418000,4.50241796875,-1.7291717529296875,-4.673487663269043,2.059251308441162
1761131575080417800,4.512417724609375,-0.7285819053649902,-4.315927982330322,2.8332865238189697
1761131575090418000,4.52241796875,-0.7612991333007812,-4.307967185974121,2.8050644397735596
1761131575100417800,4.532417724609375,1.3396081924438477,-4.025874137878418,3.5783743858337402
1761131575110418000,4.54241796875,2.5932164192199707,-4.001888275146484,3.3706626892089844
1761131575120417800,4.552417724609375,3.8035759925842285,-4.138916492462158,2.9514319896698
1761131575130418000,4.56241796875,5.156564712524414,-4.379064559936523,2.4049134254455566
1761131575140417800,4.572417724609375,6.590125560760498,-4.662647247314453,1.862640142440796
1761131575150418000,4.58241796875,8.08319091796875,-4.8946733474731445,1.4331896305084229
1761131575160418800,4.592418701171875,9.568228721618652,-4.894104480743408,1.0150811672210693
1761131575170418700,4.602418701171875,10.464122772216797,-4.647563457489014,0.7905430793762207
1761131575180418800,4.612418701171875,10.970623016357422,-4.359990119934082,0.44831180572509766
1761131575190418700,4.622418701171875,11.086605072021484,-4.109640121459961,-0.06668853759765625
1761131575200418800,4.632418701171875,10.888376235961914,-3.9615583419799805,-0.5322651863098145
1761131575210418700,4.642418701171875,10.378620147705078,-3.868041753768921,-0.8037800788879395
1761131575220418800,4.652418701171875,10.378427505493164,-3.769848108291626,-0.6878519058227539
1761131575230419000,4.6624189453125,8.827394485473633,-3.41237735748291,-0.158203125
1761131575240418800,4.672418701171875,8.132430076599121,-2.976989269256592,0.7247233390808105
1761131575250419000,4.6824189453125,7.431103706359863,-2.5175843238830566,1.9307947158813477
1761131575260418000,4.69241796875,7.466506481170654,-2.5501112937927246,1.9410114288330078
1761131575270418000,4.70241796875,6.150294303894043,-1.6396989822387695,4.493610858917236
1761131575280418000,4.71241796875,5.573873996734619,-1.2629289627075195,5.753391742706299
1761131575290418000,4.72241796875,4.922479629516602,-1.1302123069763184,6.609710693359375
1761131575300418000,4.73241796875,4.336502552032471,-1.1565399169921875,6.987709045410156
1761131575310418000,4.74241796875,3.918271541595459,-1.2983250617980957,7.036055564880371
1761131575320418000,4.75241796875,3.590425491333008,-1.5467448234558105,6.866567611694336
1761131575330418000,4.76241796875,3.211186408996582,-1.9096026420593262,6.575448989868164
1761131575340418000,4.77241796875,2.6023826599121094,-2.1450679302215576,6.2662129402160645
1761131575350418000,4.78241796875,1.9334673881530762,-2.2636313438415527,5.997378349304199
1761131575360418800,4.792418701171875,1.1239080429077148,-2.2268097400665283,5.73451042175293
1761131575370418700,4.802418701171875,0.29376792907714844,-2.1697728633880615,5.4921088218688965
1761131575380418800,4.812418701171875,-0.5419292449951172,-2.1092946529388428,5.324504375457764
1761131575390418700,4.822418701171875,-1.3685102462768555,-2.0536253452301025,5.142956256866455
1761131575400418800,4.832418701171875,-1.9366183280944824,-1.9821958541870117,4.957982540130615
1761131575410418700,4.842418701171875,-2.204526901245117,-1.8594918251037598,4.891624927520752
1761131575420418800,4.852418701171875,-2.4215831756591797,-1.8300657272338867,4.710733890533447
1761131575430418700,4.862418701171875,-2.460996389389038,-1.800241470336914,4.643182754516602
1761131575440418800,4.872418701171875,-2.5341408252716064,-1.8612709045410156,4.628583908081055
1761131575450418700,4.882418701171875,-2.646078109741211,-1.8787775039672852,4.674566268920898
1761131575460418000,4.89241796875,-2.764669418334961,-1.781956672668457,4.621385097503662
1761131575470418000,4.90241796875,-2.795564651489258,-1.6593132019042969,4.47080659866333
1761131575480418000,4.91241796875,-2.578336000442505,-1.5390477180480957,4.235891819000244
1761131575490418000,4.92241796875,-2.1660261154174805,-1.5241479873657227,4.007498741149902
1761131575500418000,4.93241796875,-1.6213364601135254,-1.5417180061340332,3.776505947113037
1761131575510418000,4.94241796875,-0.9288969039916992,-1.5438518524169922,3.3975021839141846
1761131575520418000,4.95241796875,-0.2320389747619629,-1.5212135314941406,3.10791015625
1761131575530418000,4.96241796875,0.5504317283630371,-1.5421638488769531,2.8985538482666016
1761131575540417800,4.972417724609375,1.2125248908996582,-1.5920534133911133,2.81727933883667
1761131575550418000,4.98241796875,1.7646398544311523,-1.6182231903076172,2.688002347946167
1761131575560418800,4.992418701171875,2.2364039421081543,-1.5409984588623047,2.4891934394836426
1761131575570418700,5.002418701171875,2.7784533500671387,-1.4254779815673828,2.18536639213562
1761131575580418800,5.012418701171875,2.7163138389587402,-1.3956537246704102,2.128159761428833
1761131575590418700,5.022418701171875,3.273852825164795,-1.1161231994628906,1.615037441253662
1761131575600418800,5.032418701171875,3.518585205078125,-0.9446468353271484,1.328728437423706
1761131575610418700,5.042418701171875,3.8508620262145996,-0.7327146530151367,1.1400914192199707
1761131575620418800,5.052418701171875,4.39832067489624,-0.6374473571777344,1.014998435974121
1761131575630418700,5.062418701171875,5.078408718109131,-0.674522876739502,1.0452051162719727
1761131575640418800,5.072418701171875,5.824534893035889,-0.8662495613098145,1.1548233032226562
1761131575650418700,5.082418701171875,6.397818088531494,-1.1445441246032715,1.2541203498840332
1761131575660417800,5.092417724609375,6.663730621337891,-1.3811650276184082,1.2211732864379883
1761131575670418000,5.10241796875,6.4896674156188965,-1.5057692527770996,1.2075526714324951
1761131575680417800,5.112417724609375,5.574106216430664,-1.4636783599853516,1.1244308948516846
1761131575690418000,5.12241796875,4.3705291748046875,-1.1057024002075195,1.0597071647644043
1761131575700417800,5.132417724609375,3.3208889961242676,-0.6341753005981445,0.9794158935546875
1761131575710418000,5.14241796875,2.739919662475586,-0.33507823944091797,0.9184792041778564
1761131575720417800,5.152417724609375,2.5730013847351074,-0.20190668106079102,0.9057741165161133
1761131575730418000,5.16241796875,2.726803779602051,-0.2753744125366211,0.8159949779510498
1761131575740417800,5.172417724609375,3.001863479614258,-0.3293724060058594,0.6079301834106445
1761131575750418000,5.18241796875,3.1469192504882812,-0.3346705436706543,0.3521597385406494
1761131575760418800,5.192418701171875,3.0895490646362305,-0.3308992385864258,0.1929793357849121
1761131575770418700,5.202418701171875,3.1092395782470703,-0.2330174446105957,0.1446247100830078
1761131575780418800,5.212418701171875,3.3376855850219727,-0.007842540740966797,0.06216859817504883
1761131575790418700,5.222418701171875,4.051745414733887,0.2385697364807129,-0.14063358306884766
1761131575800418800,5.232418701171875,5.080226421356201,0.20212697982788086,-0.16189146041870117
1761131575810418700,5.242418701171875,6.332153797149658,-0.0924081802368164,0.17143917083740234
1761131575820418800,5.252418701171875,7.8153157234191895,-0.704066276550293,0.8732724189758301
1761131575830418700,5.262418701171875,8.985116958618164,-1.4638724327087402,1.6369004249572754
1761131575840418800,5.272418701171875,9.43775749206543,-2.291501760482788,2.2406845092773438
1761131575850418700,5.282418701171875,9.167924880981445,-2.9093542098999023,2.734712839126587
1761131575860418000,5.29241796875,8.23052978515625,-3.3076212406158447,3.191129684448242
1761131575870418000,5.30241796875,7.069973945617676,-3.479318618774414,3.4998977184295654
1761131575880418000,5.31241796875,5.971562385559082,-3.5858097076416016,3.542433023452759
1761131575890418000,5.32241796875,5.2176923751831055,-3.552156448364258,3.269529104232788
1761131575900418000,5.33241796875,4.574502468109131,-3.711299419403076,3.0326337814331055
1761131575910418000,5.34241796875,3.717496395111084,-4.103238582611084,2.9878668785095215
1761131575920418000,5.35241796875,2.8026061058044434,-4.549160957336426,3.229037284851074
1761131575930418000,5.36241796875,1.7625722885131836,-4.887738227844238,3.603689670562744
1761131575940418000,5.37241796875,0.6248641014099121,-5.131832122802734,4.030401229858398
1761131575950418000,5.38241796875,-0.4964132308959961,-5.235872268676758,4.342438697814941
1761131575960418800,5.392418701171875,-1.5266108512878418,-5.226921081542969,4.463917255401611
1761131575970418700,5.402418701171875,-2.544496536254883,-5.122490882873535,4.489847183227539
1761131575980418800,5.412418701171875,-2.3950648307800293,-5.28843879699707,4.463907718658447
1761131575990419000,5.4224189453125,-3.2462551593780518,-5.005592346191406,4.312455654144287
1761131576000418800,5.432418701171875,-3.335829257965088,-4.981236934661865,4.199950218200684
1761131576010419000,5.4424189453125,-3.4250805377960205,-4.896357536315918,4.0215983390808105
1761131576020418800,5.452418701171875,-3.4822607040405273,-4.765603542327881,3.798513650894165
1761131576030419000,5.4624189453125,-3.5914103984832764,-4.550327301025391,3.6662368774414062
1761131576040418800,5.472418701171875,-3.665886163711548,-4.376128673553467,3.692272186279297
1761131576050419000,5.4824189453125,-3.75681209564209,-4.1558837890625,3.7900681495666504
1761131576060418000,5.49241796875,-3.663975715637207,-3.784956455230713,3.8155670166015625
1761131576070418000,5.50241796875,-3.3200271129608154,-3.3874125480651855,3.6886420249938965
1761131576080418000,5.51241796875,-2.848238229751587,-3.0799436569213867,3.488140106201172
1761131576090418000,5.52241796875,-2.103579521179199,-2.934847831726074,3.2522222995758057
1761131576100418000,5.53241796875,-1.3252167701721191,-2.972104072570801,3.0598440170288086
1761131576110418000,5.54241796875,-0.6256141662597656,-3.03812837600708,2.7969014644622803
1761131576120418000,5.55241796875,0.018942832946777344,-3.0520358085632324,2.5177228450775146
1761131576130418000,5.56241796875,0.539118766784668,-3.037557601928711,2.290173053741455
1761131576140418000,5.57241796875,0.9277005195617676,-3.1447343826293945,2.2122950553894043
1761131576150418000,5.58241796875,1.3481836318969727,-3.2833356857299805,2.134882688522339
1761131576160418800,5.592418701171875,1.5410242080688477,-3.4624991416931152,2.051762819290161
1761131576170418700,5.602418701171875,1.6725945472717285,-3.463533401489258,1.8924287557601929
1761131576180418800,5.612418701171875,1.9020729064941406,-3.3679747581481934,1.7545697689056396
1761131576190418700,5.622418701171875,2.559612274169922,-3.2410178184509277,1.6477172374725342
1761131576200418800,5.632418701171875,3.92608642578125,-3.1910276412963867,1.5654683113098145
1761131576210418700,5.642418701171875,5.475713729858398,-3.375875473022461,1.6588640213012695
1761131576220418800,5.652418701171875,7.107892036437988,-3.7282116413116455,1.8693430423736572
1761131576230419000,5.6624189453125,8.240300178527832,-4.122435569763184,2.086435079574585
1761131576240419000,5.672419189453125,8.768531799316406,-4.379724502563477,2.11006760597229
1761131576250419000,5.6824189453125,8.779726028442383,-4.532955169677734,2.0911219120025635
1761131576260418000,5.69241796875,8.296636581420898,-4.5410003662109375,2.2236530780792236
1761131576270418200,5.702418212890625,7.462226390838623,-4.4210710525512695,2.481630325317383
1761131576280417300,5.712417236328125,6.816891193389893,-4.210631847381592,2.72396183013916
1761131576290417200,5.722417236328125,6.777000904083252,-4.16317081451416,2.7457046508789062
1761131576300417300,5.732417236328125,6.625720977783203,-3.595149517059326,2.983977794647217
1761131576310417200,5.742417236328125,6.601777076721191,-3.6294474601745605,3.2021875381469727
1761131576320417000,5.7524169921875,6.325240135192871,-3.9199745655059814,3.6103334426879883
1761131576330417200,5.762417236328125,5.684065341949463,-4.13612699508667,4.090433120727539
1761131576340417000,5.7724169921875,4.719150543212891,-4.126636981964111,4.565418243408203
1761131576350417200,5.782417236328125,3.6397900581359863,-3.914719820022583,4.939596176147461
1761131576360418000,5.79241796875,2.662785053253174,-3.551792860031128,5.188360214233398
1761131576370418000,5.80241796875,1.9106740951538086,-3.1405282020568848,5.264389991760254
1761131576380418000,5.81241796875,1.367218017578125,-2.904658317565918,5.353779315948486
1761131576390418000,5.82241796875,1.0675015449523926,-2.9723408222198486,5.339178562164307
1761131576400418000,5.83241796875,0.8291611671447754,-3.1343705654144287,5.193314552307129
1761131576410418000,5.84241796875,0.5912461280822754,-3.3108630180358887,4.973787784576416
1761131576420418000,5.85241796875,0.24882745742797852,-3.4168665409088135,4.643675804138184
1761131576430418000,5.86241796875,-0.17253828048706055,-3.4552924633026123,4.270642280578613
1761131576440418000,5.87241796875,-0.7615947723388672,-3.494563341140747,3.8837194442749023
1761131576450418000,5.88241796875,-1.285287857055664,-3.4292867183685303,3.569645881652832
1761131576460417000,5.8924169921875,-1.8032231330871582,-3.3008317947387695,3.3032305240631104
1761131576470417200,5.902417236328125,-2.290372848510742,-3.176915168762207,3.0841057300567627
1761131576480417300,5.912417236328125,-2.7266178131103516,-3.0184166431427,2.858564853668213
1761131576490417200,5.922417236328125,-3.3081891536712646,-2.75535249710083,2.960289239883423
1761131576500417300,5.932417236328125,-3.3098013401031494,-2.5806198120117188,2.399336099624634
1761131576510417200,5.942417236328125,-3.2124807834625244,-2.3131141662597656,2.25565767288208
1761131576520417000,5.9524169921875,-3.178492784500122,-1.934309959411621,2.4851417541503906
1761131576530417000,5.9624169921875,-3.0139946937561035,-1.5328783988952637,2.5387377738952637
1761131576540417000,5.9724169921875,-2.647480010986328,-1.3481559753417969,2.5233495235443115
1761131576550417000,5.9824169921875,-2.2306041717529297,-1.2646918296813965,2.6674771308898926
1761131576560417800,5.992417724609375,-1.8418917655944824,-1.306938648223877,2.7277464866638184
1761131576570418000,6.00241796875,-1.252027988433838,-1.307386875152588,2.770681381225586
1761131576580418800,6.012418701171875,-0.49827146530151367,-1.1961698532104492,2.8395638465881348
1761131576590418700,6.022418701171875,0.49877071380615234,-1.0735511779785156,2.861067056655884
1761131576600418800,6.032418701171875,1.7180585861206055,-0.9923849105834961,2.9234414100646973
1761131576610418700,6.042418701171875,3.180880069732666,-1.0406279563903809,3.034273624420166
1761131576620418800,6.052418701171875,3.112485408782959,-0.9796333312988281,2.9769015312194824
1761131576630419000,6.0624189453125,4.296998023986816,-1.0169391632080078,2.967802047729492
1761131576640418800,6.072418701171875,6.32838249206543,-1.134504795074463,2.8297672271728516
1761131576650419000,6.0824189453125,6.688608169555664,-1.2493271827697754,2.7638602256774902
1761131576660418300,6.092418212890625,6.492264270782471,-1.3906946182250977,2.635542154312134
1761131576670418200,6.102418212890625,5.851923942565918,-1.3631525039672852,2.428189754486084
1761131576680418000,6.11241796875,5.193302154541016,-1.106001853942871,2.1829934120178223
1761131576690418200,6.122418212890625,4.692248344421387,-0.7743659019470215,2.070699453353882
1761131576700418000,6.13241796875,4.437490940093994,-0.598656177520752,2.1666622161865234
1761131576710418200,6.142418212890625,4.448935031890869,-0.6241054534912109,2.55517578125
1761131576720418000,6.15241796875,4.753323554992676,-0.7802572250366211,3.0367727279663086
1761131576730418200,6.162418212890625,5.2174248695373535,-0.9959149360656738,3.4367051124572754
1761131576740418300,6.172418212890625,5.436376571655273,-1.2767324447631836,3.626434803009033
1761131576750418200,6.182418212890625,5.212044715881348,-1.5909314155578613,3.6237893104553223
1761131576760419000,6.192419189453125,4.59591817855835,-1.714369773864746,3.503995895385742
1761131576770419000,6.2024189453125,4.622580051422119,-1.7466130256652832,3.4991226196289062
1761131576780419000,6.212419189453125,3.334549903869629,-1.3670496940612793,3.1175949573516846
1761131576790419000,6.2224189453125,3.3526525497436523,-1.2447590827941895,2.9588406085968018
1761131576800419000,6.232419189453125,3.745004653930664,-1.429417610168457,2.86423397064209
1761131576810419000,6.2424189453125,4.263062000274658,-1.8077030181884766,2.7509851455688477
1761131576820419000,6.252419189453125,4.496805667877197,-2.2147536277770996,2.5783493518829346
1761131576830419000,6.2624189453125,4.366672515869141,-2.44610595703125,2.2548675537109375
1761131576840419000,6.272419189453125,3.8226699829101562,-2.5411148071289062,1.7964088916778564
1761131576850419000,6.2824189453125,3.2270402908325195,-2.4486865997314453,1.493957757949829
1761131576860418300,6.292418212890625,3.278799057006836,-2.502685546875,1.5013587474822998
1761131576870418200,6.302418212890625,2.314394474029541,-2.0690789222717285,1.6314140558242798
1761131576880418300,6.312418212890625,2.40036678314209,-1.798682689666748,1.8297452926635742
1761131576890418200,6.322418212890625,2.8737688064575195,-1.6001200675964355,2.1230738162994385
1761131576900418300,6.332418212890625,3.771355152130127,-1.7410311698913574,2.6366963386535645
1761131576910418200,6.342418212890625,4.933018207550049,-2.186018943786621,3.2519168853759766
1761131576920418000,6.35241796875,6.207758903503418,-2.8176584243774414,3.9328808784484863
1761131576930418200,6.362418212890625,7.117755889892578,-3.5198562145233154,4.450613975524902
1761131576940418000,6.37241796875,7.273563385009766,-4.17816686630249,4.668759346008301
1761131576950418200,6.382418212890625,6.8404436111450195,-4.72365140914917,4.525786876678467
1761131576960418800,6.392418701171875,5.944321632385254,-4.986983299255371,3.9970173835754395
1761131576970418700,6.402418701171875,4.928948879241943,-5.058020114898682,3.3516287803649902
1761131576980418600,6.41241845703125,3.8128929138183594,-5.113518238067627,2.8111562728881836
1761131576990418400,6.42241845703125,2.628063201904297,-5.22421932220459,2.5159077644348145
1761131577000418600,6.43241845703125,1.4884309768676758,-5.28929328918457,2.336186408996582
1761131577010418400,6.44241845703125,0.41698503494262695,-5.337040424346924,2.207487106323242
1761131577020418600,6.45241845703125,-0.6796526908874512,-5.403972625732422,2.1129446029663086
1761131577030418400,6.46241845703125,-1.4957165718078613,-5.4298505783081055,2.1577847003936768
1761131577040418600,6.47241845703125,-2.1982593536376953,-5.456252574920654,2.295755624771118
1761131577050418400,6.48241845703125,-2.872781276702881,-5.497541427612305,2.4522438049316406
1761131577060417800,6.492417724609375,-3.4825003147125244,-5.4994001388549805,2.558476686477661
1761131577070417700,6.502417724609375,-4.0753068923950195,-5.393851280212402,2.620284080505371
1761131577080417500,6.51241748046875,-4.2984442710876465,-5.276264190673828,2.554224967956543
1761131577090417700,6.522417724609375,-4.594338417053223,-5.508646488189697,2.4336557388305664
1761131577100417500,6.53241748046875,-4.71702766418457,-5.528205871582031,2.460561990737915
1761131577110417700,6.542417724609375,-4.766684055328369,-5.525435924530029,2.493607997894287
1761131577120417500,6.55241748046875,-4.748459815979004,-5.565404415130615,2.538395404815674
1761131577130417700,6.562417724609375,-4.679370880126953,-5.624014854431152,2.6722428798675537
1761131577140417500,6.57241748046875,-4.479238510131836,-5.529223442077637,2.5792465209960938
1761131577150417700,6.582417724609375,-4.013675689697266,-5.349615097045898,2.2970669269561768
1761131577160418600,6.59241845703125,-3.309644937515259,-5.167780876159668,1.9714829921722412
1761131577170418400,6.60241845703125,-2.3803646564483643,-5.0989227294921875,1.7999380826950073
1761131577180418600,6.61241845703125,-1.4730257987976074,-5.0714569091796875,1.6779847145080566
1761131577190418400,6.62241845703125,-0.5370244979858398,-4.961844444274902,1.4385675191879272
1761131577200418600,6.63241845703125,0.2857484817504883,-4.794700622558594,1.1993448734283447
1761131577210418400,6.64241845703125,0.9028615951538086,-4.641645431518555,1.1629996299743652
1761131577220418600,6.65241845703125,1.3389949798583984,-4.446263313293457,1.3181309700012207
1761131577230418400,6.66241845703125,1.6667652130126953,-4.257998943328857,1.6738712787628174
1761131577240418600,6.67241845703125,2.0885095596313477,-4.06911563873291,2.072761058807373
1761131577250418400,6.68241845703125,3.1311087608337402,-3.788022756576538,2.301654815673828
1761131577260417800,6.692417724609375,3.0031542778015137,-3.6740176677703857,2.25692081451416
1761131577270417700,6.702417724609375,6.639308929443359,-3.66902232170105,2.5159435272216797
1761131577280418000,6.71241796875,8.608741760253906,-4.136433124542236,2.722338914871216
1761131577290418000,6.72241796875,9.968451499938965,-4.711172103881836,2.832937240600586
1761131577300418000,6.73241796875,10.539538383483887,-5.108559608459473,2.8991892337799072
1761131577310418000,6.74241796875,10.339457511901855,-4.993941783905029,2.852962017059326
1761131577320417800,6.752417724609375,9.463134765625,-4.4455246925354,2.646810531616211
1761131577330418000,6.76241796875,8.430475234985352,-3.55594801902771,2.339171886444092
1761131577340417800,6.772417724609375,7.5788655281066895,-2.861258029937744,2.0550124645233154
1761131577350418000,6.78241796875,7.0288567543029785,-2.5101397037506104,1.935939073562622
1761131577360418800,6.792418701171875,6.976032733917236,-2.4505720138549805,1.8145875930786133
1761131577370418700,6.802418701171875,7.344028472900391,-2.640742063522339,1.5313804149627686
1761131577380418800,6.812418701171875,7.704376220703125,-3.008336305618286,1.213200330734253
1761131577390418700,6.822418701171875,7.811729431152344,-3.4221699237823486,0.9101178646087646
1761131577400418800,6.832418701171875,7.635866165161133,-3.644925117492676,0.6736106872558594
1761131577410418700,6.842418701171875,7.261224746704102,-3.6562745571136475,0.7175432443618774
1761131577420417800,6.852417724609375,7.255701065063477,-3.5730020999908447,0.8677335977554321
1761131577430418000,6.86241796875,6.735962867736816,-3.4125986099243164,1.148439645767212
1761131577440417800,6.872417724609375,5.220854759216309,-2.992530584335327,2.338886260986328
1761131577450418000,6.88241796875,4.492560386657715,-2.795710563659668,3.0819003582000732
1761131577460417000,6.8924169921875,3.764423370361328,-2.719426155090332,3.7199225425720215
1761131577470417200,6.902417236328125,3.048129081726074,-2.6723694801330566,4.255037784576416
1761131577480417000,6.9124169921875,2.189570426940918,-2.650155782699585,4.679561614990234
1761131577490417200,6.922417236328125,1.3295650482177734,-2.5987017154693604,4.907623291015625
1761131577500417000,6.9324169921875,0.4151449203491211,-2.582815408706665,4.910199165344238
1761131577510417200,6.942417236328125,-0.4688229560852051,-2.537623405456543,4.7567925453186035
1761131577520417000,6.9524169921875,-1.2860016822814941,-2.4488461017608643,4.550617218017578
1761131577530417000,6.9624169921875,-1.9590625762939453,-2.4215505123138428,4.423219203948975
1761131577540417000,6.9724169921875,-2.569373607635498,-2.3922507762908936,4.351197242736816
1761131577550417000,6.9824169921875,-2.9638733863830566,-2.3942906856536865,4.366181373596191
1761131577560417800,6.992417724609375,-3.250894546508789,-2.340580463409424,4.374926567077637
1761131577570418000,7.00241796875,-3.4718174934387207,-2.293288230895996,4.291250705718994
1761131577580417800,7.012417724609375,-3.5969643592834473,-2.21425461769104,4.204796314239502
1761131577590418000,7.02241796875,-3.5962319374084473,-2.075141191482544,4.045642375946045
1761131577600417800,7.032417724609375,-3.559436798095703,-2.1110241413116455,4.073803424835205
1761131577610418000,7.04241796875,-3.5685224533081055,-2.028252601623535,3.8848206996917725
1761131577620417800,7.052417724609375,-3.581843376159668,-2.0076732635498047,3.8429906368255615
1761131577630418000,7.06241796875,-3.529621124267578,-1.9174573421478271,3.8179147243499756
1761131577640417800,7.072417724609375,-3.532987594604492,-1.8535559177398682,3.7981929779052734
1761131577650418000,7.08241796875,-3.547163963317871,-1.8091261386871338,3.8576807975769043
1761131577660417000,7.0924169921875,-3.387545585632324,-1.6244683265686035,3.796567916870117
1761131577670417200,7.102417236328125,-2.928255558013916,-1.3330512046813965,3.5786399841308594
1761131577680417000,7.1124169921875,-2.3011598587036133,-1.2118334770202637,3.4397385120391846
1761131577690417000,7.1224169921875,-1.53532075881958,-1.2755961418151855,3.490567445755005
1761131577700417000,7.1324169921875,-0.6759881973266602,-1.4330682754516602,3.6376025676727295
1761131577710417000,7.1424169921875,0.5914878845214844,-1.5123920440673828,3.965287685394287
1761131577720417800,7.152417724609375,1.9911837577819824,-1.411618709564209,4.162565231323242
1761131577730418000,7.16241796875,3.4189505577087402,-1.3636407852172852,4.144194602966309
1761131577740417800,7.172417724609375,4.658074378967285,-1.5258519649505615,3.9176769256591797
1761131577750418000,7.18241796875,5.619682312011719,-1.8714799880981445,3.5109028816223145
1761131577760418800,7.192418701171875,6.183019161224365,-2.1211657524108887,2.8916473388671875
1761131577770418700,7.202418701171875,6.235525131225586,-2.3657424449920654,2.2187652587890625
1761131577780418800,7.212418701171875,5.907744884490967,-2.3635990619659424,1.8420394659042358
1761131577790418700,7.222418701171875,5.3442230224609375,-2.1176953315734863,1.707040786743164
1761131577800418800,7.232418701171875,4.737222671508789,-1.7390291690826416,1.8748377561569214
1761131577810418700,7.242418701171875,4.25140905380249,-1.3524868488311768,2.1758766174316406
1761131577820418800,7.252418701171875,4.287201404571533,-1.3803026676177979,2.220635414123535
1761131577830418700,7.262418701171875,3.7874908447265625,-1.1414680480957031,2.980721950531006
1761131577840418800,7.272418701171875,3.878835678100586,-1.3549001216888428,3.3797056674957275
1761131577850418700,7.282418701171875,3.8862953186035156,-1.6378536224365234,3.5391674041748047
1761131577860417800,7.292417724609375,3.6373047828674316,-1.7971606254577637,3.4716238975524902
1761131577870418000,7.30241796875,3.156954765319824,-1.7945680618286133,3.2450361251831055
1761131577880417800,7.312417724609375,2.5605320930480957,-1.5975010395050049,3.142207145690918
1761131577890418000,7.32241796875,2.1568284034729004,-1.3949851989746094,3.058199405670166
1761131577900417800,7.332417724609375,1.9800167083740234,-1.235633373260498,3.0399527549743652
1761131577910418000,7.34241796875,2.1603565216064453,-1.201395034790039,2.9514009952545166
1761131577920417800,7.352417724609375,2.6980156898498535,-1.3283424377441406,2.8318381309509277
1761131577930418000,7.36241796875,3.415862560272217,-1.5629918575286865,2.647763252258301
1761131577940417800,7.372417724609375,3.969860076904297,-1.9877490997314453,2.368288278579712
1761131577950418000,7.38241796875,4.048699378967285,-2.271317958831787,2.177351951599121
1761131577960418800,7.392418701171875,3.8186826705932617,-2.342045307159424,1.9528974294662476
1761131577970418700,7.402418701171875,3.3529767990112305,-2.308420181274414,1.8108491897583008
1761131577980418800,7.412418701171875,2.837517261505127,-2.1620705127716064,1.794763445854187
1761131577990419000,7.4224189453125,2.861976146697998,-2.210399866104126,1.7709561586380005
1761131578000418800,7.432418701171875,2.6219911575317383,-1.9205067157745361,2.0603952407836914
1761131578010419000,7.4424189453125,3.5086827278137207,-1.5432171821594238,3.5010063648223877
1761131578020419000,7.452419189453125,4.4804863929748535,-1.8312485218048096,4.418877124786377
1761131578030419000,7.4624189453125,5.634550094604492,-2.3557517528533936,5.473679542541504
1761131578040418800,7.472418701171875,6.503074645996094,-2.981539249420166,6.323478698730469
1761131578050419000,7.4824189453125,6.658949375152588,-3.536226272583008,6.67085075378418
1761131578060418000,7.49241796875,5.8364105224609375,-3.9227242469787598,6.600172996520996
1761131578070418200,7.502418212890625,4.515842914581299,-3.9195923805236816,5.839244365692139
1761131578080418000,7.51241796875,3.0845274925231934,-3.8057870864868164,4.679966449737549
1761131578090418000,7.52241796875,1.8677477836608887,-3.779031276702881,3.599667549133301
1761131578100418000,7.53241796875,1.0211868286132812,-3.687138557434082,2.7960896492004395
1761131578110418000,7.54241796875,0.6591644287109375,-3.549548625946045,2.1082992553710938
1761131578120418000,7.55241796875,0.4700498580932617,-3.617487907409668,1.5540646314620972
1761131578130418000,7.56241796875,0.13437938690185547,-3.8604652881622314,1.4714099168777466
1761131578140418000,7.57241796875,-0.3425259590148926,-4.158802032470703,1.6436481475830078
1761131578150418000,7.58241796875,-1.0524225234985352,-4.429492950439453,1.9505146741867065
1761131578160418800,7.592418701171875,-1.718888282775879,-4.676419734954834,2.408033847808838
1761131578170419000,7.6024189453125,-2.5470786094665527,-4.649841785430908,2.5588366985321045
1761131578180418800,7.612418701171875,-3.342522621154785,-4.569782733917236,2.766000270843506
1761131578190419000,7.6224189453125,-4.057625770568848,-4.406715393066406,2.954310894012451
1761131578200418800,7.632418701171875,-4.580440521240234,-4.268693923950195,3.007967472076416
1761131578210419000,7.6424189453125,-5.00925350189209,-4.208716869354248,3.113212823867798
1761131578220418800,7.652418701171875,-4.974794387817383,-4.32421875,2.966362953186035
1761131578230419000,7.6624189453125,-5.295498371124268,-4.0735297203063965,3.1722660064697266
1761131578240418800,7.672418701171875,-5.120091438293457,-4.051562309265137,3.0508737564086914
1761131578250419000,7.6824189453125,-4.6697492599487305,-4.083864688873291,2.952298879623413
1761131578260418000,7.69241796875,-3.995962142944336,-4.159717559814453,3.0850412845611572
1761131578270418000,7.70241796875,-3.2832794189453125,-4.301168441772461,3.359255790710449
1761131578280417800,7.712417724609375,-3.30767822265625,-4.305094242095947,3.257324695587158
1761131578290418000,7.72241796875,-2.0484976768493652,-4.152095317840576,3.6339564323425293
1761131578300417800,7.732417724609375,-1.6127891540527344,-3.8022525310516357,3.3142952919006348
1761131578310418000,7.74241796875,-1.4973278045654297,-3.4317357540130615,2.8945467472076416
1761131578320417800,7.752417724609375,-1.197521686553955,-3.153140068054199,2.3871898651123047
1761131578330418000,7.76241796875,-0.9212136268615723,-3.089146614074707,2.087013006210327
1761131578340417800,7.772417724609375,-0.721682071685791,-3.243415594100952,2.122614860534668
1761131578350418000,7.78241796875,-0.37827110290527344,-3.5041751861572266,2.4578051567077637
1761131578360418600,7.79241845703125,0.4518880844116211,-3.5635998249053955,2.710075855255127
1761131578370418700,7.802418701171875,1.7493376731872559,-3.485053300857544,2.8615376949310303
1761131578380418800,7.812418701171875,3.5358448028564453,-3.4821910858154297,2.936870574951172
1761131578390418700,7.822418701171875,5.639372825622559,-3.6386756896972656,2.8904032707214355
1761131578400418600,7.83241845703125,7.704026222229004,-3.8532874584198,2.7130684852600098
1761131578410418700,7.842418701171875,9.576791763305664,-3.9608874320983887,2.2502474784851074
1761131578420417800,7.852417724609375,10.466873168945312,-3.860456705093384,1.7782825231552124
1761131578430418000,7.86241796875,10.600005149841309,-3.601059675216675,1.295111894607544
1761131578440417800,7.872417724609375,10.107504844665527,-3.202263355255127,0.9152805805206299
1761131578450418000,7.88241796875,9.252744674682617,-2.743659496307373,0.6290197372436523
1761131578460417000,7.8924169921875,8.465871810913086,-2.298556327819824,0.5230367183685303
1761131578470417000,7.9024169921875,8.445215225219727,-2.177480936050415,0.6412253379821777
1761131578480417000,7.9124169921875,7.430350303649902,-1.881274938583374,0.48423290252685547
1761131578490417000,7.9224169921875,7.2260284423828125,-1.8500767946243286,0.4444761276245117
1761131578500417000,7.9324169921875,6.942729949951172,-1.912813663482666,0.5280086994171143
1761131578510417000,7.9424169921875,6.39472770690918,-1.9989279508590698,0.9216068983078003
1761131578520417000,7.9524169921875,5.521678924560547,-2.0034637451171875,1.648677110671997
1761131578530417000,7.9624169921875,4.6579179763793945,-1.9138987064361572,2.4640374183654785
1761131578540417000,7.9724169921875,3.7999658584594727,-1.7650306224822998,3.3382792472839355
1761131578550417000,7.9824169921875,3.0208654403686523,-1.6168017387390137,4.234798431396484
1761131578560417800,7.992417724609375,3.064681053161621,-1.7240352630615234,4.229828357696533
1761131578570418000,8.00241796875,1.896535873413086,-1.3957421779632568,6.031772136688232
1761131578580417800,8.012417724609374,1.4043750762939453,-1.4474952220916748,6.778695106506348
1761131578590418000,8.02241796875,1.0357379913330078,-1.5081734657287598,7.154775619506836
1761131578600417800,8.032417724609376,0.6881742477416992,-1.5470921993255615,7.194957733154297
1761131578610418000,8.04241796875,0.5179634094238281,-1.5450608730316162,6.884851455688477
1761131578620417800,8.052417724609375,0.4118385314941406,-1.6330010890960693,6.3376359939575195
1761131578630418000,8.06241796875,0.18549346923828125,-1.8215980529785156,5.810312271118164
1761131578640417800,8.072417724609375,-0.256317138671875,-1.9940447807312012,5.262778282165527
1761131578650418000,8.08241796875,-0.6893148422241211,-2.0750322341918945,4.827154159545898
1761131578660417000,8.0924169921875,-1.2389883995056152,-2.1559689044952393,4.552752494812012
1761131578670417000,8.1024169921875,-1.848855972290039,-2.188730239868164,4.262842178344727
1761131578680417000,8.1124169921875,-2.3769326210021973,-2.125781536102295,4.025642395019531
1761131578690417000,8.1224169921875,-2.799945831298828,-2.079627275466919,3.8739840984344482
1761131578700417000,8.1324169921875,-3.2294440269470215,-2.061025857925415,3.7786569595336914
1761131578710417000,8.1424169921875,-3.4779367446899414,-2.012751579284668,3.76884388923645
1761131578720417800,8.152417724609375,-3.7079219818115234,-2.0761823654174805,3.8010478019714355
1761131578730418000,8.16241796875,-3.8615002632141113,-2.0639376640319824,3.858992576599121
1761131578740417800,8.172417724609375,-3.939807415008545,-2.0383081436157227,3.8460724353790283
1761131578750418000,8.18241796875,-3.824275016784668,-2.0298993587493896,3.7767162322998047
1761131578760418800,8.192418701171874,-3.5614805221557617,-1.992722749710083,3.71580171585083
1761131578770418700,8.202418701171876,-3.0801548957824707,-1.9224002361297607,3.577209949493408
1761131578780418800,8.212418701171876,-2.424318790435791,-1.9472239017486572,3.3683245182037354
1761131578790418700,8.222418701171875,-1.7388839721679688,-2.0737760066986084,3.190626382827759
1761131578800418800,8.232418701171875,-1.033416748046875,-2.2452774047851562,2.988715887069702
1761131578810418700,8.242418701171875,-0.01875925064086914,-2.420058488845825,2.7553625106811523
1761131578820418600,8.25241845703125,0.9505038261413574,-2.58638072013855,2.599106788635254
1761131578830418700,8.262418701171875,1.8456106185913086,-2.626613140106201,2.3983678817749023
1761131578840418600,8.27241845703125,2.528125762939453,-2.5946569442749023,2.1906726360321045
1761131578850418700,8.282418701171874,2.9294371604919434,-2.4707224369049072,1.8416986465454102
1761131578860417800,8.292417724609376,3.1139402389526367,-2.3125159740448,1.514098882675171
1761131578870418000,8.30241796875,3.015176296234131,-2.137263298034668,1.2456234693527222
1761131578880417800,8.312417724609375,2.79769229888916,-2.0507659912109375,1.1841777563095093
1761131578890418000,8.32241796875,2.8091249465942383,-2.0691232681274414,1.183296799659729
1761131578900417800,8.332417724609375,2.4837722778320312,-1.8629934787750244,1.5810925960540771
1761131578910418000,8.34241796875,2.5059452056884766,-1.7754793167114258,2.024606943130493
1761131578920417800,8.352417724609374,2.6433815956115723,-1.7089266777038574,2.4354677200317383
1761131578930418000,8.36241796875,3.0309677124023438,-1.6326689720153809,2.826227903366089
1761131578940417800,8.372417724609376,3.5160017013549805,-1.6471328735351562,3.0923986434936523
1761131578950418000,8.38241796875,3.9630632400512695,-1.7652931213378906,3.1386446952819824
1761131578960418800,8.392418701171875,4.168387413024902,-1.9898264408111572,3.0782766342163086
1761131578970418700,8.402418701171875,3.9412121772766113,-2.1864280700683594,2.8590526580810547
1761131578980418800,8.412418701171875,3.224616050720215,-2.040013551712036,2.4231369495391846
1761131578990418700,8.422418701171875,2.425436019897461,-1.6191742420196533,1.9173693656921387
1761131579000418800,8.432418701171875,1.9526653289794922,-1.2551040649414062,1.6385655403137207
1761131579010418700,8.442418701171874,1.982243537902832,-1.2780933380126953,1.6757757663726807
1761131579020418800,8.452418701171876,1.7039995193481445,-1.1717381477355957,1.9135299921035767
1761131579030418700,8.462418701171876,1.9713993072509766,-1.1790823936462402,2.020749092102051
1761131579040418800,8.472418701171875,2.6399502754211426,-1.1948661804199219,2.0212457180023193
1761131579050418700,8.482418701171875,3.223623752593994,-1.3711767196655273,2.0780956745147705
1761131579060417800,8.492417724609375,3.586885452270508,-1.5144126415252686,2.0517852306365967
1761131579070418000,8.50241796875,3.582106113433838,-1.5257799625396729,2.0185747146606445
1761131579080417800,8.512417724609374,3.4865922927856445,-1.4296107292175293,1.7404993772506714
1761131579090418000,8.52241796875,3.2649145126342773,-1.1415114402770996,1.5597984790802002
1761131579100417800,8.532417724609376,3.264944076538086,-0.8446102142333984,1.538508415222168
1761131579110418000,8.54241796875,3.724970817565918,-0.670708179473877,1.58054518699646
1761131579120417800,8.552417724609375,4.705199241638184,-0.7451090812683105,1.6993898153305054
1761131579130418000,8.56241796875,6.012880325317383,-0.9491386413574219,2.1609115600585938
1761131579140417800,8.572417724609375,7.783026695251465,-1.3914575576782227,2.736544132232666
1761131579150418000,8.58241796875,9.56852912902832,-2.198608160018921,3.3827412128448486
1761131579160418800,8.592418701171875,10.690301895141602,-3.1623189449310303,4.001153945922852
1761131579170418700,8.602418701171874,10.806254386901855,-3.794966220855713,4.141003131866455
1761131579180418800,8.612418701171874,10.198854446411133,-4.157216548919678,3.967571496963501
1761131579190418700,8.622418701171876,9.121326446533203,-4.301443099975586,3.546049118041992
1761131579200418800,8.632418701171876,7.722173690795898,-4.327781677246094,2.989145517349243
1761131579210418700,8.642418701171875,6.091705799102783,-4.4201250076293945,2.654167890548706
1761131579220418800,8.652418701171875,4.110808849334717,-4.658051490783691,2.6891517639160156
1761131579230418700,8.662418701171875,2.5250415802001953,-4.891737461090088,2.8208396434783936
1761131579240418800,8.672418701171875,1.0429673194885254,-5.0941901206970215,3.027454137802124
1761131579250418700,8.682418701171875,-0.24660491943359375,-5.261380672454834,3.2706260681152344
1761131579260417800,8.692417724609374,-1.2881669998168945,-5.3559136390686035,3.4905807971954346
1761131579270418000,8.70241796875,-2.091952323913574,-5.421471118927002,3.693274736404419
1761131579280417800,8.712417724609375,-2.8688488006591797,-5.500932216644287,3.836946487426758
1761131579290418000,8.72241796875,-3.3463175296783447,-5.590715408325195,3.9167213439941406
1761131579300417800,8.732417724609375,-3.6574385166168213,-5.612171649932861,3.9119133949279785
1761131579310418000,8.74241796875,-3.811074733734131,-5.596060752868652,3.789564371109009
1761131579320417800,8.752417724609375,-3.8284947872161865,-5.634186744689941,3.5433921813964844
1761131579330418000,8.76241796875,-3.653348684310913,-5.742674827575684,3.2536258697509766
1761131579340417800,8.772417724609374,-3.4896998405456543,-5.867123603820801,3.1191861629486084
1761131579350418000,8.78241796875,-3.23337459564209,-6.008021831512451,2.9455790519714355
1761131579360418600,8.79241845703125,-3.0198094844818115,-6.02054500579834,2.8090896606445312
1761131579370418700,8.802418701171876,-2.8405826091766357,-5.977766036987305,2.5894315242767334
1761131579380418800,8.812418701171875,-2.6946663856506348,-5.871094703674316,2.472641944885254
1761131579390418700,8.822418701171875,-2.5117340087890625,-5.693906784057617,2.2697510719299316
1761131579400418800,8.832418701171875,-2.3411481380462646,-5.49900484085083,1.9799226522445679
1761131579410418700,8.842418701171875,-1.9931073188781738,-5.293720245361328,1.4553505182266235
1761131579420418800,8.852418701171874,-1.9797697067260742,-5.3059539794921875,1.4430423974990845
1761131579430418700,8.862418701171874,-1.0753989219665527,-4.983658790588379,0.3374873399734497
1761131579440418800,8.872418701171876,-0.6168346405029297,-4.88946533203125,-0.06868255138397217
1761131579450418700,8.882418701171876,-0.3480701446533203,-4.788718223571777,-0.4214361906051636
1761131579460418000,8.89241796875,-0.2131175994873047,-4.5732245445251465,-0.6383366584777832
1761131579470418000,8.90241796875,-0.010870933532714844,-4.20020866394043,-0.7575969696044922
1761131579480418000,8.91241796875,0.31381988525390625,-3.797684669494629,-0.663509726524353
1761131579490418000,8.92241796875,0.6799144744873047,-3.422934055328369,-0.483376145362854
1761131579500418000,8.93241796875,0.9911150932312012,-2.878211498260498,-0.3154439926147461
1761131579510418000,8.94241796875,2.0976924896240234,-2.1132164001464844,-0.49333643913269043
1761131579520418000,8.95241796875,3.7109780311584473,-1.6005067825317383,-0.6162512302398682
1761131579530418000,8.96241796875,5.898553371429443,-1.4400768280029297,-0.6465011835098267
1761131579540417800,8.972417724609375,8.21871280670166,-1.743795394897461,-0.6012016534805298
1761131579550418000,8.98241796875,10.463752746582031,-2.288569927215576,-0.5221635103225708
1761131579560418800,8.992418701171875,12.25749397277832,-2.9362435340881348,-0.5887190103530884
1761131579570418700,9.002418701171875,13.148992538452148,-3.3785340785980225,-0.7142068147659302
1761131579580418800,9.012418701171875,12.986289978027344,-3.608534812927246,-0.9501888751983643
1761131579590418700,9.022418701171874,12.091161727905273,-3.5811638832092285,-1.1563184261322021
1761131579600418800,9.032418701171874,10.65627384185791,-3.371959686279297,-1.2851003408432007
1761131579610418700,9.042418701171876,8.980573654174805,-3.066288471221924,-1.2548630237579346
1761131579620418800,9.052418701171876,7.064774513244629,-2.855167865753174,-0.9567010402679443
1761131579630418700,9.062418701171875,5.588616847991943,-2.635406970977783,-0.6983526945114136
1761131579640418800,9.072418701171875,4.46285343170166,-2.5082826614379883,-0.49210047721862793
1761131579650418700,9.082418701171875,3.784726619720459,-2.567988395690918,-0.17918086051940918
1761131579660417800,9.092417724609374,3.4372148513793945,-2.6904654502868652,0.3924713730812073
1761131579670418000,9.10241796875,3.315030574798584,-2.81807279586792,1.0328495502471924
1761131579680417800,9.112417724609376,3.312681198120117,-2.872356414794922,1.7686116695404053
1761131579690418000,9.12241796875,3.338461399078369,-2.9212446212768555,2.3272438049316406
1761131579700417800,9.132417724609375,3.3809919357299805,-3.003960132598877,2.716677188873291
1761131579710418000,9.14241796875,3.410187244415283,-3.1261653900146484,2.8935940265655518
1761131579720417800,9.152417724609375,3.522958278656006,-3.4519424438476562,2.852850914001465
1761131579730418000,9.16241796875,3.619710922241211,-3.8516337871551514,2.670952796936035
1761131579740417800,9.172417724609375,3.6040000915527344,-4.28106689453125,2.338439464569092
1761131579750418000,9.18241796875,3.327648639678955,-4.568374156951904,1.8870781660079956
1761131579760418600,9.19241845703125,2.860597610473633,-4.695328235626221,1.3610786199569702
1761131579770418700,9.202418701171876,2.2506308555603027,-4.75567626953125,0.8138812780380249
1761131579780418600,9.21241845703125,1.573662281036377,-4.778223991394043,0.41509106755256653
1761131579790418700,9.222418701171875,0.9417295455932617,-4.780098915100098,0.14857670664787292
1761131579800418600,9.23241845703125,0.37287139892578125,-4.772475242614746,-0.11184753477573395
1761131579810418700,9.242418701171875,-0.016839027404785156,-4.631124973297119,-0.3218313157558441
1761131579820418800,9.252418701171875,0.03002786636352539,-4.66610050201416,-0.38048413395881653
1761131579830418700,9.262418701171875,-0.4755110740661621,-4.332088947296143,-0.6720799207687378
1761131579840418800,9.272418701171874,-0.3331317901611328,-4.140429496765137,-0.7564327120780945
1761131579850418700,9.282418701171874,0.020381450653076172,-3.998955488204956,-0.7315636277198792
1761131579860417800,9.292417724609376,0.5397748947143555,-3.9240574836730957,-0.6491247415542603
1761131579870418000,9.30241796875,1.095189094543457,-3.9812426567077637,-0.6562818884849548
1761131579880417800,9.312417724609375,1.6746673583984375,-4.083343505859375,-0.7454448342323303
1761131579890418000,9.32241796875,2.200140953063965,-4.281230926513672,-0.7664884924888611
1761131579900417800,9.332417724609375,2.6765642166137695,-4.505941390991211,-0.8050761222839355
1761131579910418000,9.34241796875,3.271390438079834,-4.698319435119629,-0.9751605987548828
1761131579920417800,9.352417724609374,3.8287978172302246,-4.763545036315918,-1.250274419784546
1761131579930418000,9.36241796875,4.2891926765441895,-4.85123872756958,-1.5463924407958984
1761131579940417800,9.372417724609376,4.607457637786865,-4.938749313354492,-1.818189263343811
1761131579950418000,9.38241796875,4.664130210876465,-5.079963684082031,-2.08536696434021
1761131579960418800,9.392418701171875,4.4320149421691895,-5.140017509460449,-2.3054118156433105
1761131579970418700,9.402418701171875,4.079596519470215,-5.052557945251465,-2.652495861053467
1761131579980418800,9.412418701171875,3.7596073150634766,-4.862215518951416,-2.897582769393921
1761131579990418700,9.422418701171875,3.468808174133301,-4.724958896636963,-3.0249056816101074
1761131580000418800,9.432418701171875,3.2256860733032227,-4.57421875,-2.9869885444641113
1761131580010418700,9.442418701171874,3.0770421028137207,-4.427349090576172,-2.8849375247955322
1761131580020418600,9.45241845703125,3.1551647186279297,-4.272892951965332,-2.7559633255004883
1761131580030418400,9.46241845703125,3.4456939697265625,-4.089383602142334,-2.6818034648895264
1761131580040418600,9.47241845703125,3.899221420288086,-3.995440721511841,-2.72870135307312
1761131580050418400,9.48241845703125,4.541818618774414,-4.04856538772583,-2.7776451110839844
1761131580060417500,9.49241748046875,5.181106090545654,-4.190524101257324,-2.8312594890594482
1761131580070417700,9.502417724609375,5.683556079864502,-4.382055759429932,-2.7985587120056152
1761131580080417500,9.51241748046875,6.2111687660217285,-4.4848761558532715,-2.8448805809020996
1761131580090417700,9.522417724609374,6.5210113525390625,-4.588201522827148,-2.927464485168457
1761131580100417500,9.53241748046875,6.505765914916992,-4.691709995269775,-2.9666128158569336
1761131580110417700,9.542417724609376,6.2821574211120605,-4.810603618621826,-2.974877119064331
1761131580120417500,9.55241748046875,5.909891605377197,-4.854012489318848,-3.0126447677612305
1761131580130417400,9.56241748046875,5.414975643157959,-4.830815315246582,-3.064931869506836
1761131580140417500,9.57241748046875,4.882978439331055,-4.820891380310059,-3.084151029586792
1761131580150417400,9.58241748046875,4.477183818817139,-4.82758903503418,-3.057596445083618
1761131580160418300,9.592418212890625,4.13612699508667,-4.885689735412598,-2.979337692260742
1761131580170418400,9.60241845703125,4.140731334686279,-4.862905502319336,-3.0313944816589355
1761131580180418300,9.612418212890624,3.9021120071411133,-4.912021636962891,-3.020660161972046
1761131580190418400,9.62241845703125,3.4455933570861816,-5.142425060272217,-2.8007407188415527
1761131580200418300,9.632418212890625,3.110161781311035,-5.21833610534668,-2.5505552291870117
1761131580210418400,9.64241845703125,2.734898090362549,-5.094322681427002,-2.4318864345550537
1761131580220418300,9.652418212890625,2.3162102699279785,-4.8809590339660645,-2.5282676219940186
1761131580230418400,9.66241845703125,1.918203353881836,-4.617615699768066,-2.7197835445404053
1761131580240418300,9.672418212890625,1.5339775085449219,-4.43276309967041,-2.8735744953155518
1761131580250418400,9.68241845703125,1.1722636222839355,-4.132881164550781,-2.941608190536499
1761131580260417500,9.69241748046875,0.9608120918273926,-3.8236331939697266,-3.0041630268096924
1761131580270417700,9.702417724609376,0.7964301109313965,-3.44570255279541,-2.9166765213012695
1761131580280417500,9.71241748046875,0.7270646095275879,-3.1147611141204834,-2.8738813400268555
1761131580290417400,9.72241748046875,0.8880267143249512,-2.811150074005127,-2.826812744140625
1761131580300417800,9.732417724609375,1.355179786682129,-2.5272040367126465,-2.8872337341308594
1761131580310417700,9.742417724609375,1.9111742973327637,-2.4282431602478027,-2.9449849128723145
1761131580320418000,9.75241796875,2.565976142883301,-2.5422472953796387,-3.1413211822509766
1761131580330418000,9.76241796875,3.240039348602295,-2.649291753768921,-3.3349151611328125
1761131580340418000,9.77241796875,3.902329921722412,-2.663320302963257,-3.498479127883911
1761131580350418000,9.78241796875,4.360540866851807,-2.747194766998291,-3.6619503498077393
1761131580360418800,9.792418701171876,4.5336012840271,-2.8733580112457275,-3.7783632278442383
1761131580370419000,9.8024189453125,4.283847332000732,-2.9882161617279053,-3.9525022506713867
1761131580380418800,9.812418701171875,3.5569262504577637,-2.94529128074646,-4.219192028045654
1761131580390419000,9.8224189453125,2.7516283988952637,-2.782243490219116,-4.4155144691467285
1761131580400418800,9.832418701171875,2.0122313499450684,-2.577263355255127,-4.600622653961182
1761131580410419000,9.8424189453125,1.476466178894043,-2.4484663009643555,-4.708212375640869
1761131580420418800,9.852418701171874,1.1118159294128418,-2.323312282562256,-4.850522041320801
1761131580430419000,9.8624189453125,0.9353094100952148,-2.2477798461914062,-5.063983917236328
1761131580440418800,9.872418701171876,0.8043060302734375,-2.215946674346924,-5.189080715179443
1761131580450419000,9.8824189453125,0.6054372787475586,-2.1892428398132324,-5.195688247680664
1761131580460418000,9.89241796875,0.36255502700805664,-2.02632737159729,-5.113750457763672
1761131580470418000,9.90241796875,0.12216377258300781,-1.7846777439117432,-5.026458740234375
1761131580480418000,9.91241796875,-0.13629722595214844,-1.5093302726745605,-4.906209468841553
1761131580490418000,9.92241796875,-0.3798675537109375,-1.124718189239502,-4.71670389175415
1761131580500418000,9.93241796875,-0.46625471115112305,-0.8052592277526855,-4.5363006591796875
1761131580510418000,9.94241796875,-0.28754568099975586,-0.47828149795532227,-4.368528842926025
1761131580520418000,9.95241796875,0.07484292984008789,-0.2089705467224121,-4.295680046081543
1761131580530418000,9.96241796875,0.7402896881103516,-0.08016347885131836,-4.248626232147217
1761131580540418000,9.97241796875,1.5578808784484863,-0.15290117263793945,-4.120339870452881
1761131580550418000,9.98241796875,2.37811279296875,-0.2904653549194336,-4.0577287673950195
1761131580560418800,9.992418701171875,2.303900718688965,-0.13207340240478516,-4.096680641174316
1761131580570419000,10.0024189453125,3.1938319206237793,-0.24641895294189453,-4.310870170593262
1761131580580418800,10.012418701171875,2.9556703567504883,-0.0674443244934082,-4.642396450042725
1761131580590419000,10.0224189453125,2.262296676635742,0.2434701919555664,-5.095492362976074
1761131580600418600,10.03241845703125,1.5471930503845215,0.6932346820831299,-5.572175979614258
1761131580610418700,10.042418701171876,1.003324031829834,1.1953649520874023,-5.851187229156494
1761131580620418600,10.05241845703125,0.9033002853393555,1.2952332496643066,-5.767771244049072
1761131580630418700,10.062418701171875,1.0581426620483398,1.9517822265625,-5.938493251800537
1761131580640418600,10.07241845703125,1.5658888816833496,2.2674715518951416,-6.047138214111328
1761131580650418700,10.082418701171875,2.2040443420410156,2.517921209335327,-6.22619104385376
1761131580660417800,10.092417724609374,2.886288642883301,2.656327247619629,-6.372684478759766
1761131580670417700,10.102417724609374,3.825551986694336,2.6047403812408447,-6.327825546264648
1761131580680417800,10.112417724609376,4.868234634399414,2.481288194656372,-6.02658224105835
1761131580690417700,10.122417724609376,5.89093017578125,2.319211006164551,-5.714635372161865
1761131580700417800,10.132417724609375,6.778512001037598,2.174485921859741,-5.291158676147461
1761131580710417700,10.142417724609375,7.061201095581055,1.9066402912139893,-4.846058368682861
1761131580720417800,10.152417724609375,6.637714385986328,1.617830514907837,-4.3596391677856445
1761131580730418000,10.16241796875,5.778293609619141,1.5560414791107178,-3.813972234725952
1761131580740417800,10.172417724609375,4.6981048583984375,1.7224829196929932,-3.362414836883545
1761131580750418000,10.18241796875,3.5623369216918945,2.0852441787719727,-2.861996650695801
1761131580760418800,10.192418701171874,2.5590295791625977,2.4925458431243896,-2.55655837059021
1761131580770418700,10.202418701171876,1.827418327331543,2.8167953491210938,-2.518857479095459
1761131580780418800,10.212418701171876,1.4024887084960938,3.2322168350219727,-2.5388500690460205
1761131580790418700,10.222418701171875,1.490274429321289,3.527599334716797,-2.7273471355438232
1761131580800418800,10.232418701171875,1.9434452056884766,3.543612480163574,-2.994150161743164
1761131580810418700,10.242418701171875,2.5894899368286133,3.155757427215576,-3.294954776763916
1761131580820418600,10.25241845703125,3.0854930877685547,2.524528741836548,-3.485783100128174
1761131580830418700,10.262418701171875,3.390833854675293,1.957930564880371,-3.4707818031311035
1761131580840418600,10.27241845703125,3.3870849609375,1.4269046783447266,-3.54587984085083
1761131580850418700,10.282418701171874,3.190943717956543,1.081282377243042,-3.637035369873047
1761131580860417800,10.292417724609376,2.787975311279297,0.7784640789031982,-3.694643974304199
1761131580870418000,10.30241796875,2.1988048553466797,0.5451586246490479,-3.622455596923828
1761131580880417800,10.312417724609375,1.3653793334960938,0.41559529304504395,-3.4304215908050537
1761131580890418000,10.32241796875,0.4498472213745117,0.4290463924407959,-3.255552291870117
1761131580900417800,10.332417724609375,-0.4514765739440918,0.5180087089538574,-3.141395092010498
1761131580910418000,10.34241796875,-1.129438877105713,0.5531344413757324,-3.021974802017212
1761131580920417800,10.352417724609374,-1.7298102378845215,0.5353531837463379,-2.980440378189087
1761131580930418000,10.36241796875,-2.1958250999450684,0.5048031806945801,-2.9983420372009277
1761131580940417800,10.372417724609376,-2.636160373687744,0.46576809883117676,-3.0752830505371094
1761131580950418000,10.38241796875,-2.986802577972412,0.5059282779693604,-3.2626497745513916
1761131580960418600,10.39241845703125,-3.263491153717041,0.5487298965454102,-3.4930830001831055
1761131580970418700,10.402418701171875,-3.3862228393554688,0.5423312187194824,-3.661604642868042
1761131580980418800,10.412418701171875,-3.3115906715393066,0.5602796077728271,-3.8328099250793457
1761131580990418700,10.422418701171875,-3.1714601516723633,0.5320084095001221,-3.9572548866271973
1761131581000418800,10.432418701171875,-3.076374053955078,0.5627593994140625,-4.036432266235352
1761131581010418700,10.442418701171874,-3.102780342102051,0.6973733901977539,-4.129670143127441
1761131581020418800,10.452418701171876,-3.062648296356201,0.8924012184143066,-4.229675769805908
1761131581030418700,10.462418701171876,-3.0804810523986816,0.8883664608001709,-4.196164131164551
1761131581040418600,10.47241845703125,-2.887575149536133,1.3649954795837402,-4.189520835876465
1761131581050418700,10.482418701171875,-2.454000949859619,1.63710355758667,-4.131713390350342
1761131581060417800,10.492417724609375,-1.6223206520080566,1.907543659210205,-4.0221967697143555
1761131581070418000,10.50241796875,-0.6348519325256348,2.0301756858825684,-3.8853986263275146
1761131581080417800,10.512417724609374,0.23396682739257812,2.0235114097595215,-3.9160234928131104
1761131581090418000,10.52241796875,1.0955810546875,2.0334722995758057,-4.1034369468688965
1761131581100417800,10.532417724609376,2.0582332611083984,1.9917044639587402,-4.343911647796631
1761131581110418000,10.54241796875,2.9263105392456055,1.8428993225097656,-4.534785270690918
1761131581120417800,10.552417724609375,3.418752670288086,1.7702348232269287,-4.6711883544921875
1761131581130418000,10.56241796875,3.5829286575317383,1.8594799041748047,-4.764042377471924
1761131581140417800,10.572417724609375,3.488382339477539,1.9766829013824463,-4.690176010131836
1761131581150418000,10.58241796875,3.265605926513672,2.0359551906585693,-4.424648761749268
1761131581160418600,10.59241845703125,2.89218807220459,2.057478427886963,-4.050338268280029
1761131581170418700,10.602418701171874,2.450145721435547,2.0762925148010254,-3.6665291786193848
1761131581180418600,10.61241845703125,1.9733209609985352,2.054287910461426,-3.336073160171509
1761131581190418700,10.622418701171876,1.331186294555664,2.014721393585205,-3.045274257659912
1761131581200418600,10.63241845703125,0.6627321243286133,2.0333237648010254,-2.903876304626465
1761131581210418700,10.642418701171875,0.019895553588867188,2.0711541175842285,-2.9325757026672363
1761131581220418800,10.652418701171875,-0.4944319725036621,2.1137993335723877,-2.9836502075195312
1761131581230418700,10.662418701171875,-0.8248882293701172,2.142629861831665,-2.9367802143096924
1761131581240418800,10.672418701171875,-1.027719497680664,2.083496570587158,-2.934364080429077
1761131581250418700,10.682418701171875,-1.0538501739501953,2.138695478439331,-2.9459333419799805
1761131581260417800,10.692417724609374,-0.8591442108154297,2.1137123107910156,-2.9485557079315186
1761131581270418000,10.70241796875,-0.8919849395751953,2.1163413524627686,-2.878436326980591
1761131581280417800,10.712417724609375,-0.30974864959716797,1.870654582977295,-2.8000359535217285
1761131581290418000,10.72241796875,-0.027530670166015625,1.7775156497955322,-2.7069005966186523
1761131581300417800,10.732417724609375,0.23198509216308594,1.7491984367370605,-2.566173791885376
1761131581310418000,10.74241796875,0.42941951751708984,1.7575047016143799,-2.4053549766540527
1761131581320417800,10.752417724609375,0.5284004211425781,1.7794225215911865,-2.2247536182403564
1761131581330418000,10.76241796875,0.5560026168823242,1.8451402187347412,-2.0613930225372314
1761131581340417800,10.772417724609374,0.5556421279907227,1.8780968189239502,-1.9017592668533325
1761131581350418000,10.78241796875,0.5538558959960938,1.851647138595581,-1.7916951179504395
1761131581360418600,10.79241845703125,0.5411748886108398,1.8015382289886475,-1.738631248474121
1761131581370418700,10.802418701171876,0.4862947463989258,1.6955876350402832,-1.7007732391357422
1761131581380418600,10.81241845703125,0.2239522933959961,1.611276388168335,-1.6434791088104248
1761131581390418700,10.822418701171875,-0.20752334594726562,1.5247938632965088,-1.5821151733398438
1761131581400418600,10.83241845703125,-0.717381477355957,1.5405333042144775,-1.5202291011810303
1761131581410418700,10.842418701171875,-1.19801664352417,1.6084718704223633,-1.4552011489868164
1761131581420418600,10.85241845703125,-1.6778087615966797,1.677905559539795,-1.3629571199417114
1761131581430418700,10.862418701171874,-2.0865983963012695,1.7101328372955322,-1.2462984323501587
1761131581440418600,10.87241845703125,-2.103030204772949,1.720574140548706,-1.2059098482131958
1761131581450418700,10.882418701171876,-2.847156047821045,1.8302748203277588,-1.0240404605865479
1761131581460417800,10.892417724609375,-3.177065849304199,1.937957763671875,-0.9364142417907715
1761131581470417700,10.902417724609375,-3.37076473236084,2.0459892749786377,-0.817821741104126
1761131581480417800,10.912417724609375,-3.459946632385254,2.2082815170288086,-0.6985371112823486
1761131581490418000,10.92241796875,-3.438028335571289,2.305903673171997,-0.6202270984649658
1761131581500417800,10.932417724609374,-3.3030409812927246,2.3750622272491455,-0.6269986629486084
1761131581510418000,10.94241796875,-3.1127147674560547,2.4298348426818848,-0.6839632987976074
1761131581520417800,10.952417724609376,-2.919715404510498,2.447381019592285,-0.7755248546600342
1761131581530417700,10.962417724609375,-2.9250922203063965,2.5103328227996826,-0.797835111618042
1761131581540417800,10.972417724609375,-2.5927367210388184,2.680643081665039,-0.9964284896850586
1761131581550417700,10.982417724609375,-2.409097671508789,2.8673906326293945,-1.0944600105285645
1761131581560418600,10.99241845703125,-2.1542015075683594,3.077704668045044,-1.1960904598236084
1761131581570418700,11.002418701171875,-1.7877650260925293,3.225027084350586,-1.4050005674362183
1761131581580418600,11.01241845703125,-1.407850742340088,3.341981887817383,-1.603486180305481
1761131581590418700,11.022418701171874,-0.9108123779296875,3.424783706665039,-1.866951823234558
1761131581600418600,11.03241845703125,-0.49945926666259766,3.538965940475464,-2.017099618911743
1761131581610418700,11.042418701171876,-0.1467132568359375,3.7068097591400146,-2.179788112640381
1761131581620418300,11.052418212890625,-0.1517047882080078,3.7837181091308594,-2.1933631896972656
1761131581630418400,11.06241845703125,0.2655477523803711,4.112371921539307,-2.6019442081451416
1761131581640418300,11.072418212890625,0.3984832763671875,4.316327095031738,-2.7803187370300293
1761131581650418400,11.08241845703125,0.5650882720947266,4.485010147094727,-2.81182599067688
1761131581660417500,11.09241748046875,0.6498727798461914,4.668006896972656,-2.7795732021331787
1761131581670417400,11.10241748046875,0.6451425552368164,4.707086563110352,-2.776994228363037
1761131581680417500,11.11241748046875,0.7445211410522461,5.045110702514648,-2.927793502807617
1761131581690417400,11.12241748046875,0.7373390197753906,5.079187393188477,-2.916163444519043
1761131581700417500,11.13241748046875,0.7239522933959961,5.2242817878723145,-3.117619514465332
1761131581710417400,11.14241748046875,0.8743753433227539,5.303319931030273,-3.5513739585876465
1761131581720417500,11.15241748046875,0.8098020553588867,5.387331485748291,-3.6985340118408203
1761131581730417400,11.16241748046875,0.7946758270263672,5.413387298583984,-3.660325765609741
1761131581740417500,11.17241748046875,0.48495960235595703,5.792592525482178,-4.214685916900635
1761131581750417400,11.18241748046875,0.3426198959350586,6.090676307678223,-4.4801130294799805
1761131581760418300,11.192418212890624,0.4985160827636719,6.4228620529174805,-4.820405006408691
1761131581770418400,11.20241845703125,1.2862958908081055,6.646505355834961,-5.231554985046387
1761131581780418300,11.212418212890626,2.418924331665039,6.530505180358887,-5.459750175476074
1761131581790418400,11.22241845703125,3.9007530212402344,6.0301055908203125,-5.5746307373046875
1761131581800418300,11.232418212890625,5.456122398376465,5.285646438598633,-5.495061874389648
1761131581810418400,11.24241845703125,5.462891578674316,5.370121002197266,-5.526098728179932
1761131581820418300,11.252418212890625,6.392683982849121,3.6528587341308594,-5.343262195587158
1761131581830418400,11.26241845703125,5.54228401184082,3.283123731613159,-5.425619602203369
1761131581840418300,11.272418212890624,4.136619567871094,3.256463050842285,-5.572198867797852
1761131581850418400,11.28241845703125,2.69521427154541,3.6230053901672363,-5.553510665893555
1761131581860417500,11.29241748046875,1.5091323852539062,4.036776065826416,-5.268320083618164
1761131581870417700,11.302417724609375,0.7377443313598633,4.333920478820801,-4.880435943603516
1761131581880417500,11.31241748046875,0.44761085510253906,4.45501184463501,-4.336565017700195
1761131581890417700,11.322417724609375,0.6485767364501953,4.419813632965088,-3.785640239715576
1761131581900417500,11.33241748046875,1.0518684387207031,4.262218475341797,-3.365532398223877
1761131581910417700,11.342417724609374,1.4529705047607422,3.9697811603546143,-3.0451712608337402
1761131581920417800,11.352417724609374,1.7103843688964844,3.619792938232422,-2.841447114944458
1761131581930418000,11.36241796875,1.7889976501464844,3.279818296432495,-2.626075029373169
1761131581940417800,11.372417724609376,1.7865047454833984,2.9239730834960938,-2.506938934326172
1761131581950418000,11.38241796875,1.7766389846801758,2.634998321533203,-2.512721538543701
1761131581960418600,11.39241845703125,1.556502342224121,2.308746337890625,-2.5089566707611084
1761131581970418700,11.402418701171875,1.5537118911743164,2.2710537910461426,-2.4910247325897217
1761131581980418800,11.412418701171875,0.5612173080444336,1.7872499227523804,-2.487226963043213
1761131581990418700,11.422418701171875,-0.1348123550415039,1.5797799825668335,-2.500166177749634
1761131582000418800,11.432418701171875,-0.9976625442504883,1.3648138046264648,-2.4372050762176514
1761131582010418700,11.442418701171874,-1.7601866722106934,1.2424532175064087,-2.3290300369262695
1761131582020418800,11.452418701171876,-2.45742130279541,1.1666604280471802,-2.181989908218384
1761131582040418800,11.472418701171875,-3.6398372650146484,1.1092402935028076,-1.8569419384002686
1761131582050418700,11.482418701171875,-4.078022480010986,1.1128593683242798,-1.7445225715637207
1761131582060417800,11.492417724609375,-4.077626705169678,1.010510802268982,-1.6780383586883545
1761131582070418000,11.50241796875,-4.692442893981934,1.054875373840332,-1.489526629447937
1761131582080417800,11.512417724609374,-4.686548233032227,0.9601178169250488,-1.4447200298309326
1761131582090418000,11.52241796875,-5.030345916748047,1.1133286952972412,-1.1108869314193726
1761131582100417800,11.532417724609376,-5.09244441986084,1.197402000427246,-0.9131745100021362
1761131582110418000,11.54241796875,-5.0817766189575195,1.124535322189331,-0.9027655124664307
1761131582120417800,11.552417724609375,-5.085300445556641,1.4358274936676025,-0.6147645115852356
1761131582130418000,11.56241796875,-4.952505588531494,1.5600192546844482,-0.5638242959976196
1761131582140417800,11.572417724609375,-4.762749195098877,1.6241213083267212,-0.47581470012664795
1761131582150417400,11.58241748046875,-4.496952056884766,1.5993984937667847,-0.41370081901550293
1761131582160418000,11.59241796875,-4.237668514251709,1.5789774656295776,-0.340831995010376
1761131582170418200,11.602418212890624,-3.906245231628418,1.5862758159637451,-0.33693504333496094
1761131582180417800,11.612417724609376,-3.5510244369506836,1.67325758934021,-0.3988853693008423
1761131582190417700,11.622417724609376,-3.2009105682373047,1.7719711065292358,-0.5751477479934692
1761131582200417800,11.632417724609375,-2.92042875289917,1.8161640167236328,-0.9292484521865845
1761131582210417700,11.642417724609375,-2.6565914154052734,1.8404690027236938,-1.348889946937561
1761131582220417800,11.652417724609375,-2.4161572456359863,1.8615496158599854,-1.7523633241653442
1761131582230418000,11.66241796875,-2.1914496421813965,1.8942582607269287,-2.1811256408691406
1761131582240417800,11.672417724609375,-1.845548152923584,1.9682526588439941,-2.490266799926758
1761131582250418000,11.68241796875,-1.3418874740600586,2.114438772201538,-2.6980526447296143
1761131582260417000,11.6924169921875,-0.670191764831543,2.23909330368042,-2.813319444656372
1761131582270417000,11.7024169921875,0.16767311096191406,2.3908090591430664,-2.8227005004882812
1761131582280417000,11.7124169921875,1.1029157638549805,2.4300599098205566,-2.706486701965332
1761131582290417000,11.7224169921875,2.0813207626342773,2.3557815551757812,-2.505018711090088
1761131582300417000,11.7324169921875,2.667677879333496,2.3068673610687256,-2.26810359954834
1761131582310417000,11.7424169921875,2.9551868438720703,2.337218761444092,-2.075025796890259
1761131582320416800,11.752416748046874,2.9263811111450195,2.5142154693603516,-1.9098600149154663
1761131582330417000,11.7624169921875,2.513045310974121,2.8166582584381104,-1.6908504962921143
1761131582340416800,11.772416748046876,1.952615737915039,3.1753852367401123,-1.500929594039917
1761131582350417000,11.7824169921875,1.3054447174072266,3.5912179946899414,-1.2557318210601807
1761131582360417800,11.792417724609376,1.0080890655517578,3.913167715072632,-1.1218748092651367
1761131582370417700,11.802417724609375,1.0248842239379883,4.127622604370117,-0.9388657808303833
1761131582380417800,11.812417724609375,1.3396673202514648,4.243371486663818,-0.7753168344497681
1761131582390417700,11.822417724609375,1.9274587631225586,4.25662899017334,-0.8365503549575806
1761131582400417500,11.83241748046875,2.6561241149902344,4.042407989501953,-1.1232249736785889
1761131582410417400,11.84241748046875,3.1730146408081055,3.7802700996398926,-1.3574168682098389
1761131582420417500,11.85241748046875,3.3349056243896484,3.4873483180999756,-1.5286080837249756
1761131582430417400,11.86241748046875,3.3232622146606445,3.5473318099975586,-1.491053581237793
1761131582440417500,11.87241748046875,2.6971588134765625,3.3821349143981934,-1.8049136400222778
1761131582450418000,11.88241796875,2.0622243881225586,3.532485008239746,-1.8071529865264893
1761131582460417000,11.8924169921875,1.485727310180664,3.6104750633239746,-1.6418888568878174
1761131582470417200,11.902417236328125,0.8558139801025391,3.6458332538604736,-1.2862921953201294
1761131582480417500,11.91241748046875,0.3644599914550781,3.6843748092651367,-0.9459934830665588
1761131582490417700,11.922417724609375,-0.12215137481689453,3.7135095596313477,-0.6025216579437256
1761131582500417500,11.93241748046875,-0.5631618499755859,3.6877293586730957,-0.2609468698501587
1761131582510417700,11.942417724609374,-0.8894319534301758,3.652893304824829,0.01920318603515625
1761131582520417500,11.95241748046875,-0.8856363296508789,3.6304984092712402,0.005571961402893066
1761131582530417400,11.96241748046875,-1.1432771682739258,3.615098476409912,0.5316512584686279
1761131582540417500,11.97241748046875,-1.0401830673217773,3.5812578201293945,0.8143690824508667
1761131582550417400,11.98241748046875,-0.880824089050293,3.4652366638183594,1.0779879093170166
1761131582560418300,11.992418212890625,-0.8716325759887695,3.4490692615509033,1.0305932760238647
1761131582570418400,12.00241845703125,-0.981903076171875,3.239192008972168,1.5770583152770996
1761131582580418300,12.012418212890625,-1.322153091430664,3.145432710647583,1.7639731168746948
1761131582590418400,12.02241845703125,-1.7677998542785645,3.18472957611084,1.8649979829788208
1761131582600418300,12.032418212890626,-2.2446093559265137,3.2688326835632324,1.8803119659423828
1761131582610418400,12.04241845703125,-2.7122082710266113,3.341709613800049,1.9192841053009033
1761131582620418300,12.052418212890625,-3.1083245277404785,3.3438656330108643,1.9113606214523315
1761131582630418400,12.06241845703125,-3.3619046211242676,3.3469176292419434,1.8590631484985352
1761131582640418300,12.072418212890625,-3.479844570159912,3.403068780899048,1.8599214553833008
1761131582650418400,12.08241845703125,-3.42057466506958,3.5271334648132324,2.0282630920410156
1761131582670350800,12.102350830078125,-3.155423641204834,3.7862939834594727,2.945904493331909
1761131582680317400,12.1123173828125,-3.393878936767578,4.032323837280273,3.5216450691223145
1761131582690284300,12.1222841796875,-3.4278674125671387,4.190028190612793,3.6426401138305664
1761131582700251100,12.132251220703125,-3.236154556274414,4.423295021057129,3.4254088401794434
1761131582710217700,12.1422177734375,-2.8044748306274414,4.359190940856934,3.213221788406372
1761131582720184600,12.1521845703125,-2.3136658668518066,4.021353244781494,3.1754541397094727
1761131582730151200,12.162151123046876,-1.6785244941711426,3.689119338989258,3.081773042678833
1761131582740117800,12.17211767578125,-1.1665172576904297,3.109604835510254,2.4859707355499268
1761131582750084400,12.18208447265625,-1.1189460754394531,3.0421111583709717,2.356578826904297
1761131582760052000,12.192052001953124,-0.6342401504516602,2.5139083862304688,1.0377752780914307
1761131582770018600,12.2020185546875,-0.2638988494873047,2.272289276123047,0.18892598152160645
1761131582779985400,12.2119853515625,-0.038735389709472656,1.820662498474121,-0.6383266448974609
1761131582789952000,12.221951904296875,0.1110830307006836,1.2628822326660156,-1.2853186130523682
1761131582799918600,12.231918701171875,0.8741569519042969,0.8891875743865967,-1.8073128461837769
1761131582809885400,12.241885498046875,1.7991247177124023,0.329164981842041,-1.8467482328414917
1761131582819852000,12.25185205078125,2.1031503677368164,-0.29625511169433594,-2.1062588691711426
1761131582829818600,12.261818603515625,2.1118593215942383,-0.5100016593933105,-2.568880558013916
1761131582839785500,12.271785400390625,1.7320842742919922,-0.5994219779968262,-3.1555726528167725
1761131582849752000,12.281751953125,1.3260383605957031,-0.5396440029144287,-3.8944671154022217
1761131582859718000,12.2917177734375,0.9537925720214844,-0.4352092742919922,-4.562918663024902
1761131582869685000,12.30168505859375,0.9835014343261719,-0.5711381435394287,-4.512589454650879
1761131582879651600,12.311651611328125,0.3892250061035156,-0.2612185478210449,-5.315659523010254
1761131582889618400,12.321618408203125,0.2301921844482422,-0.19693684577941895,-5.396472930908203
1761131582899585000,12.3315849609375,0.24847030639648438,-0.3741190433502197,-5.289334774017334
1761131582909551600,12.341551513671876,0.3639230728149414,-0.5882720947265625,-5.254809856414795
1761131582919518200,12.351518310546876,0.25674915313720703,-0.7422463893890381,-5.379303932189941
1761131582929485000,12.361485107421874,-0.14304637908935547,-0.87953782081604,-5.465512275695801
1761131582939451600,12.37145166015625,-0.6527156829833984,-0.8774871826171875,-5.224230766296387
1761131582949418200,12.381418212890624,-1.2219796180725098,-0.6288633346557617,-4.6317548751831055
1761131582959419100,12.391419189453124,-1.6282715797424316,0.043759822845458984,-4.024744510650635
1761131582969419300,12.401419189453126,-0.5529413223266602,0.7748756408691406,-3.8165576457977295
1761131582979419100,12.411419189453126,1.436208724975586,0.9040188789367676,-3.5976815223693848
1761131582989419300,12.421419189453125,3.69461727142334,0.2547602653503418,-3.1633145809173584
1761131582999419100,12.431419189453125,5.428404808044434,-0.7780494689941406,-2.717376947402954
1761131583009419300,12.441419189453125,5.7108612060546875,-1.898607850074768,-2.848848342895508
1761131583019419100,12.451419189453125,4.848798751831055,-2.3128066062927246,-3.390669822692871
1761131583029419300,12.461419189453125,3.6190080642700195,-2.214749813079834,-4.310333251953125
1761131583039419100,12.471419189453124,2.306346893310547,-2.176542282104492,-4.992068767547607
1761131583049419300,12.481419189453124,1.2155771255493164,-2.1172430515289307,-5.2726030349731445
1761131583059418400,12.49141845703125,0.35935401916503906,-2.0454835891723633,-4.786200523376465
1761131583069418200,12.501418212890625,1.0410690307617188,-1.6049604415893555,-3.7561769485473633
1761131583079418400,12.51141845703125,1.3567256927490234,-1.0753817558288574,-3.0601181983947754
1761131583089418200,12.521418212890625,1.9984817504882812,-0.3055241107940674,-2.5311925411224365
1761131583099418400,12.53141845703125,2.2554359436035156,0.1837162971496582,-2.0433735847473145
1761131583109418200,12.541418212890624,2.6932220458984375,0.08878922462463379,-1.6629935503005981
1761131583119418400,12.55141845703125,2.863032341003418,-0.19322824478149414,-2.20877742767334
1761131583129418200,12.561418212890626,2.4390153884887695,-0.5621182918548584,-2.3620481491088867
1761131583139418400,12.57141845703125,2.0207443237304688,-1.071986198425293,-2.3524117469787598
1761131583149418200,12.581418212890625,1.335723876953125,-1.4836821556091309,-2.3842010498046875
1761131583159419100,12.591419189453125,0.7239141464233398,-1.4961135387420654,-2.539940357208252
1761131583169418500,12.60141845703125,0.7276878356933594,-1.51542067527771,-2.5293033123016357
1761131583179418600,12.611418701171875,-0.08503341674804688,-0.6418826580047607,-3.2545294761657715
1761131583189418500,12.62141845703125,-0.6011519432067871,-0.3865804672241211,-3.611471652984619
1761131583199418600,12.631418701171874,-0.9023895263671875,-0.15311789512634277,-3.694159984588623
1761131583209418500,12.64141845703125,-1.0401554107666016,-0.06591224670410156,-3.509673833847046
1761131583219418600,12.651418701171876,-0.982335090637207,-0.11204075813293457,-3.1221442222595215
1761131583229418800,12.661418701171876,-0.8628025054931641,-0.16786527633666992,-2.7259628772735596
1761131583239418600,12.671418701171875,-0.8161640167236328,-0.1887354850769043,-2.3806204795837402
1761131583249418800,12.681418701171875,-1.0020217895507812,-0.1965188980102539,-2.2313475608825684
1761131583259417900,12.69141796875,-1.269303798675537,-0.0989530086517334,-2.117133140563965
1761131583269417700,12.701417724609374,-1.580643653869629,0.06197333335876465,-2.0034523010253906
1761131583279417900,12.71141796875,-1.8381075859069824,0.1814098358154297,-1.94401216506958
1761131583289417700,12.721417724609376,-2.021416187286377,0.27100706100463867,-1.9217326641082764
1761131583299417900,12.73141796875,-2.0528488159179688,0.2852668762207031,-1.9942957162857056
1761131583309417700,12.741417724609375,-1.931434154510498,0.20595955848693848,-2.138420820236206
1761131583319417900,12.75141796875,-1.6415104866027832,0.05514216423034668,-2.31142520904541
1761131583329417700,12.761417724609375,-1.3845148086547852,-0.06447005271911621,-2.499370574951172
1761131583339417900,12.77141796875,-1.1416683197021484,-0.12860321998596191,-2.595315933227539
1761131583349417700,12.781417724609375,-0.9472188949584961,-0.16430974006652832,-2.733776330947876
1761131583359418600,12.791418701171875,-0.7778048515319824,-0.20029211044311523,-2.9548208713531494
1761131583369418800,12.801418701171874,-0.6270413398742676,-0.1922590732574463,-3.1463232040405273
1761131583379418600,12.811418701171876,-0.4127206802368164,-0.20505213737487793,-3.298290252685547
1761131583389418800,12.821418701171876,-0.2163228988647461,-0.25002431869506836,-3.3610963821411133
1761131583399418600,12.831418701171875,0.08705520629882812,-0.16135692596435547,-3.5474624633789062
1761131583409418800,12.841418701171875,0.3781557083129883,-0.1905512809753418,-3.547400951385498
1761131583419418600,12.851418701171875,0.5565586090087891,-0.3120443820953369,-3.4632856845855713
1761131583429418800,12.861418701171875,0.6504268646240234,-0.43773317337036133,-3.340754270553589
1761131583439418600,12.871418701171875,0.7757406234741211,-0.5199160575866699,-3.3552277088165283
1761131583449418800,12.881418701171874,1.0431137084960938,-0.4572107791900635,-3.3657262325286865
1761131583459417900,12.89141796875,1.3860292434692383,-0.4781312942504883,-3.2750604152679443
1761131583469417700,12.901417724609376,1.613612174987793,-0.5104789733886719,-3.0553135871887207
1761131583479417900,12.91141796875,1.890359878540039,-0.4553568363189697,-2.8208987712860107
1761131583489417700,12.921417724609375,2.3980770111083984,-0.2477715015411377,-2.467024087905884
1761131583499417900,12.93141796875,3.112086296081543,0.15909767150878906,-2.1249237060546875
