time,seconds_elapsed,z,y,x
1761131759454122000,0.1151220703125,-0.019318614155054092,-0.005726861767470837,-0.010002918541431427
1761131759484134000,0.1451337890625,-0.019318614155054092,-0.005726861767470837,-0.010002918541431427
1761131759494134000,0.155134033203125,-0.019318614155054092,-0.005726861767470837,-0.010002918541431427
1761131759504134000,0.1651337890625,0.017333300784230232,-0.027718011289834976,-0.028328875079751015
1761131759514134000,0.175134033203125,0.022220224142074585,-0.02099849283695221,-0.02344195358455181
1761131759524134000,0.1851337890625,0.02099849283695221,-0.010002918541431427,-0.01794416643679142
1761131759534134000,0.195134033203125,0.016722436994314194,0.0022143865935504436,-0.010002918541431427
1761131759544134000,0.2051337890625,0.01488984003663063,0.005268712528049946,-0.004505131393671036
1761131759554134000,0.215134033203125,0.012446379289031029,0.004046982154250145,0.0016035212902352214
1761131759564134100,0.225134033203125,0.01061378326267004,0.010155634954571724,0.011377365328371525
1761131759574134000,0.235134033203125,0.005726861767470837,0.015042556449770927,0.01748601719737053
1761131759584134100,0.245134033203125,-0.004657847341150045,0.012599095702171326,0.0034361169673502445
1761131759594134000,0.255134033203125,-0.004046982154250145,0.012599095702171326,-0.00939205288887024
1761131759604134100,0.265134033203125,0.005726861767470837,0.006490443367511034,-0.02344195358455181
1761131759614134000,0.275134033203125,0.01366810966283083,-0.002672535367310047,-0.030161472037434578
1761131759624134100,0.285134033203125,0.016722436994314194,-0.011224648915231228,-0.03199406713247299
1761131759634134000,0.295134033203125,0.0264962799847126,-0.01366810966283083,-0.02955060638487339
1761131759644132600,0.305132568359375,0.031383201479911804,-0.008170322515070438,-0.022220224142074585
1761131759654132700,0.3151328125,0.03260493278503418,0.008933904580771923,-0.012446379289031029
1761131759664132600,0.325132568359375,0.033826664090156555,0.022372938692569733,-0.0014508049935102463
1761131759674132700,0.3351328125,0.030772335827350616,0.024816401302814484,0.006490443367511034
1761131759684132600,0.345132568359375,0.024052819237113,0.01748601719737053,0.008323038928210735
1761131759694132700,0.3551328125,0.016111571341753006,0.004657847341150045,0.0022143865935504436
1761131759704132600,0.365132568359375,0.01366810966283083,-0.004505131393671036,-0.01488984003663063
1761131759714132700,0.3751328125,0.01366810966283083,-0.007559457328170538,-0.03199406713247299
1761131759724132600,0.385132568359375,0.01061378326267004,-0.007559457328170538,-0.042989641427993774
1761131759734132700,0.3951328125,0.014278975315392017,-0.0020616701804101467,-0.03810271993279457
1761131759744132600,0.405132568359375,0.022220224142074585,-0.000839939690195024,-0.02710714563727379
1761131759754132700,0.4151328125,0.03504839166998863,0.016264287754893303,-0.022831087931990623
1761131759764132600,0.425132568359375,0.02710714563727379,0.022372938692569733,-0.02710714563727379
1761131759774132700,0.4351328125,0.02038762718439102,0.024205535650253296,-0.019165897741913795
1761131759784132600,0.445132568359375,0.024052819237113,0.010155634954571724,-0.011835514567792416
1761131759794132700,0.4551328125,0.025885414332151413,0.0034361169673502445,-0.007559457328170538
1761131759804132600,0.465132568359375,0.0264962799847126,0.009544769302010536,-0.008781188167631626
1761131759814132700,0.4751328125,0.025885414332151413,0.015042556449770927,-0.008170322515070438
1761131759824132600,0.485132568359375,0.024663684889674187,0.015042556449770927,-0.0020616701804101467
1761131759834132700,0.4951328125,0.011835514567792416,0.009544769302010536,0.0022143865935504436
1761131759844131800,0.5051318359375,-0.004657847341150045,0.0022143865935504436,-0.00022907447419129312
1761131759854132000,0.515132080078125,-0.010766499675810337,-0.00022907447419129312,-0.006337726954370737
1761131759864131800,0.5251318359375,-0.005268712528049946,0.00038179077091626823,-0.011835514567792416
1761131759874131700,0.535131591796875,0.00022907447419129312,0.0009926559869199991,-0.014278975315392017
1761131759884131800,0.5451318359375,0.0038942659739404917,0.0034361169673502445,-0.017333300784230232
1761131759894131700,0.555131591796875,0.008170322515070438,0.0034361169673502445,-0.017333300784230232
1761131759904131800,0.5651318359375,0.01366810966283083,0.0034361169673502445,-0.012446379289031029
1761131759914131700,0.575131591796875,0.01366810966283083,0.002825251780450344,-0.011835514567792416
1761131759924131800,0.5851318359375,0.008170322515070438,0.004657847341150045,-0.014278975315392017
1761131759934131700,0.595131591796875,0.0032834007870405912,0.005879578180611134,-0.01794416643679142
1761131759944132600,0.605132568359375,0.004505131393671036,0.005268712528049946,-0.022831087931990623
1761131759954132700,0.6151328125,0.008170322515070438,0.002825251780450344,-0.030161472037434578
1761131759964132600,0.625132568359375,0.010002918541431427,-0.00022907447419129312,-0.03871358558535576
1761131759974132700,0.6351328125,0.007559457328170538,-0.0020616701804101467,-0.04604396969079971
1761131759984132600,0.645132568359375,0.005115996580570936,0.00038179077091626823,-0.04482223838567734
1761131759994132700,0.6551328125,0.0020616701804101467,0.004657847341150045,-0.03504839166998863
1761131760004132600,0.665132568359375,0.0014508049935102463,0.009544769302010536,-0.02344195358455181
1761131760014132700,0.6751328125,0.0020616701804101467,0.012599095702171326,-0.010002918541431427
1761131760024132600,0.685132568359375,0.004505131393671036,0.010766499675810337,0.0009926559869199991
1761131760034132700,0.6951328125,0.0038942659739404917,0.006490443367511034,0.005879578180611134
1761131760044131800,0.7051318359375,0.0014508049935102463,0.005268712528049946,0.0022143865935504436
1761131760054132000,0.715132080078125,0.000839939690195024,0.005879578180611134,-0.00939205288887024
1761131760064131800,0.7251318359375,0.0038942659739404917,0.006490443367511034,-0.013057244941592216
1761131760074132000,0.735132080078125,-0.0022143865935504436,0.005879578180611134,-0.01366810966283083
1761131760084131800,0.7451318359375,-0.010155634954571724,0.0034361169673502445,-0.01366810966283083
1761131760094132000,0.755132080078125,-0.011988230049610138,0.005268712528049946,-0.01061378326267004
1761131760104131800,0.7651318359375,-0.006490443367511034,0.006490443367511034,-0.0014508049935102463
1761131760114131700,0.775131591796875,-0.002825251780450344,0.0022143865935504436,0.008323038928210735
1761131760124131800,0.7851318359375,-0.00038179077091626823,0.00038179077091626823,0.013820826075971127
1761131760134131700,0.795131591796875,-0.0009926559869199991,-0.0032834007870405912,0.008323038928210735
1761131760144132600,0.805132568359375,-0.0016035212902352214,-0.002672535367310047,0.0022143865935504436
1761131760154132700,0.8151328125,0.000839939690195024,0.002825251780450344,0.00038179077091626823
1761131760164132600,0.825132568359375,-0.0009926559869199991,0.005879578180611134,-0.004505131393671036
1761131760174132700,0.8351328125,-0.0071013085544109344,0.013209961354732513,-0.011835514567792416
1761131760184132600,0.845132568359375,-0.011988230049610138,0.015042556449770927,-0.019165897741913795
1761131760194132700,0.8551328125,-0.0071013085544109344,0.013820826075971127,-0.01366810966283083
1761131760204132600,0.865132568359375,0.0020616701804101467,0.010766499675810337,-0.000839939690195024
1761131760214132700,0.8751328125,0.007559457328170538,0.007712173741310835,0.01687515154480934
1761131760224132900,0.8851328125,0.002672535367310047,0.008323038928210735,0.022372938692569733
1761131760234132700,0.8951328125,-0.004046982154250145,0.01687515154480934,0.021151209250092506
1761131760244131800,0.9051318359375,-0.007712173741310835,0.02298380434513092,0.014431691728532314
1761131760254132000,0.915132080078125,-0.006490443367511034,0.02298380434513092,0.0034361169673502445
1761131760264131800,0.9251318359375,-0.00038179077091626823,0.015653422102332115,-0.010002918541431427
1761131760274132000,0.935132080078125,-0.00038179077091626823,0.0071013085544109344,-0.030772335827350616
1761131760284131800,0.9451318359375,-0.00038179077091626823,0.010155634954571724,-0.03627012297511101
1761131760294132000,0.955132080078125,0.0014508049935102463,0.015653422102332115,-0.03260493278503418
1761131760304131800,0.9651318359375,0.00022907447419129312,0.02298380434513092,-0.021609358489513397
1761131760314132000,0.975132080078125,0.004505131393671036,0.03214678168296814,-0.0032834007870405912
1761131760324131800,0.9851318359375,0.008170322515070438,0.03275764733552933,0.015653422102332115
1761131760334132000,0.995132080078125,0.008170322515070438,0.023594669997692108,0.027870727702975273
1761131760344132600,1.005132568359375,0.00939205288887024,0.011377365328371525,0.03153591975569725
1761131760354132700,1.0151328125,0.0069485921412706375,0.0034361169673502445,0.01992947794497013
1761131760364132900,1.0251328125,0.0020616701804101467,0.004657847341150045,-0.0032834007870405912
1761131760374132700,1.0351328125,-0.0009926559869199991,0.012599095702171326,-0.02955060638487339
1761131760384132900,1.0451328125,-0.0016035212902352214,0.01687515154480934,-0.04421137273311615
1761131760394132700,1.0551328125,0.002672535367310047,0.01687515154480934,-0.03565925732254982
1761131760404132900,1.0651328125,0.004505131393671036,0.013820826075971127,-0.01366810966283083
1761131760414132700,1.0751328125,0.0014508049935102463,0.014431691728532314,0.0071013085544109344
1761131760424132900,1.0851328125,0.00022907447419129312,0.018707748502492905,0.022372938692569733
1761131760434132700,1.0951328125,0.00022907447419129312,0.021762074902653694,0.029703322798013687
1761131760444131800,1.1051318359375,0.0014508049935102463,0.01992947794497013,0.024816401302814484
1761131760454132000,1.115132080078125,-0.0016035212902352214,0.01687515154480934,0.010155634954571724
1761131760464132000,1.125132080078125,-0.0016035212902352214,0.016264287754893303,-0.0038942659739404917
1761131760474132200,1.13513232421875,0.002672535367310047,0.015653422102332115,-0.00939205288887024
1761131760484132000,1.145132080078125,0.0032834007870405912,0.018707748502492905,-0.00939205288887024
1761131760494132200,1.15513232421875,0.000839939690195024,0.021151209250092506,-0.008170322515070438
1761131760504132000,1.165132080078125,-0.0009926559869199991,0.024205535650253296,0.0022143865935504436
1761131760514132200,1.17513232421875,0.00022907447419129312,0.02054034359753132,0.014431691728532314
1761131760524132000,1.185132080078125,-0.00038179077091626823,0.012599095702171326,0.01687515154480934
1761131760534132200,1.19513232421875,-0.00038179077091626823,0.011377365328371525,0.010155634954571724
1761131760544133000,1.205133056640625,-0.0022143865935504436,0.007712173741310835,-0.0014508049935102463
1761131760554133000,1.215133056640625,-0.0034361169673502445,0.0071013085544109344,-0.01366810966283083
1761131760564133000,1.225133056640625,-0.006490443367511034,0.011377365328371525,-0.022831087931990623
1761131760574133000,1.235133056640625,-0.005879578180611134,0.018707748502492905,-0.030772335827350616
1761131760584133000,1.245133056640625,-0.004657847341150045,0.021151209250092506,-0.024052819237113
1761131760594133000,1.255133056640625,-0.004657847341150045,0.015042556449770927,-0.005115996580570936
1761131760604133000,1.265133056640625,-0.005879578180611134,0.010766499675810337,0.010766499675810337
1761131760614133000,1.275133056640625,-0.010766499675810337,0.010766499675810337,0.02054034359753132
1761131760624133000,1.285133056640625,-0.015653422102332115,0.008933904580771923,0.012599095702171326
1761131760634133000,1.295133056640625,-0.01687515154480934,0.006490443367511034,-0.00022907447419129312
1761131760644132000,1.305132080078125,-0.015042556449770927,0.0071013085544109344,-0.017333300784230232
1761131760654132200,1.31513232421875,-0.014431691728532314,0.013820826075971127,-0.02955060638487339
1761131760664132000,1.325132080078125,-0.013209961354732513,0.021762074902653694,-0.02955060638487339
1761131760674132200,1.33513232421875,-0.014431691728532314,0.023594669997692108,-0.014278975315392017
1761131760684132000,1.345132080078125,-0.013820826075971127,0.025427265092730522,0.008933904580771923
1761131760694132000,1.355132080078125,-0.013209961354732513,0.025427265092730522,0.03214678168296814
1761131760704132000,1.365132080078125,-0.014431691728532314,0.02603813074529171,0.051083605736494064
1761131760714132000,1.375132080078125,-0.01992947794497013,0.02298380434513092,0.05535966157913208
1761131760724132000,1.385132080078125,-0.022372938692569733,0.018096882849931717,0.04680754989385605
1761131760734132000,1.395132080078125,-0.018707748502492905,0.014431691728532314,0.02848159149289131
1761131760744132900,1.4051328125,-0.011988230049610138,0.012599095702171326,-0.011835514567792416
1761131760754133000,1.415133056640625,-0.004046982154250145,0.011377365328371525,-0.02955060638487339
1761131760764132600,1.425132568359375,-0.0034361169673502445,0.0022143865935504436,-0.039935316890478134
1761131760774132700,1.4351328125,-0.009544769302010536,-0.002672535367310047,-0.04237877577543259
1761131760784132600,1.445132568359375,-0.01687515154480934,-0.000839939690195024,-0.039935316890478134
1761131760794133000,1.455133056640625,-0.021762074902653694,0.010766499675810337,-0.028328875079751015
1761131760804133000,1.465133056640625,-0.02298380434513092,0.019318614155054092,-0.01366810966283083
1761131760814133000,1.475133056640625,-0.023594669997692108,0.021762074902653694,-0.000839939690195024
1761131760824133000,1.485133056640625,-0.01748601719737053,0.01992947794497013,0.008323038928210735
1761131760834133000,1.495133056640625,-0.011988230049610138,0.015653422102332115,0.015653422102332115
1761131760844132400,1.50513232421875,-0.011988230049610138,0.013209961354732513,0.013820826075971127
1761131760854132200,1.51513232421875,-0.010155634954571724,0.013209961354732513,0.006490443367511034
1761131760864132000,1.525132080078125,-0.011988230049610138,0.01687515154480934,-0.005115996580570936
1761131760874132200,1.53513232421875,-0.013820826075971127,0.018096882849931717,-0.014278975315392017
1761131760884132000,1.545132080078125,-0.016264287754893303,0.02054034359753132,-0.016722436994314194
1761131760894132200,1.55513232421875,-0.019318614155054092,0.02054034359753132,-0.016722436994314194
1761131760904132000,1.565132080078125,-0.024816401302814484,0.02298380434513092,-0.01794416643679142
1761131760917590500,1.578590576171875,-0.02848159149289131,0.02298380434513092,-0.019776761531829834
1761131760927590400,1.58859033203125,-0.0290924571454525,0.015042556449770927,-0.024052819237113
1761131760937590500,1.598590576171875,-0.02298380434513092,-0.00022907447419129312,-0.031383201479911804
1761131760947591400,1.60859130859375,-0.006490443367511034,-0.002672535367310047,-0.033826664090156555
1761131760957591300,1.61859130859375,0.00939205288887024,0.008323038928210735,-0.030772335827350616
1761131760967591400,1.62859130859375,0.02099849283695221,0.013209961354732513,-0.021609358489513397
1761131760977591300,1.63859130859375,0.015500705689191818,0.013209961354732513,-0.010002918541431427
1761131760987591400,1.64859130859375,0.0038942659739404917,0.010155634954571724,-0.006337726954370737
1761131760997591600,1.658591552734375,-0.0022143865935504436,0.005268712528049946,-0.006337726954370737
1761131761007591400,1.66859130859375,-0.0071013085544109344,0.016264287754893303,-0.008170322515070438
1761131761017591300,1.67859130859375,-0.005268712528049946,0.02054034359753132,-0.014278975315392017
1761131761027591400,1.68859130859375,-0.007712173741310835,0.01687515154480934,-0.017333300784230232
1761131761037591300,1.69859130859375,-0.010155634954571724,0.007712173741310835,-0.014278975315392017
1761131761047590700,1.708590576171875,-0.007712173741310835,-0.00022907447419129312,-0.008170322515070438
1761131761057590500,1.718590576171875,-0.0009926559869199991,0.0009926559869199991,-0.008170322515070438
1761131761067590700,1.728590576171875,0.0020616701804101467,0.0022143865935504436,-0.011835514567792416
1761131761077590500,1.738590576171875,0.005115996580570936,0.0022143865935504436,-0.01061378326267004
1761131761087590700,1.748590576171875,0.010002918541431427,0.005879578180611134,-0.005115996580570936
1761131761097590300,1.75859033203125,0.011835514567792416,0.008323038928210735,0.002825251780450344
1761131761107590100,1.768590087890625,0.013057244941592216,0.008933904580771923,0.008933904580771923
1761131761117590300,1.77859033203125,0.00939205288887024,0.007712173741310835,0.01748601719737053
1761131761127590100,1.788590087890625,0.005726861767470837,0.0034361169673502445,0.021151209250092506
1761131761137590300,1.79859033203125,0.002672535367310047,-0.0014508049935102463,0.02054034359753132
1761131761147591000,1.8085908203125,0.0014508049935102463,-0.002672535367310047,0.013820826075971127
1761131761157591000,1.818591064453125,0.00022907447419129312,-0.002672535367310047,0.006490443367511034
1761131761167591200,1.828591064453125,0.0014508049935102463,-0.00022907447419129312,-0.000839939690195024
1761131761177591000,1.838591064453125,0.0038942659739404917,0.0016035212902352214,-0.006337726954370737
1761131761187591200,1.848591064453125,0.0014508049935102463,0.005268712528049946,-0.008170322515070438
1761131761197591000,1.858591064453125,0.0038942659739404917,0.006490443367511034,-0.00939205288887024
1761131761207591200,1.868591064453125,0.0038942659739404917,0.004046982154250145,-0.008170322515070438
1761131761217591000,1.878591064453125,0.005726861767470837,-0.000839939690195024,-0.004505131393671036
1761131761227591200,1.888591064453125,0.011835514567792416,-0.0038942659739404917,-0.0032834007870405912
1761131761237591000,1.898591064453125,0.01366810966283083,-0.005115996580570936,-0.004505131393671036
1761131761247590400,1.90859033203125,0.012446379289031029,-0.0069485921412706375,-0.010002918541431427
1761131761257590300,1.91859033203125,0.005726861767470837,-0.006337726954370737,-0.018555032089352608
1761131761267590100,1.928590087890625,-0.0016035212902352214,-0.002672535367310047,-0.025274548679590225
1761131761277590300,1.93859033203125,-0.002825251780450344,-0.0032834007870405912,-0.03260493278503418
1761131761287590100,1.948590087890625,-0.0009926559869199991,-0.0020616701804101467,-0.03260493278503418
1761131761297590300,1.95859033203125,0.00022907447419129312,-0.0020616701804101467,-0.025885414332151413
1761131761307590100,1.968590087890625,0.0038942659739404917,-0.01061378326267004,-0.014278975315392017
1761131761317590300,1.97859033203125,0.0014508049935102463,-0.017333300784230232,-0.007559457328170538
1761131761327590400,1.98859033203125,-0.0022143865935504436,-0.014278975315392017,-0.0038942659739404917
1761131761337590300,1.99859033203125,0.00022907447419129312,-0.007559457328170538,-0.004505131393671036
1761131761347591200,2.008591064453125,0.004505131393671036,-0.0032834007870405912,-0.008781188167631626
1761131761357591000,2.018591064453125,0.005115996580570936,-0.0020616701804101467,-0.005115996580570936
1761131761367591200,2.028591064453125,0.0069485921412706375,-0.0032834007870405912,0.006490443367511034
1761131761377591000,2.038591064453125,0.005726861767470837,-0.002672535367310047,0.01992947794497013
1761131761387591200,2.048591064453125,0.0014508049935102463,0.004046982154250145,0.0339793786406517
1761131761397591000,2.058591064453125,0.0014508049935102463,0.010155634954571724,0.035811975598335266
1761131761407591200,2.068591064453125,-0.006490443367511034,-0.006337726954370737,0.035811975598335266
1761131761417591000,2.078591064453125,-0.005879578180611134,-0.024663684889674187,0.018707748502492905
1761131761427591200,2.088591064453125,-0.0022143865935504436,-0.03321579843759537,-0.01366810966283083
1761131761437591000,2.098591064453125,0.0014508049935102463,-0.024663684889674187,-0.06131559982895851
1761131761447590100,2.108590087890625,0.006337726954370737,-0.01794416643679142,-0.07414376735687256
1761131761457590300,2.11859033203125,0.0069485921412706375,-0.014278975315392017,-0.06742425262928009
1761131761467590100,2.128590087890625,-0.0009926559869199991,-0.012446379289031029,-0.04604396969079971
1761131761477590300,2.13859033203125,-0.006490443367511034,-0.011835514567792416,-0.01794416643679142
1761131761487590100,2.148590087890625,-0.011377365328371525,-0.00939205288887024,0.006490443367511034
1761131761497590300,2.15859033203125,-0.009544769302010536,-0.01061378326267004,0.022372938692569733
1761131761507590100,2.168590087890625,-0.0022143865935504436,-0.01488984003663063,0.027870727702975273
1761131761517590000,2.178590087890625,0.002672535367310047,-0.016111571341753006,0.02298380434513092
1761131761527590100,2.188590087890625,0.007559457328170538,-0.016111571341753006,0.009544769302010536
1761131761537590300,2.19859033203125,0.010002918541431427,-0.00939205288887024,-0.0032834007870405912
1761131761547591000,2.2085908203125,0.007559457328170538,-0.0020616701804101467,-0.008781188167631626
1761131761557591000,2.218591064453125,0.005726861767470837,-0.0020616701804101467,-0.002672535367310047
1761131761567591200,2.228591064453125,0.00022907447419129312,-0.008170322515070438,0.010155634954571724
1761131761577591000,2.238591064453125,-0.004046982154250145,-0.019165897741913795,0.01992947794497013
1761131761587591200,2.248591064453125,-0.01687515154480934,-0.019776761531829834,0.01992947794497013
1761131761597591000,2.258591064453125,-0.010766499675810337,-0.02955060638487339,0.01748601719737053
1761131761607591200,2.268591064453125,-0.004046982154250145,-0.018555032089352608,0.009544769302010536
1761131761617591000,2.278591064453125,0.005726861767470837,-0.005726861767470837,0.004046982154250145
1761131761627591200,2.288591064453125,0.01366810966283083,0.0016035212902352214,0.011988230049610138
1761131761637591000,2.298591064453125,0.01488984003663063,-0.0038942659739404917,0.029703322798013687
1761131761647590100,2.308590087890625,0.014278975315392017,-0.016111571341753006,0.0443640872836113
1761131761657590300,2.31859033203125,0.011224648915231228,-0.028328875079751015,0.044974952936172485
1761131761667590100,2.328590087890625,0.0069485921412706375,-0.024663684889674187,0.005268712528049946
1761131761677590300,2.33859033203125,0.005726861767470837,-0.01366810966283083,-0.022831087931990623
1761131761687590100,2.348590087890625,0.007559457328170538,-0.005726861767470837,-0.03627012297511101
1761131761697590300,2.35859033203125,0.007559457328170538,-0.0014508049935102463,-0.028328875079751015
1761131761707590100,2.368590087890625,0.006337726954370737,-0.0014508049935102463,-0.0032834007870405912
1761131761717590000,2.378590087890625,0.004505131393671036,-0.0032834007870405912,0.02848159149289131
1761131761727590000,2.38858984375,0.005726861767470837,-0.008170322515070438,0.051083605736494064
1761131761737590000,2.398590087890625,0.006337726954370737,-0.01366810966283083,0.056581392884254456
1761131761747591000,2.4085908203125,0.011835514567792416,-0.01366810966283083,0.04558581858873367
1761131761757590800,2.4185908203125,0.01366810966283083,-0.0069485921412706375,0.023594669997692108
1761131761767591000,2.4285908203125,0.017333300784230232,0.0016035212902352214,0.002825251780450344
1761131761777590800,2.4385908203125,0.017333300784230232,0.008933904580771923,-0.0069485921412706375
1761131761787591000,2.4485908203125,0.01794416643679142,0.007712173741310835,-0.004505131393671036
1761131761797590800,2.4585908203125,0.016722436994314194,-0.00022907447419129312,0.0016035212902352214
1761131761807591000,2.4685908203125,0.010002918541431427,-0.005115996580570936,0.007712173741310835
1761131761817590800,2.4785908203125,0.004505131393671036,-0.010002918541431427,0.0022143865935504436
1761131761827591000,2.4885908203125,0.0038942659739404917,-0.00939205288887024,-0.005726861767470837
1761131761837590800,2.4985908203125,0.0038942659739404917,-0.005115996580570936,-0.016111571341753006
1761131761847590100,2.508590087890625,0.0020616701804101467,0.002825251780450344,-0.021609358489513397
1761131761857590000,2.518590087890625,0.008170322515070438,0.008323038928210735,-0.01794416643679142
1761131761867590000,2.52858984375,0.014278975315392017,0.006490443367511034,-0.01061378326267004
1761131761877590000,2.538590087890625,0.016111571341753006,0.0009926559869199991,-0.0020616701804101467
1761131761887590000,2.54858984375,0.014278975315392017,-0.005115996580570936,-0.005726861767470837
1761131761897590000,2.558590087890625,0.00939205288887024,-0.010002918541431427,-0.02710714563727379
1761131761907590000,2.56858984375,0.005726861767470837,-0.0038942659739404917,-0.04421137273311615
1761131761917590000,2.578590087890625,0.002672535367310047,0.0034361169673502445,-0.05337435007095337
1761131761927590000,2.58858984375,0.002672535367310047,0.006490443367511034,-0.051541756838560104
1761131761937590000,2.598590087890625,0.005115996580570936,0.004046982154250145,-0.042989641427993774
1761131761947591000,2.6085908203125,0.008170322515070438,0.0034361169673502445,-0.03504839166998863
1761131761957590800,2.6185908203125,0.006337726954370737,0.004046982154250145,-0.030772335827350616
1761131761967591000,2.6285908203125,0.005115996580570936,0.006490443367511034,-0.02955060638487339
1761131761977590800,2.6385908203125,0.0038942659739404917,0.005268712528049946,-0.0264962799847126
1761131761987591000,2.6485908203125,0.0038942659739404917,0.005268712528049946,-0.024052819237113
1761131761997590800,2.6585908203125,0.004505131393671036,0.009544769302010536,-0.02099849283695221
1761131762007591000,2.6685908203125,0.0038942659739404917,0.011377365328371525,-0.01488984003663063
1761131762017590800,2.6785908203125,-0.00038179077091626823,0.005268712528049946,-0.008781188167631626
1761131762027591200,2.688591064453125,-0.00038179077091626823,0.0016035212902352214,-0.006337726954370737
1761131762037591000,2.698591064453125,0.005726861767470837,-0.0020616701804101467,-0.012446379289031029
1761131762047590400,2.70859033203125,0.008170322515070438,-0.005726861767470837,-0.024663684889674187
1761131762057590300,2.71859033203125,0.00939205288887024,-0.0069485921412706375,-0.03443752974271774
1761131762067590400,2.72859033203125,0.01061378326267004,-0.01061378326267004,-0.039935316890478134
1761131762077590300,2.73859033203125,0.005726861767470837,-0.011224648915231228,-0.036880988627672195
1761131762087590400,2.74859033203125,-0.00038179077091626823,-0.006337726954370737,-0.0264962799847126
1761131762097590300,2.75859033203125,-0.004657847341150045,0.00038179077091626823,-0.012446379289031029
1761131762107590400,2.76859033203125,-0.009544769302010536,0.005879578180611134,0.0034361169673502445
1761131762117590300,2.77859033203125,-0.013820826075971127,0.005879578180611134,0.013820826075971127
1761131762127590400,2.78859033203125,-0.013209961354732513,0.004657847341150045,0.023594669997692108
1761131762137590300,2.79859033203125,-0.0009926559869199991,-0.0032834007870405912,0.0290924571454525
1761131762147591200,2.808591064453125,0.0032834007870405912,-0.0014508049935102463,0.027870727702975273
1761131762157591000,2.818591064453125,0.005726861767470837,0.0022143865935504436,0.021151209250092506
1761131762167591200,2.828591064453125,0.002672535367310047,0.0034361169673502445,0.013209961354732513
1761131762177591000,2.838591064453125,0.0014508049935102463,0.0022143865935504436,0.0009926559869199991
1761131762187591200,2.848591064453125,-0.0016035212902352214,0.0022143865935504436,-0.011224648915231228
1761131762197591000,2.858591064453125,-0.0016035212902352214,-0.0020616701804101467,-0.01488984003663063
1761131762207591200,2.868591064453125,-0.0016035212902352214,-0.013057244941592216,-0.011835514567792416
1761131762217591300,2.87859130859375,-0.008323038928210735,-0.016111571341753006,-0.005726861767470837
1761131762227591200,2.888591064453125,-0.012599095702171326,-0.00939205288887024,0.004657847341150045
1761131762237591000,2.898591064453125,-0.0071013085544109344,0.00038179077091626823,0.02054034359753132
1761131762247590700,2.908590576171875,0.000839939690195024,0.005879578180611134,0.03825543448328972
1761131762257590500,2.918590576171875,0.0038942659739404917,0.006490443367511034,0.0492510087788105
1761131762267590700,2.928590576171875,0.007559457328170538,0.00038179077091626823,0.051083605736494064
1761131762277590500,2.938590576171875,0.008781188167631626,-0.008170322515070438,0.04069889709353447
1761131762287590700,2.948590576171875,0.005726861767470837,-0.01366810966283083,0.023594669997692108
1761131762297590500,2.958590576171875,0.002672535367310047,-0.012446379289031029,0.002825251780450344
1761131762307590700,2.968590576171875,-0.002825251780450344,-0.010002918541431427,-0.011224648915231228
1761131762317590500,2.978590576171875,-0.006490443367511034,-0.008781188167631626,-0.015500705689191818
1761131762327590700,2.988590576171875,-0.009544769302010536,-0.006337726954370737,-0.00939205288887024
1761131762337590500,2.998590576171875,-0.011988230049610138,-0.0032834007870405912,0.009544769302010536
1761131762347591400,3.00859130859375,-0.008933904580771923,-0.002672535367310047,0.03153591975569725
1761131762357591300,3.01859130859375,-0.0071013085544109344,-0.002672535367310047,0.04680754989385605
1761131762367591400,3.02859130859375,-0.005879578180611134,0.0016035212902352214,0.05597052723169327
1761131762377591300,3.03859130859375,-0.0016035212902352214,0.0016035212902352214,0.051083605736494064
1761131762387591400,3.04859130859375,0.0020616701804101467,-0.00022907447419129312,0.041920628398656845
1761131762397591300,3.05859130859375,0.002672535367310047,-0.0032834007870405912,0.03459024429321289
1761131762407591400,3.06859130859375,0.0020616701804101467,-0.00022907447419129312,0.0290924571454525
1761131762417591300,3.07859130859375,-0.0009926559869199991,0.0009926559869199991,0.02603813074529171
1761131762427591400,3.08859130859375,-0.005268712528049946,-0.0014508049935102463,0.022372938692569733
1761131762437591300,3.09859130859375,-0.008933904580771923,-0.002672535367310047,0.02054034359753132
1761131762447590400,3.10859033203125,-0.010155634954571724,-0.005726861767470837,0.016264287754893303
1761131762457590500,3.118590576171875,-0.0034361169673502445,-0.007559457328170538,0.011377365328371525
1761131762467590400,3.12859033203125,0.000839939690195024,-0.0069485921412706375,0.013820826075971127
1761131762477590500,3.138590576171875,0.005115996580570936,-0.005115996580570936,0.01748601719737053
1761131762487590400,3.14859033203125,0.005115996580570936,-0.00022907447419129312,0.013820826075971127
1761131762497590500,3.158590576171875,0.002672535367310047,0.0016035212902352214,0.010155634954571724
1761131762507590400,3.16859033203125,0.0014508049935102463,-0.004505131393671036,0.0034361169673502445
1761131762517590500,3.178590576171875,0.000839939690195024,-0.011835514567792416,-0.008781188167631626
1761131762527590400,3.18859033203125,0.002672535367310047,-0.00939205288887024,-0.014278975315392017
1761131762537590500,3.198590576171875,0.0032834007870405912,-0.005115996580570936,-0.01794416643679142
1761131762547591000,3.2085908203125,-0.0009926559869199991,-0.000839939690195024,-0.019776761531829834
1761131762557591000,3.218591064453125,-0.002825251780450344,0.0016035212902352214,-0.015500705689191818
1761131762567591000,3.2285908203125,-0.006490443367511034,0.004657847341150045,-0.011835514567792416
1761131762577591000,3.238591064453125,-0.005879578180611134,0.009544769302010536,-0.005726861767470837
1761131762587591000,3.2485908203125,0.0020616701804101467,0.011377365328371525,-0.0020616701804101467
1761131762597591000,3.258591064453125,0.00939205288887024,0.004046982154250145,-0.004505131393671036
1761131762607591000,3.2685908203125,0.011835514567792416,0.006490443367511034,-0.0069485921412706375
1761131762617591000,3.278591064453125,0.013057244941592216,0.010155634954571724,-0.008781188167631626
1761131762627591000,3.2885908203125,0.01061378326267004,0.011988230049610138,-0.011224648915231228
1761131762637591000,3.298591064453125,0.004505131393671036,0.0071013085544109344,-0.011835514567792416
1761131762647590100,3.308590087890625,0.0020616701804101467,0.0022143865935504436,-0.011835514567792416
1761131762657590000,3.318590087890625,0.006337726954370737,-0.000839939690195024,-0.016111571341753006
1761131762667590100,3.328590087890625,0.00939205288887024,-0.0032834007870405912,-0.025274548679590225
1761131762677590000,3.338590087890625,0.007559457328170538,-0.0032834007870405912,-0.039324451237916946
1761131762687590100,3.348590087890625,0.0069485921412706375,-0.005115996580570936,-0.051541756838560104
1761131762697590000,3.358590087890625,0.002672535367310047,-0.004505131393671036,-0.057039543986320496
1761131762707590100,3.368590087890625,-0.0034361169673502445,-0.00022907447419129312,-0.05642867833375931
1761131762717590000,3.378590087890625,-0.007712173741310835,0.0071013085544109344,-0.0466548316180706
1761131762727590100,3.388590087890625,-0.008323038928210735,0.007712173741310835,-0.03443752974271774
1761131762737590000,3.398590087890625,-0.0034361169673502445,0.008323038928210735,-0.02038762718439102
1761131762747591000,3.4085908203125,0.0032834007870405912,0.014431691728532314,-0.013057244941592216
1761131762757591000,3.418591064453125,0.011835514567792416,0.02054034359753132,-0.01366810966283083
1761131762767591000,3.4285908203125,0.018555032089352608,0.02054034359753132,-0.012446379289031029
1761131762777591000,3.438591064453125,0.017333300784230232,0.013820826075971127,-0.015500705689191818
1761131762787591000,3.4485908203125,0.01366810966283083,0.004657847341150045,-0.019776761531829834
1761131762797591000,3.458591064453125,0.0032834007870405912,-0.0014508049935102463,-0.027718011289834976
1761131762807591200,3.468591064453125,-0.004657847341150045,-0.005115996580570936,-0.039324451237916946
1761131762817591000,3.478591064453125,-0.004657847341150045,-0.004505131393671036,-0.04482223838567734
1761131762827591200,3.488591064453125,-0.005879578180611134,-0.0069485921412706375,-0.04360050708055496
1761131762837591000,3.498591064453125,-0.008933904580771923,-0.010002918541431427,-0.03260493278503418
1761131762847590100,3.508590087890625,-0.005268712528049946,-0.00939205288887024,-0.016111571341753006
1761131762857590300,3.51859033203125,-0.0016035212902352214,-0.004505131393671036,-0.005115996580570936
1761131762867590100,3.528590087890625,-0.00038179077091626823,0.0022143865935504436,0.005268712528049946
1761131762877590300,3.53859033203125,0.002672535367310047,0.006490443367511034,0.012599095702171326
1761131762887590100,3.548590087890625,0.007559457328170538,0.007712173741310835,0.011377365328371525
1761131762897590300,3.55859033203125,0.01061378326267004,0.005268712528049946,0.004046982154250145
1761131762907590100,3.568590087890625,0.00939205288887024,-0.00022907447419129312,-0.008170322515070438
1761131762917590300,3.57859033203125,0.0069485921412706375,-0.002672535367310047,-0.022220224142074585
1761131762927590100,3.588590087890625,-0.00038179077091626823,-0.005726861767470837,-0.03260493278503418
1761131762937590300,3.59859033203125,-0.008323038928210735,-0.006337726954370737,-0.039324451237916946
1761131762947591000,3.6085908203125,-0.013209961354732513,-0.005726861767470837,-0.03871358558535576
1761131762957591000,3.618591064453125,-0.011988230049610138,-0.006337726954370737,-0.030772335827350616
1761131762967591200,3.628591064453125,-0.008323038928210735,-0.0032834007870405912,-0.014278975315392017
1761131762977591000,3.638591064453125,-0.006490443367511034,0.00038179077091626823,0.002825251780450344
1761131762987591200,3.648591064453125,-0.005268712528049946,0.0016035212902352214,0.01748601719737053
1761131762997591000,3.658591064453125,-0.005268712528049946,0.002825251780450344,0.025427265092730522
1761131763007591200,3.668591064453125,-0.005879578180611134,0.0009926559869199991,0.026648996397852898
1761131763017591000,3.678591064453125,-0.004046982154250145,0.00038179077091626823,0.018096882849931717
1761131763027591200,3.688591064453125,-0.005268712528049946,-0.002672535367310047,0.008933904580771923
1761131763037591000,3.698591064453125,-0.005879578180611134,-0.0020616701804101467,0.005879578180611134
1761131763047590100,3.708590087890625,-0.008933904580771923,0.0009926559869199991,0.009544769302010536
1761131763057590300,3.71859033203125,-0.013820826075971127,-0.0020616701804101467,0.019318614155054092
1761131763067590100,3.728590087890625,-0.01687515154480934,-0.004505131393671036,0.022372938692569733
1761131763077590300,3.73859033203125,-0.015653422102332115,-0.006337726954370737,0.022372938692569733
1761131763087590100,3.748590087890625,-0.008323038928210735,-0.008781188167631626,0.01992947794497013
1761131763097590300,3.75859033203125,-0.004046982154250145,-0.00939205288887024,0.01687515154480934
1761131763107590100,3.768590087890625,-0.005268712528049946,-0.0069485921412706375,0.013209961354732513
1761131763117590300,3.77859033203125,-0.004657847341150045,-0.002672535367310047,0.009544769302010536
1761131763127590100,3.788590087890625,-0.005268712528049946,0.0009926559869199991,0.010155634954571724
1761131763137590300,3.79859033203125,-0.005268712528049946,0.0034361169673502445,0.011988230049610138
1761131763147591200,3.808591064453125,-0.005268712528049946,0.0034361169673502445,0.012599095702171326
1761131763157591000,3.818591064453125,-0.008323038928210735,0.0009926559869199991,0.008933904580771923
1761131763167591200,3.828591064453125,-0.008933904580771923,-0.0014508049935102463,0.0016035212902352214
1761131763177591000,3.838591064453125,-0.007712173741310835,-0.0020616701804101467,-0.0069485921412706375
1761131763187591200,3.848591064453125,-0.006490443367511034,-0.00022907447419129312,-0.011224648915231228
1761131763197591000,3.858591064453125,-0.0022143865935504436,-0.0020616701804101467,-0.008170322515070438
1761131763207591200,3.868591064453125,0.00022907447419129312,-0.006337726954370737,0.0016035212902352214
1761131763217591000,3.878591064453125,0.0032834007870405912,0.0016035212902352214,0.011377365328371525
1761131763227591200,3.888591064453125,0.006337726954370737,0.013209961354732513,0.021762074902653694
1761131763237591000,3.898591064453125,0.005115996580570936,0.011988230049610138,0.030925052240490913
1761131763247590400,3.90859033203125,0.000839939690195024,0.0022143865935504436,0.03764457255601883
1761131763257590300,3.91859033203125,0.0020616701804101467,-0.00939205288887024,0.039477165788412094
1761131763267590100,3.928590087890625,0.008170322515070438,-0.016111571341753006,0.03459024429321289
1761131763277590300,3.93859033203125,0.013057244941592216,-0.01794416643679142,0.018096882849931717
1761131763287590100,3.948590087890625,0.011835514567792416,-0.01488984003663063,0.00038179077091626823
1761131763297590300,3.95859033203125,0.011835514567792416,-0.011835514567792416,-0.018555032089352608
1761131763307590400,3.96859033203125,0.011224648915231228,-0.01061378326267004,-0.02344195358455181
1761131763317590300,3.97859033203125,0.008170322515070438,-0.010002918541431427,-0.022220224142074585
1761131763327590400,3.98859033203125,0.0032834007870405912,-0.011224648915231228,-0.016111571341753006
1761131763337590300,3.99859033203125,0.0032834007870405912,-0.011224648915231228,-0.010002918541431427
1761131763347591200,4.008591064453125,0.004505131393671036,-0.013057244941592216,-0.0032834007870405912
1761131763357591000,4.018591064453125,0.01488984003663063,-0.01061378326267004,0.006490443367511034
1761131763367591200,4.028591064453125,0.02099849283695221,-0.0069485921412706375,0.019318614155054092
1761131763377591000,4.038591064453125,0.022220224142074585,-0.0014508049935102463,0.03275764733552933
1761131763387591200,4.048591064453125,0.02038762718439102,-0.00022907447419129312,0.04314235970377922
1761131763397591000,4.058591064453125,0.018555032089352608,-0.0014508049935102463,0.04558581858873367
1761131763407591200,4.068591064453125,0.01488984003663063,-0.0038942659739404917,0.04008803144097328
1761131763417591000,4.078591064453125,0.01488984003663063,-0.008170322515070438,0.027259862050414085
1761131763427591200,4.088591064453125,0.016722436994314194,-0.008781188167631626,0.010766499675810337
1761131763437591000,4.098591064453125,0.015500705689191818,-0.011224648915231228,-0.006337726954370737
1761131763447590100,4.108590087890625,0.012446379289031029,-0.01366810966283083,-0.01366810966283083
1761131763457590300,4.11859033203125,0.011224648915231228,-0.014278975315392017,-0.012446379289031029
1761131763467590100,4.128590087890625,0.012446379289031029,-0.01061378326267004,-0.0014508049935102463
1761131763477590300,4.13859033203125,0.017333300784230232,-0.0032834007870405912,0.016264287754893303
1761131763487590100,4.148590087890625,0.025885414332151413,-0.000839939690195024,0.035811975598335266
1761131763497590300,4.15859033203125,0.028328875079751015,-0.004505131393671036,0.0443640872836113
1761131763507590100,4.168590087890625,0.025885414332151413,-0.011835514567792416,0.04069889709353447
1761131763517590300,4.17859033203125,0.022220224142074585,-0.019776761531829834,0.025427265092730522
1761131763527590100,4.188590087890625,0.014278975315392017,-0.024052819237113,-0.006337726954370737
1761131763537590300,4.19859033203125,0.013057244941592216,-0.021609358489513397,-0.021609358489513397
1761131763547591000,4.2085908203125,0.011835514567792416,-0.01794416643679142,-0.0264962799847126
1761131763557591000,4.218591064453125,0.00939205288887024,-0.01366810966283083,-0.02038762718439102
1761131763567591200,4.228591064453125,0.008170322515070438,-0.008781188167631626,-0.007559457328170538
1761131763577591000,4.238591064453125,0.01061378326267004,-0.010002918541431427,0.011377365328371525
1761131763587591200,4.248591064453125,0.01366810966283083,-0.010002918541431427,0.027870727702975273
1761131763597591000,4.258591064453125,0.01366810966283083,-0.008781188167631626,0.03520110994577408
1761131763607591000,4.2685908203125,0.011835514567792416,-0.0069485921412706375,0.035811975598335266
1761131763617591000,4.278591064453125,0.012446379289031029,-0.006337726954370737,0.025427265092730522
1761131763627591000,4.2885908203125,0.015500705689191818,-0.006337726954370737,0.011988230049610138
1761131763637591000,4.298591064453125,0.01794416643679142,-0.007559457328170538,-0.00022907447419129312
1761131763647590100,4.308590087890625,0.017333300784230232,-0.008781188167631626,-0.006337726954370737
1761131763657590300,4.31859033203125,0.011224648915231228,-0.012446379289031029,-0.007559457328170538
1761131763667590100,4.328590087890625,0.005726861767470837,-0.013057244941592216,-0.0038942659739404917
1761131763677590300,4.33859033203125,-0.0009926559869199991,-0.01061378326267004,0.0009926559869199991
1761131763687590100,4.348590087890625,-0.0009926559869199991,-0.015500705689191818,0.0022143865935504436
1761131763697590300,4.35859033203125,0.007559457328170538,-0.019776761531829834,0.005879578180611134
1761131763707590100,4.368590087890625,0.008781188167631626,-0.01488984003663063,-0.00022907447419129312
1761131763717590300,4.37859033203125,0.00939205288887024,-0.013057244941592216,-0.007559457328170538
1761131763727590100,4.388590087890625,0.0069485921412706375,-0.013057244941592216,-0.008170322515070438
1761131763737590300,4.39859033203125,0.006337726954370737,-0.012446379289031029,-0.006337726954370737
1761131763747591000,4.4085908203125,0.008781188167631626,-0.011835514567792416,0.0022143865935504436
1761131763757591000,4.418591064453125,0.002672535367310047,-0.006337726954370737,0.007712173741310835
1761131763767591000,4.4285908203125,-0.0009926559869199991,-0.0038942659739404917,0.005268712528049946
1761131763777591000,4.438591064453125,-0.002825251780450344,-0.006337726954370737,-0.000839939690195024
1761131763787591000,4.4485908203125,-0.004657847341150045,-0.007559457328170538,-0.008170322515070438
1761131763797591000,4.458591064453125,-0.005879578180611134,-0.005726861767470837,-0.011224648915231228
1761131763807591200,4.468591064453125,-0.00038179077091626823,-0.0014508049935102463,-0.008170322515070438
1761131763817591000,4.478591064453125,-0.00038179077091626823,0.0022143865935504436,0.0009926559869199991
1761131763827591200,4.488591064453125,-0.005879578180611134,0.0022143865935504436,0.005268712528049946
1761131763837591000,4.498591064453125,-0.010155634954571724,0.0009926559869199991,0.005268712528049946
1761131763847590100,4.508590087890625,-0.013820826075971127,-0.0014508049935102463,-0.0020616701804101467
1761131763857590300,4.51859033203125,-0.01687515154480934,-0.007559457328170538,-0.01061378326267004
1761131763867590100,4.528590087890625,-0.01992947794497013,-0.00939205288887024,-0.019776761531829834
1761131763877590000,4.538590087890625,-0.021762074902653694,-0.005115996580570936,-0.02955060638487339
1761131763887590100,4.548590087890625,-0.021151209250092506,0.004657847341150045,-0.03565925732254982
1761131763897590000,4.558590087890625,-0.02054034359753132,0.009544769302010536,-0.03810271993279457
1761131763907590100,4.568590087890625,-0.01992947794497013,0.010155634954571724,-0.033826664090156555
1761131763917590000,4.578590087890625,-0.023594669997692108,0.002825251780450344,-0.022831087931990623
1761131763927590100,4.588590087890625,-0.027870727702975273,-0.008170322515070438,-0.01366810966283083
1761131763937590000,4.598590087890625,-0.033368512988090515,-0.007559457328170538,-0.011835514567792416
1761131763947591000,4.6085908203125,-0.03764457255601883,0.002825251780450344,-0.019776761531829834
1761131763957591000,4.618591064453125,-0.04130976274609566,0.014431691728532314,-0.027718011289834976
1761131763967591000,4.6285908203125,-0.04008803144097328,0.022372938692569733,-0.02710714563727379
1761131763977591000,4.638591064453125,-0.039477165788412094,0.021151209250092506,-0.016111571341753006
1761131763987591000,4.6485908203125,-0.030925052240490913,0.01687515154480934,0.0022143865935504436
1761131763997591000,4.658591064453125,-0.025427265092730522,0.019318614155054092,0.010766499675810337
1761131764007591000,4.6685908203125,-0.02054034359753132,0.01748601719737053,0.010766499675810337
1761131764017591000,4.678591064453125,-0.022372938692569733,0.014431691728532314,0.004657847341150045
1761131764027591000,4.6885908203125,-0.024205535650253296,0.010766499675810337,-0.012446379289031029
1761131764037591000,4.698591064453125,-0.0290924571454525,0.007712173741310835,-0.031383201479911804
1761131764047590100,4.708590087890625,-0.03275764733552933,0.009544769302010536,-0.04787656292319298
1761131764057590300,4.71859033203125,-0.03825543448328972,0.013820826075971127,-0.04970915988087654
1761131764067590100,4.728590087890625,-0.04069889709353447,0.013209961354732513,-0.036880988627672195
1761131764077590300,4.73859033203125,-0.038866300135850906,0.012599095702171326,-0.016111571341753006
1761131764087590100,4.748590087890625,-0.030314188450574875,0.014431691728532314,0.007712173741310835
1761131764097590300,4.75859033203125,-0.021762074902653694,0.019318614155054092,0.0290924571454525
1761131764107590100,4.768590087890625,-0.01687515154480934,0.021151209250092506,0.035811975598335266
1761131764117590300,4.77859033203125,-0.015653422102332115,0.01687515154480934,0.026648996397852898
1761131764127590100,4.788590087890625,-0.013209961354732513,0.013209961354732513,0.0071013085544109344
1761131764137590300,4.79859033203125,-0.013820826075971127,0.005879578180611134,-0.016722436994314194
1761131764147591000,4.8085908203125,-0.018096882849931717,0.005879578180611134,-0.03810271993279457
1761131764157591000,4.818591064453125,-0.02054034359753132,0.007712173741310835,-0.04604396969079971
1761131764167591200,4.828591064453125,-0.027259862050414085,0.011377365328371525,-0.03871358558535576
1761131764177591000,4.838591064453125,-0.024816401302814484,0.015653422102332115,-0.016111571341753006
1761131764187591200,4.848591064453125,-0.022372938692569733,0.011988230049610138,0.005879578180611134
1761131764197591000,4.858591064453125,-0.021762074902653694,0.011988230049610138,0.01992947794497013
1761131764207591200,4.868591064453125,-0.019318614155054092,0.013209961354732513,0.027870727702975273
1761131764217591000,4.878591064453125,-0.010766499675810337,0.011988230049610138,0.02848159149289131
1761131764227591200,4.888591064453125,-0.010155634954571724,0.009544769302010536,0.02298380434513092
1761131764237591000,4.898591064453125,-0.010766499675810337,0.011377365328371525,0.016264287754893303
1761131764247590400,4.90859033203125,-0.0071013085544109344,0.011377365328371525,0.009544769302010536
1761131764257590300,4.91859033203125,-0.0071013085544109344,0.009544769302010536,0.005879578180611134
1761131764267590100,4.928590087890625,-0.011377365328371525,0.0071013085544109344,-0.00022907447419129312
1761131764277590300,4.93859033203125,-0.011988230049610138,0.0022143865935504436,-0.005726861767470837
1761131764287590100,4.948590087890625,-0.005879578180611134,0.002825251780450344,-0.008170322515070438
1761131764297590300,4.95859033203125,-0.002825251780450344,0.0034361169673502445,-0.0069485921412706375
1761131764307590400,4.96859033203125,-0.00038179077091626823,0.0022143865935504436,-0.002672535367310047
1761131764317590300,4.97859033203125,0.00022907447419129312,0.00038179077091626823,0.0034361169673502445
1761131764327590400,4.98859033203125,0.002672535367310047,-0.0014508049935102463,0.008933904580771923
1761131764337590300,4.99859033203125,0.0069485921412706375,-0.005115996580570936,0.013209961354732513
1761131764347591200,5.008591064453125,0.011835514567792416,-0.011224648915231228,0.012599095702171326
1761131764357591000,5.018591064453125,0.017333300784230232,-0.01488984003663063,0.007712173741310835
1761131764367591200,5.028591064453125,0.019776761531829834,-0.01366810966283083,-0.0032834007870405912
1761131764377591000,5.038591064453125,0.016111571341753006,-0.01061378326267004,-0.011224648915231228
1761131764387591200,5.048591064453125,0.008781188167631626,-0.010002918541431427,-0.015500705689191818
1761131764397591000,5.058591064453125,0.0038942659739404917,-0.011224648915231228,-0.016111571341753006
1761131764407591200,5.068591064453125,0.0020616701804101467,-0.01366810966283083,-0.008781188167631626
1761131764417591000,5.078591064453125,0.0032834007870405912,-0.02038762718439102,-0.0032834007870405912
1761131764427591200,5.088591064453125,-0.00038179077091626823,-0.022831087931990623,-0.004505131393671036
1761131764437591000,5.098591064453125,-0.00038179077091626823,-0.022831087931990623,-0.011224648915231228
1761131764447590100,5.108590087890625,0.0014508049935102463,-0.02344195358455181,-0.017333300784230232
1761131764457590300,5.11859033203125,0.005726861767470837,-0.025274548679590225,-0.024052819237113
1761131764467590100,5.128590087890625,0.0069485921412706375,-0.0264962799847126,-0.028328875079751015
1761131764477590300,5.13859033203125,0.006337726954370737,-0.030772335827350616,-0.03260493278503418
1761131764487590100,5.148590087890625,0.01061378326267004,-0.03443752974271774,-0.03627012297511101
1761131764497590300,5.15859033203125,0.011835514567792416,-0.039935316890478134,-0.04604396969079971
1761131764507590100,5.168590087890625,0.00939205288887024,-0.04482223838567734,-0.0619264654815197
1761131764517590000,5.178590087890625,0.007559457328170538,-0.048487428575754166,-0.08269587904214859
1761131764527590100,5.188590087890625,0.0069485921412706375,-0.054596081376075745,-0.09674578160047531
1761131764537590000,5.198590087890625,0.0038942659739404917,-0.057039543986320496,-0.0973566472530365
1761131764547591000,5.2085908203125,-0.0016035212902352214,-0.05032002553343773,-0.08513934165239334
1761131764557591000,5.218591064453125,-0.0016035212902352214,-0.04482223838567734,-0.06620252132415771
1761131764567591000,5.2285908203125,-0.0034361169673502445,-0.04054617881774902,-0.045433104038238525
1761131764577591000,5.238591064453125,-0.002825251780450344,-0.03871358558535576,-0.03260493278503418
1761131764587591000,5.2485908203125,0.0069485921412706375,-0.03627012297511101,-0.02344195358455181
1761131764597591000,5.258591064453125,0.018555032089352608,-0.039324451237916946,-0.022220224142074585
1761131764607591000,5.2685908203125,0.024052819237113,-0.0417679101228714,-0.02955060638487339
1761131764617591000,5.278591064453125,0.024052819237113,-0.039324451237916946,-0.04237877577543259
1761131764627591000,5.2885908203125,0.024052819237113,-0.0417679101228714,-0.05826127156615257
1761131764637591000,5.298591064453125,0.02038762718439102,-0.0417679101228714,-0.06986771523952484
1761131764647590100,5.308590087890625,0.017333300784230232,-0.04482223838567734,-0.07353290170431137
1761131764657590000,5.318590087890625,0.019776761531829834,-0.048487428575754166,-0.07414376735687256
1761131764667590100,5.328590087890625,0.017333300784230232,-0.04421137273311615,-0.06803511828184128
1761131764677590000,5.338590087890625,0.013057244941592216,-0.04237877577543259,-0.05520694702863693
1761131764687590100,5.348590087890625,0.015500705689191818,-0.039324451237916946,-0.02955060638487339
1761131764697590000,5.358590087890625,0.02038762718439102,-0.03749185428023338,-0.016111571341753006
1761131764707590100,5.368590087890625,0.030161472037434578,-0.03504839166998863,-0.008170322515070438
1761131764717590000,5.378590087890625,0.0417679101228714,-0.03627012297511101,-0.013057244941592216
1761131764727590100,5.388590087890625,0.05276348441839218,-0.04237877577543259,-0.027718011289834976
1761131764737590000,5.398590087890625,0.05948300287127495,-0.0466548316180706,-0.048487428575754166
1761131764747591000,5.4085908203125,0.05642867833375931,-0.04360050708055496,-0.06803511828184128
1761131764757591000,5.418591064453125,0.0466548316180706,-0.03504839166998863,-0.07903069257736206
1761131764767591000,5.4285908203125,0.036880988627672195,-0.02710714563727379,-0.072311170399189
1761131764777591000,5.438591064453125,0.03260493278503418,-0.019776761531829834,-0.04970915988087654
1761131764787591000,5.4485908203125,0.030772335827350616,-0.018555032089352608,-0.02038762718439102
1761131764797591000,5.458591064453125,0.030161472037434578,-0.014278975315392017,0.010766499675810337
1761131764807591000,5.4685908203125,0.02955060638487339,-0.007559457328170538,0.033368512988090515
1761131764817591000,5.478591064453125,0.031383201479911804,-0.002672535367310047,0.04619668424129486
1761131764827591000,5.4885908203125,0.02955060638487339,-0.002672535367310047,0.041920628398656845
1761131764837591000,5.498591064453125,0.025885414332151413,-0.004505131393671036,0.02848159149289131
1761131764847590100,5.508590087890625,0.02099849283695221,-0.010002918541431427,0.011988230049610138
1761131764857590300,5.51859033203125,0.02038762718439102,-0.01061378326267004,-0.0020616701804101467
1761131764867590100,5.528590087890625,0.021609358489513397,-0.00939205288887024,-0.01061378326267004
1761131764877590000,5.538590087890625,0.022220224142074585,-0.0038942659739404917,-0.014278975315392017
1761131764887590100,5.548590087890625,0.021609358489513397,0.002825251780450344,-0.014278975315392017
1761131764897590000,5.558590087890625,0.019165897741913795,0.004657847341150045,-0.010002918541431427
1761131764907590100,5.568590087890625,0.016111571341753006,-0.000839939690195024,-0.0069485921412706375
1761131764917590000,5.578590087890625,0.01794416643679142,-0.005726861767470837,-0.011224648915231228
1761131764927590100,5.588590087890625,0.019776761531829834,-0.0069485921412706375,-0.019165897741913795
1761131764937590000,5.598590087890625,0.02099849283695221,-0.0014508049935102463,-0.02038762718439102
1761131764947591000,5.6085908203125,0.02099849283695221,0.005268712528049946,-0.016111571341753006
1761131764957591000,5.618591064453125,0.016722436994314194,0.005879578180611134,-0.008781188167631626
1761131764967591000,5.6285908203125,0.010002918541431427,0.005879578180611134,-0.002672535367310047
1761131764977591000,5.638591064453125,0.006337726954370737,0.00038179077091626823,0.0009926559869199991
1761131764987591000,5.6485908203125,0.005726861767470837,-0.002672535367310047,0.0009926559869199991
1761131764997591000,5.658591064453125,0.00939205288887024,-0.000839939690195024,-0.005726861767470837
1761131765007591000,5.6685908203125,0.013057244941592216,0.0071013085544109344,-0.00939205288887024
1761131765017591000,5.678591064453125,0.01488984003663063,0.012599095702171326,-0.002672535367310047
1761131765027591000,5.6885908203125,0.01488984003663063,0.021151209250092506,0.010155634954571724
1761131765037591000,5.698591064453125,0.01366810966283083,0.023594669997692108,0.025427265092730522
1761131765047590100,5.708590087890625,0.011224648915231228,0.021151209250092506,0.03459024429321289
1761131765057590300,5.71859033203125,0.007559457328170538,0.016264287754893303,0.03520110994577408
1761131765067590100,5.728590087890625,0.007559457328170538,0.015042556449770927,0.03153591975569725
1761131765077590300,5.73859033203125,0.014278975315392017,0.012599095702171326,0.021762074902653694
1761131765087590100,5.748590087890625,0.01366810966283083,0.010155634954571724,0.006490443367511034
1761131765097590300,5.75859033203125,0.008781188167631626,0.009544769302010536,-0.0038942659739404917
1761131765107590100,5.768590087890625,0.0032834007870405912,0.004657847341150045,-0.00939205288887024
1761131765117590300,5.77859033203125,-0.0016035212902352214,-0.0020616701804101467,-0.01061378326267004
1761131765127590100,5.788590087890625,-0.007712173741310835,-0.007559457328170538,-0.010002918541431427
1761131765137590300,5.79859033203125,-0.010155634954571724,-0.0032834007870405912,-0.011224648915231228
1761131765147591000,5.8085908203125,-0.012599095702171326,0.007712173741310835,-0.005726861767470837
1761131765157591000,5.818591064453125,-0.011988230049610138,0.016264287754893303,0.005879578180611134
1761131765167590700,5.828590576171875,-0.012599095702171326,0.019318614155054092,0.024816401302814484
1761131765177590800,5.8385908203125,-0.008933904580771923,0.013820826075971127,0.04375322163105011
1761131765187590700,5.848590576171875,-0.0034361169673502445,0.007712173741310835,0.05291620269417763
1761131765197590800,5.8585908203125,-0.0016035212902352214,0.0071013085544109344,0.05230533704161644
1761131765207590700,5.868590576171875,0.00022907447419129312,0.004657847341150045,0.03825543448328972
1761131765217590800,5.8785908203125,-0.0022143865935504436,0.005879578180611134,0.01748601719737053
1761131765227590700,5.888590576171875,-0.009544769302010536,0.008933904580771923,0.0016035212902352214
1761131765237590800,5.8985908203125,-0.014431691728532314,0.008323038928210735,-0.0038942659739404917
1761131765247590000,5.90858984375,-0.013209961354732513,0.004657847341150045,0.005879578180611134
1761131765257589800,5.91858984375,-0.010766499675810337,-0.002672535367310047,0.019318614155054092
1761131765267590000,5.92858984375,-0.012599095702171326,-0.0038942659739404917,0.03214678168296814
1761131765277589800,5.93858984375,-0.011377365328371525,-0.00022907447419129312,0.04130976274609566
1761131765287590000,5.94858984375,-0.008323038928210735,0.002825251780450344,0.04558581858873367
1761131765297589800,5.95858984375,-0.005879578180611134,0.010766499675810337,0.044974952936172485
1761131765307590000,5.96858984375,-0.0009926559869199991,0.012599095702171326,0.04008803144097328
1761131765317589800,5.97858984375,0.0014508049935102463,0.006490443367511034,0.029703322798013687
1761131765327590000,5.98858984375,0.0014508049935102463,-0.0038942659739404917,0.018707748502492905
1761131765337589800,5.99858984375,0.0014508049935102463,-0.011224648915231228,0.005879578180611134
1761131765347590700,6.008590576171875,0.000839939690195024,-0.013057244941592216,-0.007559457328170538
1761131765357590800,6.0185908203125,-0.007712173741310835,-0.012446379289031029,-0.02038762718439102
1761131765367590700,6.028590576171875,-0.01992947794497013,-0.006337726954370737,-0.028939740732312202
1761131765377590800,6.0385908203125,-0.024205535650253296,-0.00022907447419129312,-0.024663684889674187
1761131765387590700,6.048590576171875,-0.01992947794497013,-0.00022907447419129312,-0.006337726954370737
1761131765397590800,6.0585908203125,-0.011377365328371525,-0.0038942659739404917,0.01748601719737053
1761131765407590700,6.068590576171875,-0.005268712528049946,-0.004505131393671036,0.03703370690345764
1761131765417590800,6.0785908203125,-0.0034361169673502445,-0.0014508049935102463,0.04680754989385605
1761131765427590700,6.088590576171875,-0.005268712528049946,-0.000839939690195024,0.04375322163105011
1761131765437590800,6.0985908203125,-0.004657847341150045,-0.004505131393671036,0.030314188450574875
1761131765447590000,6.10858984375,-0.005268712528049946,-0.005726861767470837,0.011988230049610138
1761131765457589800,6.11858984375,-0.0022143865935504436,-0.007559457328170538,-0.002672535367310047
1761131765467590100,6.128590087890625,-0.0022143865935504436,-0.01061378326267004,-0.008170322515070438
1761131765477590300,6.13859033203125,-0.002825251780450344,-0.011224648915231228,-0.008781188167631626
1761131765487590100,6.148590087890625,-0.008323038928210735,-0.011835514567792416,0.0016035212902352214
1761131765497590000,6.158590087890625,-0.010766499675810337,-0.013057244941592216,0.018096882849931717
1761131765507590100,6.168590087890625,-0.011988230049610138,-0.01488984003663063,0.03153591975569725
1761131765517590000,6.178590087890625,-0.016264287754893303,-0.018555032089352608,0.03459024429321289
1761131765527590100,6.188590087890625,-0.016264287754893303,-0.022831087931990623,0.030314188450574875
1761131765537590000,6.198590087890625,-0.011988230049610138,-0.028328875079751015,0.021151209250092506
1761131765547591000,6.2085908203125,-0.010766499675810337,-0.027718011289834976,0.011377365328371525
1761131765557591000,6.218591064453125,-0.012599095702171326,-0.025885414332151413,0.004657847341150045
1761131765567591000,6.2285908203125,-0.015653422102332115,-0.025885414332151413,0.004046982154250145
1761131765577591000,6.238591064453125,-0.018096882849931717,-0.025274548679590225,0.006490443367511034
1761131765587591000,6.2485908203125,-0.015042556449770927,-0.021609358489513397,0.016264287754893303
1761131765597591000,6.258591064453125,-0.013209961354732513,-0.019776761531829834,0.02848159149289131
1761131765607591000,6.2685908203125,-0.012599095702171326,-0.016722436994314194,0.0339793786406517
1761131765617591000,6.278591064453125,-0.012599095702171326,-0.015500705689191818,0.030314188450574875
1761131765627591000,6.2885908203125,-0.013209961354732513,-0.018555032089352608,0.024205535650253296
1761131765637591000,6.298591064453125,-0.013820826075971127,-0.02099849283695221,0.01748601719737053
1761131765647590100,6.308590087890625,-0.01687515154480934,-0.02038762718439102,0.011377365328371525
1761131765657590000,6.318590087890625,-0.019318614155054092,-0.02099849283695221,0.0071013085544109344
1761131765667590100,6.328590087890625,-0.018096882849931717,-0.019165897741913795,-0.0020616701804101467
1761131765677590000,6.338590087890625,-0.013209961354732513,-0.013057244941592216,-0.010002918541431427
1761131765687590100,6.348590087890625,-0.005268712528049946,-0.011224648915231228,-0.014278975315392017
1761131765697590000,6.358590087890625,-0.0016035212902352214,-0.017333300784230232,-0.00939205288887024
1761131765707590100,6.368590087890625,0.00022907447419129312,-0.0264962799847126,-0.007559457328170538
1761131765717590000,6.378590087890625,-0.002825251780450344,-0.028939740732312202,-0.012446379289031029
1761131765727590100,6.388590087890625,-0.007712173741310835,-0.021609358489513397,-0.016722436994314194
1761131765737590000,6.398590087890625,-0.006490443367511034,-0.008781188167631626,-0.016111571341753006
1761131765747591000,6.4085908203125,-0.009544769302010536,0.0016035212902352214,-0.00939205288887024
1761131765757591000,6.418591064453125,-0.010155634954571724,0.006490443367511034,0.00038179077091626823
1761131765767591000,6.4285908203125,-0.008323038928210735,0.006490443367511034,0.013820826075971127
1761131765777591000,6.438591064453125,0.00022907447419129312,0.004657847341150045,0.024205535650253296
1761131765787591000,6.4485908203125,0.0069485921412706375,0.005879578180611134,0.026648996397852898
1761131765797591000,6.458591064453125,0.013057244941592216,0.004657847341150045,0.022372938692569733
1761131765807591200,6.468591064453125,0.01488984003663063,0.0034361169673502445,0.0071013085544109344
1761131765817591000,6.478591064453125,0.011224648915231228,0.0022143865935504436,-0.011835514567792416
1761131765827591200,6.488591064453125,0.008781188167631626,0.0009926559869199991,-0.02955060638487339
1761131765837591000,6.498591064453125,0.007559457328170538,-0.000839939690195024,-0.03871358558535576
1761131765847590100,6.508590087890625,0.0020616701804101467,0.00038179077091626823,-0.03199406713247299
1761131765857590300,6.51859033203125,-0.0034361169673502445,0.0071013085544109344,-0.017333300784230232
1761131765867590100,6.528590087890625,-0.002825251780450344,0.011988230049610138,0.0009926559869199991
1761131765877590300,6.53859033203125,0.00022907447419129312,0.014431691728532314,0.011988230049610138
1761131765887590100,6.548590087890625,0.005115996580570936,0.012599095702171326,0.013209961354732513
1761131765897590300,6.55859033203125,0.010002918541431427,0.010155634954571724,0.0022143865935504436
1761131765907590100,6.568590087890625,0.016111571341753006,0.006490443367511034,-0.022220224142074585
1761131765917590000,6.578590087890625,0.019165897741913795,0.009544769302010536,-0.045433104038238525
1761131765927590100,6.588590087890625,0.02099849283695221,0.014431691728532314,-0.06131559982895851
1761131765937590000,6.598590087890625,0.015500705689191818,0.014431691728532314,-0.06803511828184128
1761131765947591000,6.6085908203125,0.008170322515070438,0.015042556449770927,-0.0619264654815197
1761131765957591000,6.618591064453125,0.006337726954370737,0.012599095702171326,-0.04360050708055496
1761131765967591000,6.6285908203125,0.0069485921412706375,0.011377365328371525,-0.02344195358455181
1761131765977591000,6.638591064453125,0.008170322515070438,0.015042556449770927,-0.01061378326267004
1761131765987591000,6.6485908203125,0.005115996580570936,0.01992947794497013,-0.0069485921412706375
1761131765997591000,6.658591064453125,0.005115996580570936,0.021762074902653694,-0.011224648915231228
1761131766007591000,6.6685908203125,0.008170322515070438,0.024205535650253296,-0.017333300784230232
1761131766017591000,6.678591064453125,0.011835514567792416,0.024205535650253296,-0.01794416643679142
1761131766027591000,6.6885908203125,0.011835514567792416,0.021151209250092506,-0.01366810966283083
1761131766037591000,6.698591064453125,0.011835514567792416,0.015653422102332115,-0.01061378326267004
1761131766047590100,6.708590087890625,0.01061378326267004,0.013209961354732513,-0.013057244941592216
1761131766057590300,6.71859033203125,0.006337726954370737,0.014431691728532314,-0.01366810966283083
1761131766067590100,6.728590087890625,0.002672535367310047,0.014431691728532314,-0.015500705689191818
1761131766077590300,6.73859033203125,-0.0022143865935504436,0.013209961354732513,-0.01794416643679142
1761131766087590100,6.748590087890625,-0.0034361169673502445,0.011988230049610138,-0.011835514567792416
1761131766097590300,6.75859033203125,0.00022907447419129312,0.008323038928210735,-0.0020616701804101467
1761131766107590100,6.768590087890625,0.00022907447419129312,0.005268712528049946,0.0071013085544109344
1761131766117590300,6.77859033203125,-0.00038179077091626823,0.0022143865935504436,0.0034361169673502445
1761131766127590100,6.788590087890625,-0.004657847341150045,0.004046982154250145,-0.0069485921412706375
1761131766137590300,6.79859033203125,-0.004657847341150045,0.0071013085544109344,-0.01366810966283083
1761131766147591000,6.8085908203125,-0.005268712528049946,0.008933904580771923,-0.01366810966283083
1761131766157591000,6.818591064453125,-0.0034361169673502445,0.008323038928210735,-0.01061378326267004
1761131766167591000,6.8285908203125,-0.0034361169673502445,0.009544769302010536,-0.0038942659739404917
1761131766177591000,6.838591064453125,-0.005268712528049946,0.008323038928210735,0.0009926559869199991
1761131766187591000,6.8485908203125,-0.008323038928210735,0.0022143865935504436,-0.002672535367310047
1761131766197591000,6.858591064453125,-0.011377365328371525,-0.000839939690195024,-0.01061378326267004
1761131766207591000,6.8685908203125,-0.015042556449770927,-0.002672535367310047,-0.019165897741913795
1761131766217591000,6.878591064453125,-0.014431691728532314,-0.0032834007870405912,-0.021609358489513397
1761131766227591000,6.8885908203125,-0.014431691728532314,-0.0020616701804101467,-0.018555032089352608
1761131766237591000,6.898591064453125,-0.014431691728532314,-0.0032834007870405912,-0.011835514567792416
1761131766247590100,6.908590087890625,-0.01748601719737053,-0.005115996580570936,-0.006337726954370737
1761131766257590300,6.91859033203125,-0.021762074902653694,-0.008170322515070438,-0.0069485921412706375
1761131766267590100,6.928590087890625,-0.02054034359753132,-0.011224648915231228,-0.016111571341753006
1761131766277590000,6.938590087890625,-0.01992947794497013,-0.013057244941592216,-0.025274548679590225
1761131766287590100,6.948590087890625,-0.02054034359753132,-0.016722436994314194,-0.030772335827350616
1761131766297590000,6.958590087890625,-0.024205535650253296,-0.02099849283695221,-0.039935316890478134
1761131766307590100,6.968590087890625,-0.03275764733552933,-0.02038762718439102,-0.042989641427993774
1761131766317590300,6.97859033203125,-0.0339793786406517,-0.01794416643679142,-0.03504839166998863
1761131766327590100,6.988590087890625,-0.03153591975569725,-0.01794416643679142,-0.022220224142074585
1761131766337590300,6.99859033203125,-0.0339793786406517,-0.016111571341753006,-0.0069485921412706375
1761131766347591000,7.0085908203125,-0.03703370690345764,-0.01366810966283083,0.0034361169673502445
1761131766357591000,7.018591064453125,-0.03520110994577408,-0.012446379289031029,0.015042556449770927
1761131766367591000,7.0285908203125,-0.03153591975569725,-0.015500705689191818,0.02054034359753132
1761131766377591000,7.038591064453125,-0.0290924571454525,-0.018555032089352608,0.016264287754893303
1761131766387591000,7.0485908203125,-0.029703322798013687,-0.016111571341753006,0.0071013085544109344
1761131766397591000,7.058591064453125,-0.027870727702975273,-0.01488984003663063,0.00038179077091626823
1761131766407591000,7.0685908203125,-0.026648996397852898,-0.01488984003663063,0.00038179077091626823
1761131766417591000,7.078591064453125,-0.033368512988090515,-0.018555032089352608,0.004657847341150045
1761131766427591000,7.0885908203125,-0.04130976274609566,-0.021609358489513397,0.008933904580771923
1761131766437591000,7.098591064453125,-0.041920628398656845,-0.021609358489513397,0.012599095702171326
1761131766447590100,7.108590087890625,-0.038866300135850906,-0.017333300784230232,0.015653422102332115
1761131766457590000,7.118590087890625,-0.033368512988090515,-0.00939205288887024,0.018707748502492905
1761131766467590100,7.128590087890625,-0.022372938692569733,-0.005726861767470837,0.027259862050414085
1761131766477590000,7.138590087890625,-0.013820826075971127,-0.011835514567792416,0.04008803144097328
1761131766487590100,7.148590087890625,-0.010766499675810337,-0.02038762718439102,0.04680754989385605
1761131766497590000,7.158590087890625,-0.007712173741310835,-0.02099849283695221,0.04253149405121803
1761131766507590100,7.168590087890625,-0.004046982154250145,-0.018555032089352608,0.027870727702975273
1761131766517590000,7.178590087890625,-0.0034361169673502445,-0.016722436994314194,0.012599095702171326
1761131766527590100,7.188590087890625,-0.010155634954571724,-0.011224648915231228,-0.0038942659739404917
1761131766537590000,7.198590087890625,-0.016264287754893303,-0.0069485921412706375,-0.01366810966283083
1761131766547591000,7.2085908203125,-0.008323038928210735,-0.006337726954370737,-0.0032834007870405912
1761131766557591000,7.218591064453125,-0.002825251780450344,-0.008170322515070438,0.0071013085544109344
1761131766567591000,7.2285908203125,-0.0022143865935504436,-0.0038942659739404917,0.011988230049610138
1761131766577591000,7.238591064453125,0.002672535367310047,0.0009926559869199991,0.013209961354732513
1761131766587591000,7.2485908203125,0.00939205288887024,0.004046982154250145,0.011377365328371525
1761131766597591000,7.258591064453125,0.007559457328170538,0.004657847341150045,0.007712173741310835
1761131766607591000,7.2685908203125,0.004505131393671036,0.008323038928210735,0.002825251780450344
1761131766617591000,7.278591064453125,0.006337726954370737,0.013209961354732513,0.0009926559869199991
1761131766627591000,7.2885908203125,0.013057244941592216,0.015042556449770927,0.004657847341150045
1761131766637591000,7.298591064453125,0.015500705689191818,0.014431691728532314,0.011377365328371525
1761131766647590100,7.308590087890625,0.011224648915231228,0.011377365328371525,0.015653422102332115
1761131766657590000,7.318590087890625,0.011224648915231228,0.011377365328371525,0.011988230049610138
1761131766667590100,7.328590087890625,0.012446379289031029,0.009544769302010536,0.002825251780450344
1761131766677590000,7.338590087890625,0.013057244941592216,0.011377365328371525,-0.007559457328170538
1761131766687590100,7.348590087890625,0.016111571341753006,0.013820826075971127,-0.016111571341753006
1761131766697590000,7.358590087890625,0.016111571341753006,0.015653422102332115,-0.019776761531829834
1761131766707590100,7.368590087890625,0.017333300784230232,0.01687515154480934,-0.014278975315392017
1761131766717590000,7.378590087890625,0.01794416643679142,0.015653422102332115,-0.0032834007870405912
1761131766727590100,7.388590087890625,0.022220224142074585,0.016264287754893303,0.0071013085544109344
1761131766737590000,7.398590087890625,0.024052819237113,0.01992947794497013,0.010766499675810337
1761131766747591000,7.4085908203125,0.024663684889674187,0.022372938692569733,0.0034361169673502445
1761131766757591000,7.418591064453125,0.024663684889674187,0.025427265092730522,-0.00939205288887024
1761131766767591000,7.4285908203125,0.030161472037434578,0.0339793786406517,-0.028328875079751015
1761131766777591000,7.438591064453125,0.033826664090156555,0.038866300135850906,-0.025885414332151413
1761131766787591000,7.4485908203125,0.04115704447031021,0.03703370690345764,-0.00939205288887024
1761131766797591000,7.458591064453125,0.04421137273311615,0.030925052240490913,0.015653422102332115
1761131766807591000,7.4685908203125,0.033826664090156555,0.03214678168296814,0.030314188450574875
1761131766817591000,7.478591064453125,0.025274548679590225,0.030925052240490913,0.030925052240490913
1761131766827591000,7.4885908203125,0.022831087931990623,0.026648996397852898,0.018096882849931717
1761131766837591000,7.498591064453125,0.028328875079751015,0.024816401302814484,-0.0014508049935102463
1761131766847590100,7.508590087890625,0.028328875079751015,0.02603813074529171,-0.02099849283695221
1761131766857590000,7.518590087890625,0.027718011289834976,0.024816401302814484,-0.03321579843759537
1761131766867590100,7.528590087890625,0.022220224142074585,0.021151209250092506,-0.031383201479911804
1761131766877590000,7.538590087890625,0.02038762718439102,0.019318614155054092,-0.021609358489513397
1761131766887590100,7.548590087890625,0.018555032089352608,0.024816401302814484,-0.00939205288887024
1761131766897590000,7.558590087890625,0.019776761531829834,0.03153591975569725,0.0016035212902352214
1761131766907590100,7.568590087890625,0.019776761531829834,0.033368512988090515,0.002825251780450344
1761131766917590000,7.578590087890625,0.019165897741913795,0.03214678168296814,0.002825251780450344
1761131766927590100,7.588590087890625,0.018555032089352608,0.030314188450574875,0.005879578180611134
1761131766937590000,7.598590087890625,0.019165897741913795,0.027259862050414085,0.013820826075971127
1761131766947591000,7.6085908203125,0.017333300784230232,0.0290924571454525,0.019318614155054092
1761131766957591000,7.618591064453125,0.01366810966283083,0.030314188450574875,0.026648996397852898
1761131766967591000,7.6285908203125,0.007559457328170538,0.030314188450574875,0.029703322798013687
1761131766977591000,7.638591064453125,-0.0022143865935504436,0.026648996397852898,0.021762074902653694
1761131766987591000,7.6485908203125,-0.011377365328371525,0.022372938692569733,0.012599095702171326
1761131766997591000,7.658591064453125,-0.018707748502492905,0.011377365328371525,0.0034361169673502445
1761131767007591000,7.6685908203125,-0.01992947794497013,0.011377365328371525,0.00038179077091626823
1761131767017591000,7.678591064453125,-0.021151209250092506,0.01748601719737053,-0.00022907447419129312
1761131767027591000,7.6885908203125,-0.02298380434513092,0.026648996397852898,0.002825251780450344
1761131767037591000,7.698591064453125,-0.02298380434513092,0.029703322798013687,0.005879578180611134
1761131767047590100,7.708590087890625,-0.021762074902653694,0.024205535650253296,0.008323038928210735
1761131767057590300,7.71859033203125,-0.02054034359753132,0.013820826075971127,0.0034361169673502445
1761131767067590100,7.728590087890625,-0.022372938692569733,0.004657847341150045,-0.005115996580570936
1761131767077590300,7.73859033203125,-0.023594669997692108,0.0022143865935504436,-0.016111571341753006
1761131767087590100,7.748590087890625,-0.026648996397852898,0.005268712528049946,-0.022831087931990623
1761131767097590300,7.75859033203125,-0.03153591975569725,0.007712173741310835,-0.024052819237113
1761131767107590100,7.768590087890625,-0.038866300135850906,0.00038179077091626823,-0.02038762718439102
1761131767117590300,7.77859033203125,-0.04375322163105011,-0.008170322515070438,-0.014278975315392017
1761131767127590100,7.788590087890625,-0.04375322163105011,-0.010002918541431427,-0.01061378326267004
1761131767137590300,7.79859033203125,-0.044974952936172485,-0.006337726954370737,-0.0014508049935102463
1761131767147591000,7.8085908203125,-0.04130976274609566,-0.002672535367310047,0.011988230049610138
1761131767157591000,7.818591064453125,-0.04130976274609566,-0.00022907447419129312,0.027259862050414085
1761131767167591000,7.8285908203125,-0.04130976274609566,0.00038179077091626823,0.038866300135850906
1761131767177591000,7.838591064453125,-0.04069889709353447,-0.00022907447419129312,0.04864014685153961
1761131767187591000,7.8485908203125,-0.03825543448328972,0.00038179077091626823,0.053527068346738815
1761131767197591000,7.858591064453125,-0.03520110994577408,-0.004505131393671036,0.05047274008393288
1761131767207591200,7.868591064453125,-0.03703370690345764,-0.00939205288887024,0.039477165788412094
1761131767217591000,7.878591064453125,-0.03825543448328972,-0.01366810966283083,0.02298380434513092
1761131767227591200,7.888591064453125,-0.04069889709353447,-0.011224648915231228,0.010766499675810337
1761131767237591000,7.898591064453125,-0.041920628398656845,-0.012446379289031029,0.006490443367511034
1761131767247590100,7.908590087890625,-0.04130976274609566,-0.012446379289031029,0.009544769302010536
1761131767257590300,7.91859033203125,-0.039477165788412094,-0.008781188167631626,0.012599095702171326
1761131767267590100,7.928590087890625,-0.035811975598335266,-0.0038942659739404917,0.01992947794497013
1761131767277590300,7.93859033203125,-0.030314188450574875,-0.0020616701804101467,0.02298380434513092
1761131767287590100,7.948590087890625,-0.026648996397852898,-0.0038942659739404917,0.025427265092730522
1761131767297590300,7.95859033203125,-0.022372938692569733,-0.008170322515070438,0.02054034359753132
1761131767307590100,7.968590087890625,-0.019318614155054092,-0.011224648915231228,0.005879578180611134
1761131767317590300,7.97859033203125,-0.01992947794497013,-0.011224648915231228,-0.008781188167631626
1761131767327590100,7.988590087890625,-0.018096882849931717,-0.007559457328170538,-0.016111571341753006
1761131767337590300,7.99859033203125,-0.01687515154480934,-0.00022907447419129312,-0.01366810966283083
1761131767347591200,8.008591064453125,-0.01687515154480934,0.0016035212902352214,-0.0038942659739404917
1761131767357591000,8.018591064453124,-0.015042556449770927,0.002825251780450344,0.008323038928210735
1761131767367591000,8.0285908203125,-0.007712173741310835,0.005879578180611134,0.018707748502492905
1761131767377591000,8.038591064453126,-0.004046982154250145,0.004657847341150045,0.023594669997692108
1761131767387591000,8.0485908203125,-0.0034361169673502445,0.0009926559869199991,0.01748601719737053
1761131767397591000,8.058591064453125,0.0020616701804101467,0.002825251780450344,0.0022143865935504436
1761131767407591000,8.0685908203125,0.0069485921412706375,0.008933904580771923,-0.011835514567792416
1761131767417591000,8.078591064453125,0.010002918541431427,0.012599095702171326,-0.01794416643679142
1761131767427591000,8.0885908203125,0.014278975315392017,0.015042556449770927,-0.01366810966283083
1761131767437591000,8.098591064453124,0.019165897741913795,0.011988230049610138,-0.002672535367310047
1761131767447590100,8.108590087890626,0.022220224142074585,0.006490443367511034,0.006490443367511034
1761131767457590300,8.11859033203125,0.019776761531829834,-0.0014508049935102463,0.006490443367511034
1761131767467590100,8.128590087890625,0.012446379289031029,-0.007559457328170538,-0.017333300784230232
1761131767477590000,8.138590087890625,0.011835514567792416,-0.006337726954370737,-0.04237877577543259
1761131767487590100,8.148590087890625,0.008781188167631626,-0.00022907447419129312,-0.05642867833375931
1761131767497590000,8.158590087890625,0.007559457328170538,0.005268712528049946,-0.051541756838560104
1761131767507590100,8.168590087890625,0.011835514567792416,0.009544769302010536,-0.025885414332151413
1761131767517590000,8.178590087890624,0.014278975315392017,0.012599095702171326,0.008323038928210735
1761131767527590100,8.188590087890624,0.016722436994314194,0.015042556449770927,0.04008803144097328
1761131767537590000,8.198590087890626,0.022831087931990623,0.015042556449770927,0.05719225853681564
1761131767547591000,8.2085908203125,0.027718011289834976,0.012599095702171326,0.05597052723169327
1761131767557591000,8.218591064453125,0.02955060638487339,0.009544769302010536,0.036422841250896454
1761131767567591000,8.2285908203125,0.031383201479911804,0.009544769302010536,0.005268712528049946
1761131767577591000,8.238591064453125,0.030772335827350616,0.013820826075971127,-0.019776761531829834
1761131767587591000,8.2485908203125,0.028328875079751015,0.011988230049610138,-0.025885414332151413
1761131767597591000,8.258591064453125,0.028939740732312202,0.006490443367511034,-0.01366810966283083
1761131767607591000,8.2685908203125,0.0264962799847126,-0.0014508049935102463,0.002825251780450344
1761131767617591000,8.278591064453124,0.02099849283695221,-0.0032834007870405912,0.016264287754893303
1761131767627591000,8.2885908203125,0.015500705689191818,0.00038179077091626823,0.021151209250092506
1761131767637591000,8.298591064453126,0.016111571341753006,0.004657847341150045,0.016264287754893303
1761131767647590100,8.308590087890625,0.016722436994314194,0.012599095702171326,0.005879578180611134
1761131767657590000,8.318590087890625,0.022220224142074585,0.015653422102332115,-0.0014508049935102463
1761131767667590100,8.328590087890625,0.030161472037434578,0.013209961354732513,-0.0020616701804101467
1761131767677590000,8.338590087890625,0.033826664090156555,0.0071013085544109344,0.0016035212902352214
1761131767687590100,8.348590087890624,0.033826664090156555,0.005268712528049946,0.0034361169673502445
1761131767697590000,8.358590087890626,0.02955060638487339,0.006490443367511034,-0.005726861767470837
1761131767707590100,8.368590087890626,0.021609358489513397,0.010155634954571724,-0.02038762718439102
1761131767717590000,8.378590087890625,0.012446379289031029,0.008933904580771923,-0.031383201479911804
1761131767727590100,8.388590087890625,0.008170322515070438,0.007712173741310835,-0.03565925732254982
1761131767737590000,8.398590087890625,0.0069485921412706375,0.005879578180611134,-0.025885414332151413
1761131767747591000,8.4085908203125,0.013057244941592216,0.002825251780450344,-0.012446379289031029
1761131767757591000,8.418591064453125,0.015500705689191818,0.005879578180611134,-0.005115996580570936
1761131767767591000,8.4285908203125,0.018555032089352608,0.010766499675810337,0.00038179077091626823
1761131767777591000,8.438591064453124,0.011835514567792416,0.018096882849931717,0.005879578180611134
1761131767787591000,8.4485908203125,0.017333300784230232,0.0034361169673502445,0.013209961354732513
1761131767797591000,8.458591064453126,0.019165897741913795,0.004046982154250145,0.016264287754893303
1761131767807591000,8.4685908203125,0.016722436994314194,0.0022143865935504436,0.004046982154250145
1761131767817591000,8.478591064453125,0.014278975315392017,0.0009926559869199991,-0.006337726954370737
1761131767827591000,8.4885908203125,0.01061378326267004,-0.0032834007870405912,-0.016722436994314194
1761131767837591000,8.498591064453125,0.006337726954370737,-0.008781188167631626,-0.018555032089352608
1761131767847590100,8.508590087890624,0.004505131393671036,-0.011224648915231228,-0.015500705689191818
1761131767857590000,8.518590087890624,-0.0009926559869199991,-0.006337726954370737,-0.0069485921412706375
1761131767867590100,8.528590087890626,-0.002825251780450344,-0.004505131393671036,0.004657847341150045
1761131767877590000,8.538590087890626,-0.0009926559869199991,-0.008781188167631626,0.013209961354732513
1761131767887590100,8.548590087890625,-0.00038179077091626823,-0.014278975315392017,0.015653422102332115
1761131767897590000,8.558590087890625,0.0032834007870405912,-0.015500705689191818,0.010155634954571724
1761131767907590100,8.568590087890625,0.005115996580570936,-0.016111571341753006,0.0034361169673502445
1761131767917590000,8.578590087890625,0.008170322515070438,-0.01366810966283083,-0.000839939690195024
1761131767927590100,8.588590087890625,0.006337726954370737,-0.01061378326267004,0.0016035212902352214
1761131767937590000,8.598590087890624,0.006337726954370737,-0.013057244941592216,0.0071013085544109344
1761131767947591000,8.6085908203125,0.004505131393671036,-0.01794416643679142,0.013820826075971127
1761131767957591000,8.618591064453126,-0.0034361169673502445,-0.02099849283695221,0.010155634954571724
1761131767967591000,8.6285908203125,-0.008933904580771923,-0.02099849283695221,0.0009926559869199991
1761131767977591000,8.638591064453125,-0.011377365328371525,-0.02038762718439102,-0.010002918541431427
1761131767987591000,8.6485908203125,-0.007712173741310835,-0.013057244941592216,-0.01488984003663063
1761131767997591000,8.658591064453125,-0.0022143865935504436,-0.008781188167631626,-0.011835514567792416
1761131768007591000,8.6685908203125,-0.0034361169673502445,-0.010002918541431427,-0.005115996580570936
1761131768017591000,8.678591064453125,-0.005879578180611134,-0.010002918541431427,0.004046982154250145
1761131768027591000,8.6885908203125,-0.0034361169673502445,-0.010002918541431427,0.008933904580771923
1761131768037591000,8.698591064453124,-0.006490443367511034,-0.012446379289031029,0.009544769302010536
1761131768047590100,8.708590087890625,-0.008933904580771923,-0.011224648915231228,0.002825251780450344
1761131768057590300,8.71859033203125,-0.010766499675810337,-0.01061378326267004,-0.013057244941592216
1761131768067590100,8.728590087890625,-0.007712173741310835,-0.011835514567792416,-0.028328875079751015
1761131768077590300,8.73859033203125,-0.0016035212902352214,-0.0069485921412706375,-0.04482223838567734
1761131768087590100,8.748590087890625,0.0020616701804101467,-0.004505131393671036,-0.05826127156615257
1761131768097590300,8.75859033203125,0.0069485921412706375,-0.0069485921412706375,-0.057650405913591385
1761131768107590100,8.768590087890624,0.011224648915231228,-0.011835514567792416,-0.04909829422831535
1761131768117590000,8.778590087890626,0.00939205288887024,-0.015500705689191818,-0.039935316890478134
1761131768127590100,8.788590087890626,0.0038942659739404917,-0.011835514567792416,-0.031383201479911804
1761131768137590000,8.798590087890625,0.0014508049935102463,-0.000839939690195024,-0.02038762718439102
1761131768147591000,8.8085908203125,-0.004657847341150045,0.006490443367511034,-0.008781188167631626
1761131768157591000,8.818591064453125,-0.007712173741310835,0.005879578180611134,0.005879578180611134
1761131768167591000,8.8285908203125,-0.004657847341150045,0.004046982154250145,0.008323038928210735
1761131768177591000,8.838591064453125,0.0038942659739404917,0.005268712528049946,0.005268712528049946
1761131768187591000,8.8485908203125,0.01366810966283083,0.007712173741310835,-0.0014508049935102463
1761131768197591000,8.858591064453124,0.022831087931990623,0.0071013085544109344,-0.007559457328170538
1761131768207591000,8.8685908203125,0.024663684889674187,0.006490443367511034,-0.011224648915231228
1761131768217591000,8.878591064453126,0.024052819237113,0.004657847341150045,-0.013057244941592216
1761131768227591000,8.8885908203125,0.019776761531829834,0.0016035212902352214,-0.019165897741913795
1761131768237591000,8.898591064453125,0.01061378326267004,-0.000839939690195024,-0.030161472037434578
1761131768247590100,8.908590087890625,0.00022907447419129312,-0.002672535367310047,-0.03443752974271774
1761131768257590300,8.91859033203125,-0.0016035212902352214,-0.0014508049935102463,-0.030161472037434578
1761131768267590100,8.928590087890624,0.005726861767470837,0.005268712528049946,-0.012446379289031029
1761131768277590300,8.93859033203125,0.011835514567792416,0.012599095702171326,0.011377365328371525
1761131768287590100,8.948590087890626,0.015500705689191818,0.018707748502492905,0.0339793786406517
1761131768297590300,8.95859033203125,0.02038762718439102,0.01687515154480934,0.044974952936172485
1761131768307590100,8.968590087890625,0.025885414332151413,0.006490443367511034,0.039477165788412094
1761131768317590300,8.97859033203125,0.0264962799847126,0.0016035212902352214,0.021151209250092506
1761131768327590100,8.988590087890625,0.021609358489513397,0.005268712528049946,-0.0020616701804101467
1761131768337590300,8.99859033203125,0.013057244941592216,0.0071013085544109344,-0.02038762718439102
1761131768347591000,9.0085908203125,0.00022907447419129312,0.010155634954571724,-0.027718011289834976
1761131768357591000,9.018591064453124,-0.0009926559869199991,0.013209961354732513,-0.02710714563727379
1761131768367591000,9.0285908203125,0.004505131393671036,0.0022143865935504436,-0.01488984003663063
1761131768377591000,9.038591064453126,0.00939205288887024,-0.0020616701804101467,0.008323038928210735
1761131768387591000,9.0485908203125,0.005726861767470837,0.005268712528049946,0.035811975598335266
1761131768397591000,9.058591064453125,-0.002825251780450344,0.013820826075971127,0.044974952936172485
1761131768407591000,9.0685908203125,-0.011377365328371525,0.016264287754893303,0.04986187443137169
1761131768417591000,9.078591064453125,-0.019318614155054092,0.010155634954571724,0.053527068346738815
1761131768427591000,9.0885908203125,-0.02054034359753132,-0.0014508049935102463,0.051083605736494064
1761131768437591000,9.098591064453124,-0.023594669997692108,-0.0032834007870405912,0.04558581858873367
1761131768447590100,9.108590087890626,-0.023594669997692108,0.0071013085544109344,0.03153591975569725
1761131768457590300,9.11859033203125,-0.01992947794497013,0.018707748502492905,0.023594669997692108
1761131768467590400,9.12859033203125,-0.01992947794497013,0.007712173741310835,0.027870727702975273
1761131768477590300,9.13859033203125,-0.023594669997692108,-0.007559457328170538,0.03703370690345764
1761131768487590400,9.14859033203125,-0.03153591975569725,-0.011224648915231228,0.04008803144097328
1761131768497590300,9.15859033203125,-0.03703370690345764,-0.008170322515070438,0.0339793786406517
1761131768507590100,9.168590087890625,-0.03703370690345764,0.004046982154250145,0.021762074902653694
1761131768517590300,9.17859033203125,-0.035811975598335266,0.013820826075971127,0.014431691728532314
1761131768527590100,9.188590087890624,-0.03703370690345764,0.011377365328371525,0.027870727702975273
1761131768537590300,9.19859033203125,-0.044974952936172485,0.004046982154250145,0.05841398984193802
1761131768547591200,9.208591064453126,-0.05780312418937683,-0.00939205288887024,0.0895681157708168
1761131768557591000,9.218591064453125,-0.0797942727804184,-0.024052819237113,0.10911580175161362
1761131768567591200,9.228591064453125,-0.10850493609905243,-0.025274548679590225,0.09628763794898987
1761131768577591000,9.238591064453125,-0.1359938681125641,-0.019165897741913795,0.03825543448328972
1761131768587591200,9.248591064453125,-0.13782647252082825,-0.0032834007870405912,-0.03260493278503418
1761131768597591000,9.258591064453125,-0.12194397300481796,0.005879578180611134,-0.07108944654464722
1761131768607591200,9.268591064453124,-0.09934195876121521,-0.007559457328170538,-0.06436992436647415
1761131768617591000,9.278591064453124,-0.08345946669578552,-0.03199406713247299,-0.030772335827350616
1761131768627591200,9.288591064453126,-0.05535966157913208,-0.028939740732312202,-0.0014508049935102463
1761131768637591000,9.298591064453126,-0.04680754989385605,0.002825251780450344,0.002825251780450344
1761131768647590400,9.30859033203125,-0.05047274008393288,0.02848159149289131,0.011988230049610138
1761131768657590300,9.31859033203125,-0.05169447138905525,0.026648996397852898,0.01748601719737053
1761131768667590400,9.32859033203125,-0.05230533704161644,0.018096882849931717,0.01748601719737053
1761131768677590300,9.33859033203125,-0.04680754989385605,0.008323038928210735,0.008323038928210735
1761131768687590400,9.34859033203125,-0.041920628398656845,0.006490443367511034,0.002825251780450344
1761131768697590300,9.35859033203125,-0.035811975598335266,0.008323038928210735,0.00038179077091626823
1761131768707590400,9.36859033203125,-0.027259862050414085,0.008323038928210735,-0.0069485921412706375
1761131768717590300,9.37859033203125,-0.02298380434513092,0.0071013085544109344,-0.017333300784230232
1761131768727590400,9.38859033203125,-0.021762074902653694,0.007712173741310835,-0.025274548679590225
1761131768737590300,9.39859033203125,-0.01992947794497013,0.00038179077091626823,-0.028328875079751015
1761131768747591000,9.4085908203125,-0.01748601719737053,-0.010002918541431427,-0.03565925732254982
1761131768757591000,9.418591064453125,-0.01687515154480934,-0.017333300784230232,-0.039935316890478134
1761131768767591000,9.4285908203125,-0.019318614155054092,-0.02038762718439102,-0.042989641427993774
1761131768777591000,9.438591064453124,-0.01748601719737053,-0.01794416643679142,-0.03504839166998863
1761131768787591000,9.4485908203125,-0.018707748502492905,-0.007559457328170538,-0.016111571341753006
1761131768797591000,9.458591064453126,-0.02054034359753132,0.008323038928210735,-0.00022907447419129312
1761131768807591000,9.4685908203125,-0.02054034359753132,0.019318614155054092,0.015042556449770927
1761131768817591000,9.478591064453125,-0.02054034359753132,0.025427265092730522,0.025427265092730522
1761131768827591000,9.4885908203125,-0.01687515154480934,0.029703322798013687,0.024205535650253296
1761131768837591000,9.498591064453125,-0.012599095702171326,0.023594669997692108,0.015042556449770927
1761131768847590100,9.508590087890624,-0.010155634954571724,0.015042556449770927,0.005268712528049946
1761131768857590300,9.51859033203125,-0.012599095702171326,0.013820826075971127,-0.0038942659739404917
1761131768867590100,9.528590087890626,-0.018096882849931717,0.015653422102332115,-0.008781188167631626
1761131768877590000,9.538590087890626,-0.021762074902653694,0.011988230049610138,-0.01061378326267004
1761131768887590100,9.548590087890625,-0.022372938692569733,0.009544769302010536,-0.0038942659739404917
1761131768897590000,9.558590087890625,-0.01687515154480934,0.013209961354732513,0.005879578180611134
1761131768907590100,9.568590087890625,-0.007712173741310835,0.023594669997692108,0.014431691728532314
1761131768917590000,9.578590087890625,-0.002825251780450344,0.03459024429321289,0.022372938692569733
1761131768927590100,9.588590087890625,0.0014508049935102463,0.03703370690345764,0.03153591975569725
1761131768937590000,9.598590087890624,0.002672535367310047,0.03214678168296814,0.04130976274609566
1761131768947591000,9.6085908203125,0.002672535367310047,0.023594669997692108,0.04008803144097328
1761131768957591000,9.618591064453126,-0.0034361169673502445,0.010766499675810337,0.026648996397852898
1761131768967591000,9.6285908203125,-0.010766499675810337,0.004046982154250145,0.010155634954571724
1761131768977591000,9.638591064453125,-0.015042556449770927,0.005879578180611134,-0.0014508049935102463
1761131768987591000,9.6485908203125,-0.01992947794497013,0.013209961354732513,-0.010002918541431427
1761131768997591000,9.658591064453125,-0.01687515154480934,0.02298380434513092,-0.017333300784230232
1761131769007591000,9.6685908203125,-0.008933904580771923,0.03153591975569725,-0.012446379289031029
1761131769017591000,9.678591064453125,0.002672535367310047,0.033368512988090515,-0.00022907447419129312
1761131769027591000,9.6885908203125,0.008170322515070438,0.030925052240490913,0.008933904580771923
1761131769037591000,9.698591064453124,0.01061378326267004,0.027259862050414085,0.012599095702171326
1761131769047590100,9.708590087890625,0.004505131393671036,0.02848159149289131,0.018707748502492905
1761131769057590300,9.71859033203125,-0.005879578180611134,0.030314188450574875,0.025427265092730522
1761131769067590100,9.728590087890625,-0.025427265092730522,0.030925052240490913,0.025427265092730522
1761131769077590300,9.73859033203125,-0.03825543448328972,0.024816401302814484,0.019318614155054092
1761131769087590100,9.748590087890625,-0.04130976274609566,0.03459024429321289,0.006490443367511034
1761131769097590300,9.75859033203125,-0.038866300135850906,0.029703322798013687,0.02298380434513092
1761131769107590100,9.768590087890624,0.0069485921412706375,-0.011835514567792416,-0.016111571341753006
1761131769117590300,9.77859033203125,0.030772335827350616,-0.02099849283695221,-0.02344195358455181
1761131769127590100,9.788590087890626,0.018555032089352608,-0.019165897741913795,-0.024663684889674187
1761131769137590300,9.79859033203125,-0.007712173741310835,0.00038179077091626823,-0.022220224142074585
1761131769147591000,9.8085908203125,-0.036422841250896454,0.010766499675810337,-0.002672535367310047
1761131769157591000,9.818591064453125,-0.06574437022209167,0.013209961354732513,0.029703322798013687
1761131769167591000,9.8285908203125,-0.07735081017017365,0.011377365328371525,0.0645226389169693
