time,seconds_elapsed,z,y,x
1761132068845932300,0.117932373046875,0.03004169464111328,0.009216099977493286,-0.011833295226097107
1761132068875932400,0.147932373046875,0.03004169464111328,0.009019125252962112,-0.01183268427848816
1761132068885932300,0.157932373046875,0.030040740966796875,0.008960593491792679,-0.011826649308204651
1761132068895932400,0.167932373046875,0.030040740966796875,0.008958589285612106,-0.011846154928207397
1761132068905932300,0.177932373046875,0.03003978729248047,0.008968763053417206,-0.01174856722354889
1761132068915932400,0.187932373046875,0.03003978729248047,0.008986260741949081,-0.011770084500312805
1761132068925932300,0.197932373046875,0.030038833618164062,0.008996039628982544,-0.011672630906105042
1761132068935932400,0.207932373046875,0.030037879943847656,0.009006474167108536,-0.011574938893318176
1761132068945932500,0.2179326171875,0.030037879943847656,0.009084511548280716,-0.011582985520362854
1761132068955932400,0.227932373046875,0.030037879943847656,0.009149648249149323,-0.011530399322509766
1761132068965932500,0.2379326171875,0.030037879943847656,0.009124111384153366,-0.01158691942691803
1761132068975932700,0.2479326171875,0.030037879943847656,0.00914454460144043,-0.01158858835697174
1761132068985932500,0.2579326171875,0.030037879943847656,0.009053468704223633,-0.011520013213157654
1761132068995932700,0.2679326171875,0.030035018920898438,0.009006593376398087,-0.011397063732147217
1761132069005932500,0.2779326171875,0.030033111572265625,0.008980143815279007,-0.011275798082351685
1761132069015931000,0.287930908203125,0.030030250549316406,0.008940078318119049,-0.011094048619270325
1761132069025930800,0.2979306640625,0.030031204223632812,0.00901869311928749,-0.01110200583934784
1761132069035931000,0.307930908203125,0.03003215789794922,0.009235307574272156,-0.011104583740234375
1761132069045931000,0.317930908203125,0.030033111572265625,0.009329631924629211,-0.011153340339660645
1761132069055931000,0.327930908203125,0.03003215789794922,0.009275246411561966,-0.011108249425888062
1761132069065931000,0.337930908203125,0.030031204223632812,0.009300388395786285,-0.011051878333091736
1761132069075931000,0.347930908203125,0.0276336669921875,-0.010009776800870895,-0.006069615483283997
1761132069085931000,0.357930908203125,0.030027389526367188,0.018686028197407722,0.010732993483543396
1761132069095931000,0.367930908203125,0.03242206573486328,-0.00047316402196884155,0.0034918636083602905
1761132069105931000,0.377930908203125,0.03721046447753906,0.006645804271101952,-0.0061371177434921265
1761132069115931000,0.387930908203125,0.03960609436035156,0.0018509849905967712,-0.008589982986450195
1761132069125931000,0.397930908203125,0.0276336669921875,0.009045373648405075,-0.010867208242416382
1761132069135931000,0.407930908203125,0.032421112060546875,0.01142648234963417,-0.010806530714035034
1761132069145931000,0.417930908203125,0.027629852294921875,0.0042424388229846954,0.008524671196937561
1761132069155931000,0.427930908203125,0.025237083435058594,0.011479690670967102,-0.013068124651908875
1761132069165931000,0.437930908203125,0.03481578826904297,-0.005227610468864441,-0.015527024865150452
1761132069175931000,0.447930908203125,0.034816741943359375,0.018703198060393333,0.0011154860258102417
1761132069185931000,0.457930908203125,0.04199790954589844,0.016376078128814697,0.003581896424293518
1761132069195931000,0.467930908203125,0.032421112060546875,0.006799271330237389,0.003581896424293518
1761132069205931000,0.477930908203125,0.037209510803222656,0.001991353929042816,-0.0012044906616210938
1761132069215930000,0.48793017578125,0.022844314575195312,0.006780723109841347,-0.0012042820453643799
1761132069225930000,0.497929931640625,0.030029296875,-0.00033588334918022156,-0.0037235617637634277
1761132069235930000,0.50793017578125,0.02045154571533203,-0.005137249827384949,-0.006057038903236389
1761132069245930000,0.517929931640625,0.034816741943359375,0.01874021254479885,0.00825566053390503
1761132069255930000,0.52793017578125,0.0276336669921875,0.01155799999833107,-0.006109416484832764
1761132069265930000,0.537929931640625,0.030030250549316406,0.004488576203584671,-0.008554622530937195
1761132069275930000,0.54793017578125,0.027635574340820312,0.004540298134088516,0.010534167289733887
1761132069285930000,0.557929931640625,0.022848129272460938,-0.0001875646412372589,-0.018182776868343353
1761132069295930000,0.56793017578125,0.034820556640625,-0.002529572695493698,0.0033005177974700928
1761132069305930000,0.577929931640625,0.0108795166015625,0.01194828376173973,0.005643501877784729
1761132069315931000,0.587930908203125,0.04200267791748047,0.0024770572781562805,-0.01344209909439087
1761132069325931000,0.597930908203125,0.032425880432128906,0.007387885823845863,0.005757734179496765
1761132069335931000,0.607930908203125,0.015666961669921875,0.026417972519993782,0.015288054943084717
1761132069345931000,0.617930908203125,0.04439735412597656,-0.002260543406009674,0.008218660950660706
1761132069355931000,0.627930908203125,0.03242683410644531,-0.009455453604459763,-0.001475304365158081
1761132069365931000,0.637930908203125,0.03960990905761719,0.00012135505676269531,-0.001475304365158081
1761132069375931000,0.647930908203125,0.03960990905761719,0.000056356191635131836,-0.001527830958366394
1761132069385931000,0.657930908203125,0.02524566650390625,0.00005007535219192505,0.0008077323436737061
1761132069395931000,0.667930908203125,0.03003406524658203,0.007232679054141045,0.005596131086349487
1761132069405931000,0.677930908203125,0.022851943969726562,0.00256294384598732,-0.008761763572692871
1761132069415930000,0.68793017578125,0.042006492614746094,0.00022138282656669617,-0.016008853912353516
1761132069425930000,0.697929931640625,0.027639389038085938,-0.004698805510997772,0.0008228123188018799
1761132069435930000,0.70793017578125,0.027640342712402344,0.007324712350964546,0.010335072875022888
1761132069445930000,0.717929931640625,0.03721809387207031,-0.00465218722820282,0.015064999461174011
1761132069455930000,0.72793017578125,0.030035972595214844,-0.004591256380081177,-0.008863389492034912
1761132069465930000,0.737929931640625,0.018064498901367188,0.012162134051322937,0.007837504148483276
1761132069475930000,0.74793017578125,0.034824371337890625,0.004920739680528641,0.010237634181976318
1761132069485930000,0.757929931640625,0.030035972595214844,0.00970914214849472,-0.004127576947212219
1761132069495930000,0.76793017578125,0.025249481201171875,-0.002214808017015457,-0.016221612691879272
1761132069505930000,0.777929931640625,0.020461082458496094,-0.009397856891155243,0.0005377829074859619
1761132069515931000,0.787930908203125,0.03003978729248047,-0.006826058030128479,-0.02100858837366104
1761132069525931000,0.797930908203125,0.03482818603515625,0.01949078030884266,0.0029354840517044067
1761132069535931000,0.807930908203125,0.03721904754638672,0.012303169816732407,-0.016079530119895935
1761132069545931000,0.817930908203125,0.03961467742919922,-0.014039918780326843,0.0054095834493637085
1761132069555931000,0.827930908203125,0.022855758666992188,0.007502006366848946,-0.0018315017223358154
1761132069565931000,0.837930908203125,0.03003978729248047,-0.0021998845040798187,-0.0018974840641021729
1761132069575931000,0.847930908203125,0.03242969512939453,-0.004534997045993805,0.017447203397750854
1761132069585931000,0.857930908203125,0.027643203735351562,0.007546788081526756,0.005405515432357788
1761132069595931000,0.867930908203125,0.03003978729248047,0.017131898552179337,0.0004982203245162964
1761132069605931000,0.877930908203125,0.030040740966796875,0.012398011982440948,-0.0019410252571105957
1761132069615930000,0.88793017578125,0.03961658477783203,0.005202837288379669,-0.016245350241661072
1761132069625930000,0.897929931640625,0.02764415740966797,-0.004426032304763794,0.0005786269903182983
1761132069635930000,0.90793017578125,0.030038833618164062,0.00515090674161911,-0.018574945628643036
1761132069645930000,0.917929931640625,0.04200935363769531,0.005065612494945526,0.005316257476806641
1761132069655930000,0.92793017578125,0.042008399963378906,0.005194716155529022,0.005421280860900879
1761132069665930000,0.937929931640625,0.030035972595214844,0.009979024529457092,-0.018381796777248383
1761132069675930000,0.94793017578125,0.02045917510986328,-0.01869286224246025,-0.0040225982666015625
1761132069685930000,0.957929931640625,0.02764129638671875,0.02198905125260353,0.010344624519348145
1761132069695930000,0.96793017578125,0.030037879943847656,-0.0019457601010799408,0.00783124566078186
1761132069705930000,0.977929931640625,0.042006492614746094,0.002717670053243637,-0.0303448885679245
1761132069715931000,0.987930908203125,0.037217140197753906,0.00030998513102531433,-0.01591913402080536
1761132069725931000,0.997930908203125,0.027640342712402344,-0.00693141296505928,-0.003942206501960754
1761132069735930400,1.007930419921875,0.02764129638671875,-0.006820768117904663,-0.004012927412986755
1761132069745930500,1.017930419921875,0.027640342712402344,0.005019299685955048,-0.015911519527435303
1761132069755930400,1.027930419921875,0.03482246398925781,0.0171760655939579,0.015292644500732422
1761132069765930500,1.037930419921875,0.02285003662109375,0.012249477207660675,0.008104726672172546
1761132069775930600,1.0479306640625,0.025244712829589844,-0.006897591054439545,0.0081634521484375
1761132069785930500,1.057930419921875,0.03721427917480469,0.00506238266825676,0.0010609328746795654
1761132069795930600,1.0679306640625,0.042000770568847656,0.007401233538985252,-0.018047817051410675
1761132069805930500,1.077930419921875,0.03721427917480469,0.014638485386967659,0.0034549981355667114
1761132069815929600,1.0879296875,0.03003215789794922,0.009850520640611649,-0.006121784448623657
1761132069825929700,1.0979296875,0.025244712829589844,0.014751529321074486,0.0010097324848175049
1761132069835929600,1.1079296875,0.04918670654296875,0.007502099499106407,0.010514438152313232
1761132069845929700,1.1179296875,0.02763843536376953,0.012270603328943253,-0.013425737619400024
1761132069855929600,1.1279296875,0.025244712829589844,0.0026352666318416595,-0.0038428902626037598
1761132069865929700,1.1379296875,0.025244712829589844,0.002636183053255081,-0.0038425475358963013
1761132069875929600,1.1479296875,0.020455360412597656,-0.004559915512800217,-0.008570432662963867
1761132069885929700,1.1579296875,0.04439735412597656,-0.006828580051660538,-0.015687018632888794
1761132069895929600,1.1679296875,0.03242683410644531,-0.006775286048650742,-0.0013860464096069336
1761132069905929700,1.1779296875,0.037215232849121094,0.017205752432346344,0.015369340777397156
1761132069915930400,1.187930419921875,0.039610862731933594,0.0028926506638526917,-0.00624316930770874
1761132069925930500,1.197930419921875,0.03003406524658203,0.0004987120628356934,0.00572793185710907
1761132069935930400,1.207930419921875,0.025246620178222656,0.014961911365389824,-0.0014646798372268677
1761132069945930500,1.217930419921875,0.030033111572265625,-0.008932661265134811,0.0010036975145339966
1761132069955930400,1.227930419921875,0.030035018920898438,0.0030303150415420532,-0.0014685392379760742
1761132069965930500,1.237930419921875,0.02763843536376953,0.010080758482217789,-0.0109921395778656
1761132069975930400,1.247930419921875,0.02763843536376953,0.010023467242717743,-0.010985791683197021
1761132069985930500,1.257930419921875,0.025244712829589844,0.0003674514591693878,-0.0014203041791915894
1761132069995930400,1.267930419921875,0.030033111572265625,-0.001966215670108795,0.0009873807430267334
1761132070005930500,1.277930419921875,0.025243759155273438,0.005083389580249786,-0.0037479549646377563
1761132070015929600,1.2879296875,0.025241851806640625,0.016981206834316254,-0.0013065487146377563
1761132070025929700,1.2979296875,0.025243759155273438,0.00506218895316124,-0.0061597079038619995
1761132070035930000,1.30793017578125,0.032423973083496094,0.007448473945260048,-0.008434861898422241
1761132070045930000,1.317929931640625,0.030031204223632812,0.012231692671775818,-0.010887429118156433
1761132070055930000,1.32793017578125,0.03960895538330078,-0.006928332149982452,-0.01812870055437088
1761132070065930000,1.337929931640625,0.025244712829589844,0.012158721685409546,-0.003835514187812805
1761132070075930000,1.34793017578125,0.013273239135742188,0.009745795279741287,-0.013410016894340515
1761132070085930000,1.357929931640625,0.022849082946777344,0.03360937908291817,0.0033572763204574585
1761132070095930000,1.36793017578125,0.04439830780029297,0.016907144337892532,-0.008639022707939148
1761132070105930000,1.377929931640625,0.030033111572265625,0.0025634542107582092,0.0009552985429763794
1761132070115931000,1.387930908203125,0.046792030334472656,0.014530451968312263,-0.0062663257122039795
1761132070125931000,1.397930908203125,0.03960990905761719,0.004988647997379303,-0.006309375166893005
1761132070135931000,1.407930908203125,0.034821510314941406,-0.002311408519744873,-0.006297484040260315
1761132070155931000,1.427930908203125,0.013272285461425781,0.002284739166498184,0.012895897030830383
1761132070165931000,1.437930908203125,0.034820556640625,0.0022246018052101135,0.00569993257522583
1761132070175931000,1.447930908203125,0.046790122985839844,0.0022691190242767334,0.0009658485651016235
1761132070185931000,1.457930908203125,0.03003215789794922,0.011720392853021622,-0.003888562321662903
1761132070195931000,1.467930908203125,0.02524280548095703,0.001946479082107544,-0.018253229558467865
1761132070205931000,1.477930908203125,0.0324249267578125,0.02355203777551651,-0.0015001147985458374
1761132070215930000,1.48793017578125,0.030030250549316406,0.016362357884645462,-0.0013809055089950562
1761132070225930200,1.49793017578125,0.027632713317871094,0.006799595430493355,0.00833246111869812
1761132070235930000,1.50793017578125,0.02284526824951172,0.023675937205553055,-0.0012564212083816528
1761132070245930200,1.51793017578125,0.04678821563720703,-0.005099527537822723,0.015448465943336487
1761132070255930000,1.52793017578125,0.027634620666503906,0.004535812884569168,-0.006105378270149231
1761132070265930200,1.53793017578125,0.04678821563720703,0.002122495323419571,-0.001314803957939148
1761132070275930000,1.54793017578125,0.03960704803466797,-0.012131676077842712,0.0010088235139846802
1761132070285930200,1.55793017578125,0.025239944458007812,-0.012139540165662766,-0.006054878234863281
1761132070295930000,1.56793017578125,0.0276336669921875,0.028548266738653183,0.0035824328660964966
1761132070309365800,1.58136572265625,0.05636405944824219,-0.000059470534324645996,-0.005948051810264587
1761132070319366400,1.591366455078125,0.034816741943359375,0.0070976074784994125,-0.0036103427410125732
1761132070329366500,1.601366455078125,0.022846221923828125,0.007090749219059944,-0.020428471267223358
1761132070339366400,1.611366455078125,0.025241851806640625,-0.00009870901703834534,-0.01091034710407257
1761132070349366500,1.621366455078125,0.02524089813232422,0.011855889111757278,-0.015658080577850342
1761132070359366400,1.631366455078125,0.020452499389648438,-0.01687374711036682,-0.003686770796775818
1761132070369366500,1.641366455078125,0.04918193817138672,0.014178859069943428,-0.0012260079383850098
1761132070379366400,1.651366455078125,0.046787261962890625,-0.00014688819646835327,-0.001230001449584961
1761132070389366500,1.661366455078125,0.042000770568847656,0.019117707386612892,0.017853155732154846
1761132070399366400,1.671366455078125,0.03721427917480469,0.009606502950191498,0.003362715244293213
1761132070409366500,1.681366455078125,0.025244712829589844,0.02167065441608429,0.010496124625205994
1761132070419365600,1.69136572265625,0.046792030334472656,-0.021427948027849197,0.000899583101272583
1761132070429365800,1.70136572265625,0.018060684204101562,0.014413060620427132,0.015331357717514038
1761132070439365600,1.71136572265625,0.030030250549316406,0.007162889465689659,-0.0013224631547927856
1761132070449365500,1.721365478515625,0.037212371826171875,0.004808884114027023,-0.013278141617774963
1761132070459365600,1.73136572265625,0.03960609436035156,0.00008542835712432861,0.001139715313911438
1761132070469365500,1.741365478515625,0.032423973083496094,0.009653810411691666,0.005849927663803101
1761132070479365600,1.75136572265625,0.037212371826171875,0.0216059610247612,-0.018089838325977325
1761132070489365500,1.761365478515625,0.010876655578613281,0.004905521869659424,-0.0037306100130081177
1761132070499365600,1.77136572265625,0.03960895538330078,-0.0070134177803993225,-0.0014009922742843628
1761132070509365500,1.781365478515625,0.032425880432128906,0.02642134390771389,0.0033369064331054688
1761132070519366400,1.791366455078125,0.02045440673828125,-0.009559683501720428,-0.018105320632457733
1761132070529366300,1.8013662109375,0.044394493103027344,0.0023397430777549744,-0.02761554718017578
1761132070539366400,1.811366455078125,0.010874748229980469,-0.0024426355957984924,0.0011734068393707275
1761132070549366500,1.821366455078125,0.03721046447753906,0.014303674921393394,-0.003554314374923706
1761132070559366400,1.831366455078125,0.027632713317871094,-0.00001578405499458313,0.0012887120246887207
1761132070569366500,1.841366455078125,0.02045154571533203,0.0023707784712314606,0.0036050379276275635
1761132070579366400,1.851366455078125,0.025241851806640625,0.0049373917281627655,0.015519127249717712
1761132070589366500,1.861366455078125,0.02524280548095703,0.0048668235540390015,0.01540808379650116
1761132070599366400,1.871366455078125,0.03003215789794922,-0.0023238621652126312,0.0009649693965911865
1761132070609366500,1.881366455078125,0.03960704803466797,0.014363976195454597,-0.015727877616882324
1761132070619365600,1.89136572265625,0.03960895538330078,0.028840620070695877,0.0033553242683410645
1761132070629365800,1.90136572265625,0.03960990905761719,0.012139741331338882,-0.008621707558631897
1761132070639365600,1.91136572265625,0.03242683410644531,-0.009392321109771729,-0.0014800280332565308
1761132070649365800,1.92136572265625,0.027640342712402344,0.002631198614835739,-0.008727192878723145
1761132070659365600,1.93136572265625,0.022851943969726562,0.0026897266507148743,-0.008733212947845459
1761132070669365800,1.94136572265625,0.03242778778076172,0.009792733937501907,-0.02310987561941147
1761132070679365600,1.95136572265625,0.02285289764404297,0.007569270208477974,-0.011196121573448181
1761132070689365800,1.96136572265625,0.032428741455078125,0.002808399498462677,-0.01112009584903717
1761132070699365600,1.97136572265625,0.044399261474609375,0.014748288318514824,-0.013432279229164124
1761132070709365500,1.981365478515625,0.027639389038085938,0.0004647374153137207,-0.011007249355316162
1761132070719366400,1.991366455078125,0.037215232849121094,0.010084964334964752,0.003393128514289856
1761132070729366500,2.001366455078125,0.03003406524658203,-0.004306610673666,-0.013422980904579163
1761132070739366400,2.011366455078125,0.03482246398925781,0.002858102321624756,0.012934610247612
1761132070749366500,2.021366455078125,0.05397510528564453,-0.011587150394916534,-0.0014420896768569946
1761132070759366400,2.031366455078125,0.03960990905761719,-0.004346150904893875,0.000946044921875
1761132070769366500,2.041366455078125,0.025244712829589844,0.012335613369941711,-0.0038341879844665527
1761132070779366400,2.051366455078125,0.03242683410644531,0.012393306940793991,0.010524839162826538
1761132070789366500,2.061366455078125,0.03003215789794922,0.0026843883097171783,0.0033953189849853516
1761132070799366400,2.071366455078125,0.037215232849121094,-0.00917401909828186,-0.0014441609382629395
1761132070809366500,2.081366455078125,0.022851943969726562,0.00045451149344444275,-0.01826842874288559
1761132070819365600,2.09136572265625,0.04440021514892578,-0.0019008107483386993,-0.018272481858730316
1761132070829365500,2.101365478515625,0.025247573852539062,-0.004242945462465286,0.0008165538311004639
1761132070839365600,2.11136572265625,0.02764129638671875,0.01491066999733448,0.0032107532024383545
1761132070849365500,2.121365478515625,0.044402122497558594,0.000517532229423523,-0.008836448192596436
1761132070859365600,2.13136572265625,0.020461082458496094,0.017336305230855942,-0.011236488819122314
1761132070869365500,2.141365478515625,0.03482627868652344,0.012483350932598114,-0.008894801139831543
1761132070879365400,2.151365478515625,0.051586151123046875,0.010141659528017044,0.0006174594163894653
1761132070889365500,2.161365478515625,0.030038833618164062,0.007727818563580513,0.003013625741004944
1761132070899365400,2.171365478515625,0.025251388549804688,0.014907972887158394,0.02214770019054413
1761132070909365500,2.181365478515625,0.032431602478027344,0.022018998861312866,-0.016092926263809204
1761132070919366400,2.191366455078125,0.02285289764404297,0.005154967308044434,-0.006386891007423401
1761132070929366300,2.2013662109375,0.044399261474609375,0.009791307151317596,-0.013514414429664612
1761132070939366400,2.211366455078125,0.04679107666015625,0.00016963109374046326,0.0009932518005371094
1761132070949366300,2.2213662109375,0.02524280548095703,0.014521738514304161,-0.01809968799352646
1761132070959366400,2.231366455078125,0.020455360412597656,0.01222696527838707,-0.0013308525085449219
1761132070969366300,2.2413662109375,0.025241851806640625,0.021770376712083817,-0.0036626607179641724
1761132070979366400,2.251366455078125,0.025241851806640625,0.021772384643554688,-0.003643140196800232
1761132070989366300,2.2613662109375,0.03242206573486328,0.012104053050279617,-0.005968794226646423
1761132070999366400,2.271366455078125,0.03481864929199219,0.00014893338084220886,-0.01319226622581482
1761132071009366300,2.2813662109375,0.04199981689453125,-0.0022883042693138123,0.015503138303756714
1761132071019365400,2.291365478515625,0.03721141815185547,0.01439734734594822,0.008367687463760376
1761132071029365500,2.301365478515625,0.046787261962890625,-0.00002600252628326416,-0.01077975332736969
1761132071039365600,2.31136572265625,0.039605140686035156,0.009470369666814804,0.0011796355247497559
1761132071049365500,2.321365478515625,0.02284526824951172,-0.021595723927021027,-0.01558580994606018
1761132071059365600,2.33136572265625,0.018056869506835938,-0.0024552121758461,-0.010736733675003052
1761132071069365500,2.341365478515625,0.037209510803222656,0.009561281651258469,-0.0034995824098587036
1761132071079365600,2.35136572265625,0.039605140686035156,0.0023722127079963684,-0.022711746394634247
1761132071089365500,2.361365478515625,0.05157756805419922,0.01187688484787941,-0.006082877516746521
1761132071099365600,2.37136572265625,0.042000770568847656,0.011929262429475784,-0.03008948266506195
1761132071109365500,2.381365478515625,0.03481769561767578,0.007170403376221657,0.0059190839529037476
1761132071119366400,2.391366455078125,0.01805591583251953,0.011868458241224289,-0.010752424597740173
1761132071129366300,2.4013662109375,0.04439353942871094,0.014174969866871834,0.005917608737945557
1761132071139366400,2.411366455078125,0.034816741943359375,-0.0001691095530986786,0.005934983491897583
1761132071149366500,2.421366455078125,0.02524089813232422,0.01424860768020153,0.0034762173891067505
1761132071159366400,2.431366455078125,0.04199981689453125,0.007066262885928154,-0.0013120770454406738
1761132071169366500,2.441366455078125,0.030030250549316406,-0.002471528947353363,0.0010781139135360718
1761132071179366400,2.451366455078125,0.03481769561767578,0.007091788575053215,-0.013226553797721863
1761132071189366500,2.461366455078125,0.03481864929199219,0.01187177374958992,-0.008516356348991394
1761132071199366400,2.471366455078125,0.030029296875,0.01437116228044033,0.003522515296936035
1761132071209366500,2.481366455078125,0.027634620666503906,0.0071889478713274,-0.022813551127910614
1761132071219365600,2.49136572265625,0.044394493103027344,0.000027861446142196655,-0.008430853486061096
1761132071229365500,2.501365478515625,0.02524089813232422,0.009644728153944016,-0.0012329518795013428
1761132071239365600,2.51136572265625,0.04199981689453125,-0.0023067668080329895,-0.010811775922775269
1761132071249365500,2.521365478515625,0.03721141815185547,0.012058444321155548,-0.0012349635362625122
1761132071259365600,2.53136572265625,0.030029296875,0.0025202594697475433,-0.01799853891134262
1761132071269365500,2.541365478515625,0.030029296875,0.0025027580559253693,-0.006006032228469849
1761132071279365600,2.55136572265625,0.05157661437988281,0.012001004070043564,-0.005998209118843079
1761132071289365500,2.561365478515625,0.032421112060546875,-0.007166098803281784,-0.005937665700912476
1761132071299365600,2.57136572265625,0.03721046447753906,-0.011854942888021469,-0.01071658730506897
1761132071309365500,2.581365478515625,0.05396842956542969,0.0025027990341186523,-0.012991726398468018
1761132071319366400,2.591366455078125,0.037209510803222656,-0.004620883613824844,0.0037618130445480347
1761132071329366500,2.601366455078125,0.025238037109375,0.012118622660636902,-0.0034189224243164062
1761132071339366400,2.611366455078125,0.032421112060546875,-0.0021292679011821747,0.0037517398595809937
1761132071349366300,2.6213662109375,0.022844314575195312,0.012281380593776703,0.003806382417678833
1761132071359366400,2.631366455078125,0.032421112060546875,0.017128705978393555,0.008588925004005432
1761132071369366300,2.6413662109375,0.03481578826904297,-0.009226586669683456,-0.012956857681274414
1761132071379366400,2.651366455078125,0.032421112060546875,0.005256470292806625,0.0013966113328933716
1761132071389366300,2.6613662109375,0.030028343200683594,0.0027977190911769867,-0.015415310859680176
1761132071399366400,2.671366455078125,0.025239944458007812,0.005230940878391266,-0.01063092052936554
1761132071409366300,2.6813662109375,0.04199981689453125,0.024436667561531067,0.0036695897579193115
1761132071419365600,2.69136572265625,0.04199981689453125,0.024494674056768417,0.020422786474227905
1761132071429365500,2.701365478515625,0.039608001708984375,-0.01374097540974617,-0.025133639574050903
1761132071439365600,2.71136572265625,0.04439544677734375,0.0006717219948768616,0.02043023705482483
1761132071449365500,2.721365478515625,0.027634620666503906,0.005464140325784683,0.010892465710639954
1761132071459365600,2.73136572265625,0.027635574340820312,-0.02329225465655327,0.015624314546585083
1761132071469365500,2.741365478515625,0.027635574340820312,-0.004137802869081497,-0.001134917140007019
1761132071479365600,2.75136572265625,0.03481864929199219,0.024630669504404068,-0.008321762084960938
1761132071489365500,2.761365478515625,0.02524089813232422,0.003030739724636078,-0.001074463129043579
1761132071499365600,2.77136572265625,0.027634620666503906,0.010132510215044022,0.018067359924316406
1761132071509365500,2.781365478515625,0.03481769561767578,-0.018597517162561417,-0.013057097792625427
1761132071519366400,2.791366455078125,0.02284717559814453,0.005318578332662582,0.01082824170589447
1761132071529366300,2.8013662109375,0.03960609436035156,0.010046053677797318,-0.0011563897132873535
1761132071539366400,2.811366455078125,0.02284526824951172,0.007580230012536049,0.001304522156715393
1761132071549366500,2.821366455078125,0.02284526824951172,0.014821628108620644,0.010875403881072998
1761132071559366400,2.831366455078125,0.0276336669921875,0.026771506294608116,0.010858044028282166
1761132071569366300,2.8413662109375,0.02284717559814453,0.0003707371652126312,-0.0011654645204544067
1761132071579366400,2.851366455078125,0.039605140686035156,0.005204182118177414,-0.008293569087982178
1761132071589366300,2.8613662109375,0.049185752868652344,0.01962936483323574,-0.0012945681810379028
1761132071599366400,2.871366455078125,0.022849082946777344,0.014879586175084114,0.003489658236503601
1761132071609366300,2.8813662109375,0.025244712829589844,-0.006699774414300919,-0.013384804129600525
1761132071619365600,2.89136572265625,0.02045726776123047,-0.004308104515075684,0.003354892134666443
1761132071629365500,2.901365478515625,0.027640342712402344,-0.0018622353672981262,0.012866988778114319
1761132071639365600,2.91136572265625,0.032428741455078125,-0.00905047357082367,0.015202820301055908
1761132071649365500,2.921365478515625,0.022850990295410156,0.019548235461115837,0.00807344913482666
1761132071659365600,2.93136572265625,0.04200458526611328,0.017134524881839752,-0.006289765238761902
1761132071669365500,2.941365478515625,0.027639389038085938,0.009951524436473846,-0.00628991425037384
1761132071679365600,2.95136572265625,0.018062591552734375,0.01232621818780899,-0.01825890690088272
1761132071689365500,2.961365478515625,0.01806354522705078,0.0028025731444358826,-0.011140599846839905
1761132071699365600,2.97136572265625,0.039612770080566406,0.029132772237062454,0.00556027889251709
1761132071709365500,2.981365478515625,0.03721809387207031,0.00508517399430275,-0.01605553925037384
1761132071719366400,2.991366455078125,0.03242969512939453,-0.011711250990629196,-0.008849412202835083
1761132071729366300,3.0013662109375,0.030035018920898438,-0.006997264921665192,0.0031684935092926025
1761132071739366400,3.011366455078125,0.025247573852539062,-0.002214491367340088,0.024657920002937317
1761132071749366300,3.0213662109375,0.04679584503173828,-0.004556186497211456,0.0150165855884552
1761132071759366400,3.031366455078125,0.010883331298828125,0.0003356635570526123,0.003094002604484558
1761132071769366300,3.0413662109375,0.04918956756591797,-0.021106578409671783,0.02470982074737549
1761132071779366400,3.051366455078125,0.04918861389160156,-0.021174974739551544,0.02481524646282196
1761132071789366500,3.061366455078125,0.037217140197753906,0.019584542140364647,0.0008671879768371582
1761132071799366400,3.071366455078125,0.044399261474609375,0.009994689375162125,-0.020620055496692657
1761132071809366500,3.081366455078125,0.020456314086914062,0.007645526900887489,-0.010988742113113403
1761132071819365600,3.09136572265625,0.034820556640625,0.007751757279038429,-0.03246831148862839
1761132071829365500,3.101365478515625,0.02285003662109375,-0.006555311381816864,0.01062116026878357
1761132071839365400,3.111365478515625,0.03242683410644531,0.007789993658661842,-0.010924801230430603
1761132071849365500,3.121365478515625,0.05636882781982422,0.01987806148827076,-0.0181194469332695
1761132071859365400,3.131365478515625,0.025244712829589844,-0.020843319594860077,-0.00854066014289856
1761132071869365500,3.141365478515625,0.02524566650390625,-0.020909883081912994,-0.00861269235610962
1761132071879365400,3.151365478515625,0.027639389038085938,0.0030325762927532196,0.015329360961914062
1761132071889365500,3.161365478515625,0.027637481689453125,-0.0017053335905075073,0.017836526036262512
1761132071899365400,3.171365478515625,0.02763843536376953,-0.0017117485404014587,0.017777860164642334
1761132071909365500,3.181365478515625,0.027639389038085938,0.014903457835316658,0.010531425476074219
1761132071919366400,3.191366455078125,0.03242683410644531,-0.006518431007862091,-0.0013734251260757446
1761132071929366300,3.2013662109375,0.022850990295410156,0.005308367311954498,-0.011014074087142944
1761132071939366400,3.211366455078125,0.013274192810058594,0.012490972876548767,-0.013408273458480835
1761132071949366300,3.2213662109375,0.032428741455078125,-0.0065529607236385345,0.0008859932422637939
1761132071959366400,3.231366455078125,0.02285289764404297,0.0005037188529968262,0.003214031457901001
1761132071969366300,3.2413662109375,0.015672683715820312,0.019703811034560204,-0.006485864520072937
1761132071979366400,3.251366455078125,0.027642250061035156,0.005319539457559586,0.007881373167037964
1761132071989366300,3.2613662109375,0.034827232360839844,0.01973680965602398,-0.0017599910497665405
1761132071999366400,3.271366455078125,0.04919147491455078,-0.009054146707057953,-0.004167675971984863
1761132072009366300,3.2813662109375,0.020462989807128906,0.012467347085475922,-0.004224509000778198
1761132072019365400,3.291365478515625,0.03003978729248047,0.010073404759168625,-0.028166428208351135
1761132072029365500,3.301365478515625,0.05158710479736328,0.010054294019937515,0.005354553461074829
1761132072039365600,3.31136572265625,0.03722095489501953,-0.0067006610333919525,-0.013760015368461609
1761132072049365500,3.321365478515625,0.03482627868652344,-0.008989281952381134,0.005461588501930237
1761132072059365600,3.33136572265625,0.00849151611328125,0.017457924783229828,0.0029969513416290283
1761132072069365500,3.341365478515625,0.04201030731201172,0.010210767388343811,0.014915451407432556
1761132072079365400,3.351365478515625,0.04440498352050781,-0.006568551063537598,0.0005521029233932495
1761132072089365500,3.361365478515625,0.020462989807128906,0.0005398988723754883,-0.011371910572052002
1761132072099365400,3.371365478515625,0.04440498352050781,0.0029284730553627014,0.0005407184362411499
1761132072109365500,3.381365478515625,0.04440498352050781,0.007656337693333626,-0.0042611658573150635
1761132072119366400,3.391366455078125,0.04440593719482422,0.007649527862668037,-0.00431998074054718
1761132072129366300,3.4013662109375,0.01806926727294922,0.005294740200042725,0.005252942442893982
1761132072139366400,3.411366455078125,0.0252532958984375,0.019712457433342934,0.005188390612602234
1761132072149366300,3.4213662109375,0.039618492126464844,0.007720964029431343,-0.006780847907066345
1761132072159366400,3.431366455078125,0.04440593719482422,0.005319744348526001,-0.02820955216884613
1761132072169366300,3.4413662109375,0.046799659729003906,-0.004198979586362839,0.0076974183320999146
1761132072179366400,3.451366455078125,0.03482818603515625,0.007758544757962227,-0.009001463651657104
1761132072189366300,3.4613662109375,0.025251388549804688,0.007758544757962227,-0.004213050007820129
1761132072199366400,3.471366455078125,0.03482818603515625,0.005283508449792862,0.010140389204025269
1761132072209366300,3.4813662109375,0.03243255615234375,0.01490575261414051,0.0054066479206085205
1761132072219365600,3.49136572265625,0.008490562438964844,0.007781544700264931,-0.0017820149660110474
1761132072229365500,3.501365478515625,0.013278007507324219,0.0029800496995449066,0.0006728619337081909
1761132072239365400,3.511365478515625,0.04200935363769531,0.007643362507224083,0.0006068646907806396
1761132072249365500,3.521365478515625,0.037220001220703125,-0.004341524094343185,-0.013697966933250427
1761132072259365400,3.531365478515625,0.015672683715820312,0.024388503283262253,-0.0041212886571884155
1761132072269365500,3.541365478515625,0.020461082458496094,0.01239798590540886,0.0030633211135864258
1761132072279365400,3.551365478515625,0.03961467742919922,-0.004243586212396622,-0.008919447660446167
1761132072289365500,3.561365478515625,0.032431602478027344,-0.006657026708126068,-0.008917346596717834
1761132072299365400,3.571365478515625,0.03482627868652344,0.005253441631793976,0.005434378981590271
1761132072309365500,3.581365478515625,0.03243255615234375,0.007700594142079353,-0.0018127411603927612
1761132072319366400,3.591366455078125,0.030037879943847656,0.019657665863633156,0.02458396553993225
1761132072329366300,3.6013662109375,0.022855758666992188,0.014908729121088982,0.005426362156867981
1761132072339366400,3.611366455078125,0.010885238647460938,-0.021069291979074478,-0.013779759407043457
1761132072349366300,3.6213662109375,0.020461082458496094,0.012440059334039688,0.007867604494094849
1761132072359366400,3.631366455078125,0.0420074462890625,0.007638039067387581,-0.023196525871753693
1761132072369366300,3.6413662109375,0.022853851318359375,0.007512951269745827,0.0006794929504394531
1761132072379366400,3.651366455078125,0.030037879943847656,-0.004406340420246124,-0.01375056803226471
1761132072389366300,3.6613662109375,0.015672683715820312,0.009881224483251572,0.003017023205757141
1761132072399366400,3.671366455078125,0.018065452575683594,0.005098450928926468,-0.004107192158699036
1761132072409366300,3.6813662109375,0.03243064880371094,0.014714280143380165,0.003071397542953491
1761132072419365600,3.69136572265625,0.030038833618164062,-0.009300768375396729,0.002940818667411804
1761132072429365500,3.701365478515625,0.04919147491455078,-0.006855625659227371,-0.025676608085632324
1761132072439365400,3.711365478515625,0.037220001220703125,-0.011644423007965088,-0.004128932952880859
1761132072449365500,3.721365478515625,0.037220001220703125,0.009942807257175446,0.0006555914878845215
1761132072459365400,3.731365478515625,0.042008399963378906,-0.0019095316529273987,0.005451306700706482
1761132072469365500,3.741365478515625,0.025251388549804688,0.010171666741371155,-0.004196241497993469
1761132072479365400,3.751365478515625,0.025251388549804688,-0.006549641489982605,0.0077703893184661865
1761132072489365500,3.761365478515625,0.03961658477783203,0.0030259303748607635,-0.006595134735107422
1761132072499365400,3.771365478515625,0.020462989807128906,0.007853744551539421,-0.006599009037017822
1761132072509365500,3.781365478515625,0.030040740966796875,-0.0017290860414505005,-0.006657525897026062
1761132072519366400,3.791366455078125,0.025252342224121094,0.0007167793810367584,0.005248755216598511
1761132072529366300,3.8013662109375,0.03004169464111328,0.007956994697451591,0.0028481781482696533
1761132072539366400,3.811366455078125,0.03483104705810547,0.01032605767250061,-0.006785005331039429
1761132072549366300,3.8213662109375,0.027647972106933594,0.010384980589151382,-0.016367673873901367
1761132072559366400,3.831366455078125,0.030043601989746094,0.01756155863404274,0.002727404236793518
1761132072569366300,3.8413662109375,0.02286052703857422,0.012812171131372452,0.002723380923271179
1761132072579366400,3.851366455078125,0.034832000732421875,0.01772366464138031,-0.0068069398403167725
1761132072589366300,3.8613662109375,0.01807117462158203,-0.006270859390497208,-0.011530786752700806
1761132072599366400,3.871366455078125,0.030042648315429688,0.015401074662804604,-0.006676629185676575
1761132072609366300,3.8813662109375,0.027647972106933594,0.015420584008097649,0.0076865702867507935
1761132072619365600,3.89136572265625,0.03004169464111328,0.020171979442238808,0.000527501106262207
1761132072629365500,3.901365478515625,0.06116676330566406,0.010553751140832901,-0.0018823444843292236
1761132072639365600,3.91136572265625,0.020463943481445312,-0.0014705471694469452,0.012547135353088379
1761132072649365500,3.921365478515625,0.01806926727294922,-0.0014097467064857483,-0.0018045008182525635
1761132072659365600,3.93136572265625,0.03483104705810547,-0.020578261464834213,0.010029777884483337
1761132072669365500,3.941365478515625,0.042011260986328125,0.015327705070376396,-0.025764048099517822
1761132072679365600,3.95136572265625,0.03243446350097656,0.010578319430351257,0.002962350845336914
1761132072689365500,3.961365478515625,0.032433509826660156,0.010629385709762573,-0.018472425639629364
1761132072699365600,3.97136572265625,0.044403076171875,0.005833972245454788,-0.0063823312520980835
1761132072709365500,3.981365478515625,0.03003978729248047,-0.008404847234487534,-0.020859189331531525
1761132072719366400,3.991366455078125,0.037222862243652344,0.0011500008404254913,-0.006511524319648743
1761132072729366300,4.0013662109375,0.03482818603515625,0.005999382585287094,-0.020863212645053864
1761132072739366400,4.011366455078125,0.027645111083984375,0.01074916124343872,0.003082975745201111
1761132072749366300,4.0213662109375,0.022857666015625,-0.003680609166622162,0.01978987455368042
1761132072759366400,4.031366455078125,0.027645111083984375,-0.010856788605451584,-0.018458671867847443
1761132072769366300,4.0413662109375,0.020462989807128906,0.025037173181772232,0.0006969869136810303
1761132072779366400,4.051366455078125,0.025252342224121094,0.01784569025039673,0.005407184362411499
1761132072789366500,4.061366455078125,0.03961753845214844,-0.00132756307721138,-0.013744473457336426
1761132072799366400,4.071366455078125,0.03722095489501953,0.020213188603520393,-0.01601944863796234
1761132072809366500,4.081366455078125,0.022855758666992188,-0.003748733550310135,0.0031360089778900146
1761132072819365600,4.09136572265625,0.03722095489501953,-0.0013744309544563293,0.005532070994377136
1761132072829365500,4.101365478515625,0.030037879943847656,0.015371499583125114,-0.023137815296649933
1761132072839365600,4.11136572265625,0.022855758666992188,-0.0014553144574165344,0.007914617657661438
1761132072849365500,4.121365478515625,0.03243255615234375,-0.0013372227549552917,0.007921844720840454
1761132072859365600,4.13136572265625,0.025249481201171875,0.008284633979201317,-0.006388857960700989
1761132072869365500,4.141365478515625,0.032433509826660156,0.01557871513068676,-0.006459414958953857
1761132072879365400,4.151365478515625,0.04201030731201172,0.02034839428961277,-0.0040628910064697266
1761132072889365500,4.161365478515625,0.01567554473876953,-0.001228582113981247,0.012601122260093689
1761132072899365000,4.171365234375,0.01567554473876953,-0.0011895596981048584,0.012597113847732544
1761132072909365000,4.181364990234375,0.04440593719482422,0.008384713903069496,-0.01854722946882248
1761132072919366000,4.191365966796875,0.02764606475830078,0.001182597130537033,0.02933882176876068
1761132072929366000,4.201365966796875,0.044406890869140625,-0.0037305131554603577,-0.01142844557762146
1761132072939366000,4.211365966796875,0.027647018432617188,0.00824049673974514,-0.01142844557762146
1761132072949366000,4.221365966796875,0.034829139709472656,0.010622058063745499,0.002997487783432007
1761132072959366000,4.231365966796875,0.025251388549804688,-0.0037562400102615356,0.005452364683151245
1761132072969366000,4.241365966796875,0.037222862243652344,-0.01328054815530777,-0.004188984632492065
1761132072979366000,4.251365966796875,0.03243446350097656,0.010706514120101929,-0.020893894135951996
1761132072989366000,4.261365966796875,0.03722190856933594,0.003468874841928482,-0.006483837962150574
1761132072999366000,4.271365966796875,0.03003978729248047,-0.01098039373755455,-0.0017459243535995483
1761132073009366000,4.281365966796875,0.03243541717529297,0.017737578600645065,0.0029252618551254272
1761132073019365000,4.291365234375,0.022857666015625,0.0010427199304103851,0.0029777586460113525
1761132073029365000,4.301364990234375,0.022857666015625,0.015446947887539864,-0.00899726152420044
1761132073039365000,4.311365234375,0.03483009338378906,0.005863673985004425,0.0005210041999816895
1761132073049365200,4.321365234375,0.03483104705810547,0.0083164032548666,0.007697567343711853
1761132073059365000,4.331365234375,0.039618492126464844,0.02272612974047661,0.0005692839622497559
1761132073069365200,4.341365234375,0.02764892578125,0.0011658668518066406,0.007634669542312622
1761132073079365000,4.351365234375,0.03962230682373047,0.003666255623102188,0.005111798644065857
1761132073089365000,4.361364990234375,0.04201698303222656,0.013176105916500092,0.009828060865402222
1761132073099365000,4.371365234375,0.030046463012695312,0.0013237707316875458,-0.006924062967300415
1761132073109365000,4.381364990234375,0.03722858428955078,0.022791534662246704,-0.006935536861419678
1761132073119366000,4.391365966796875,0.027652740478515625,0.0012952499091625214,-0.018971316516399384
1761132073129366000,4.401365966796875,0.018074989318847656,0.020428957417607307,-0.011786863207817078
1761132073139366000,4.411365966796875,0.01807689666748047,0.02039739303290844,-0.011901915073394775
1761132073149366000,4.421365966796875,0.034836769104003906,-0.0012093931436538696,0.00007511675357818604
1761132073159366000,4.431365966796875,0.03483772277832031,-0.0035510994493961334,0.007193148136138916
1761132073169366000,4.441365966796875,0.049202919006347656,-0.017935816198587418,-0.002381637692451477
1761132073179366000,4.451365966796875,0.03962516784667969,-0.005919892340898514,0.009643837809562683
1761132073189366000,4.461365966796875,0.01568317413330078,0.01316014677286148,0.009690925478935242
1761132073199366400,4.471366455078125,0.022864341735839844,0.003589365631341934,0.0025668293237686157
1761132073209366300,4.4813662109375,0.027652740478515625,0.01320435106754303,0.00016842782497406006
1761132073219365400,4.491365478515625,0.051593780517578125,-0.015539158135652542,0.021776944398880005
1761132073229365500,4.501365478515625,0.032440185546875,-0.0011743418872356415,-0.006953626871109009
1761132073239365400,4.511365478515625,0.037227630615234375,-0.0012479647994041443,0.007458791136741638
1761132073249365500,4.521365478515625,0.02525806427001953,-0.010830927640199661,-0.01893601566553116
1761132073259365400,4.531365478515625,0.022861480712890625,-0.0013196617364883423,0.0003427267074584961
1761132073269365500,4.541365478515625,0.015679359436035156,-0.006069887429475784,0.009915336966514587
1761132073279365400,4.551365478515625,0.008496284484863281,0.017930656671524048,0.012303516268730164
1761132073289365500,4.561365478515625,0.04441070556640625,0.013181276619434357,0.00751107931137085
1761132073299365400,4.571365478515625,0.042016029357910156,0.015632634982466698,0.0027162879705429077
1761132073309365500,4.581365478515625,0.025255203247070312,0.0010771937668323517,-0.02595485746860504
1761132073319366400,4.591366455078125,0.022861480712890625,-0.015807759016752243,-0.011655643582344055
1761132073329366300,4.6013662109375,0.03243827819824219,0.00322120264172554,-0.006933197379112244
1761132073339366400,4.611366455078125,0.042016029357910156,-0.013624731451272964,-0.011791631579399109
1761132073349366300,4.6213662109375,0.013285636901855469,0.02707669697701931,-0.02376263588666916
1761132073359366400,4.631366455078125,0.02525806427001953,-0.013636786490678787,0.0024565309286117554
1761132073369366300,4.6413662109375,0.020470619201660156,0.007786327973008156,-0.014368712902069092
1761132073379366400,4.651366455078125,0.042018890380859375,0.0077799055725336075,0.004726216197013855
1761132073389366300,4.6613662109375,0.04201984405517578,-0.004197265952825546,0.021427050232887268
1761132073399366400,4.671366455078125,0.03004932403564453,-0.0018241889774799347,0.04295752942562103
1761132073409366300,4.6813662109375,0.056385040283203125,0.01738840341567993,0.02858629822731018
1761132073419365400,4.691365478515625,0.04202079772949219,0.012574013322591782,0.002193540334701538
1761132073429365500,4.701365478515625,0.008502960205078125,-0.004071962088346481,0.0021426230669021606
1761132073439365400,4.711365478515625,0.030051231384277344,-0.0015550702810287476,-0.026541486382484436
1761132073449365500,4.721365478515625,0.042021751403808594,0.02476203441619873,-0.03132772445678711
1761132073459365400,4.731365478515625,0.03244495391845703,0.020091531798243523,-0.05049321800470352
1761132073469365500,4.741365478515625,0.037232398986816406,0.0104592926800251,-0.01692970097064972
1761132073479365400,4.751365478515625,0.04202079772949219,-0.0015646666288375854,-0.009682565927505493
1761132073489365500,4.761365478515625,0.022866249084472656,-0.020695142447948456,0.002325311303138733
1761132073499365400,4.771365478515625,0.03244304656982422,0.02004730887711048,-0.00005340576171875
1761132073509365500,4.781365478515625,0.030050277709960938,0.0009283050894737244,0.0429990291595459
1761132073519366400,4.791366455078125,0.04920387268066406,-0.003742009401321411,0.023852646350860596
1761132073529366300,4.8013662109375,0.03483867645263672,0.005814891308546066,0.01667189598083496
1761132073539366400,4.811366455078125,0.01568603515625,-0.0013152100145816803,-0.016911491751670837
1761132073549366300,4.8213662109375,0.02287006378173828,-0.010839127004146576,-0.009793281555175781
1761132073559366400,4.831366455078125,0.03244495391845703,0.020330941304564476,-0.0193154439330101
1761132073569366300,4.8413662109375,0.02286815643310547,0.0179232619702816,-0.02404329925775528
1761132073579366400,4.851366455078125,0.030050277709960938,0.017908800393342972,-0.007223576307296753
1761132073589366300,4.8613662109375,0.03004932403564453,0.017770670354366302,-0.00722898542881012
1761132073599366400,4.871366455078125,0.03004932403564453,0.022522464394569397,-0.0024169087409973145
1761132073609366300,4.8813662109375,0.030050277709960938,0.022518835961818695,-0.002455770969390869
1761132073619365600,4.89136572265625,0.0396270751953125,-0.011001992970705032,0.019072532653808594
1761132073629365500,4.901365478515625,0.04441356658935547,0.01766088232398033,0.0167839378118515
1761132073639365600,4.91136572265625,0.020471572875976562,-0.00628170371055603,0.011995464563369751
1761132073649365500,4.921365478515625,-0.005864143371582031,-0.013530440628528595,0.0286828875541687
1761132073659365600,4.93136572265625,-0.00586700439453125,-0.006368763744831085,0.024074077606201172
1761132073669365500,4.941365478515625,0.027647972106933594,0.029307104647159576,0.007497027516365051
1761132073679365600,4.95136572265625,0.08031845092773438,0.007427627220749855,-0.011622413992881775
1761132073689365500,4.961365478515625,0.08031558990478516,0.007051503285765648,-0.011445656418800354
1761132073699365600,4.97136572265625,-0.02263641357421875,0.02369832620024681,-0.06646121293306351
1761132073709365500,4.981365478515625,0.40831565856933594,0.0714113712310791,-0.07338960468769073
1761132073719366400,4.991366455078125,0.06115436553955078,0.02338331937789917,-0.046920254826545715
1761132073729366300,5.0013662109375,-0.19262409210205078,-0.04318181797862053,-0.04491002857685089
1761132073739366400,5.011366455078125,-0.039394378662109375,0.024354014545679092,-0.006555348634719849
1761132073749366300,5.0213662109375,0.04918670654296875,0.03131157159805298,0.027262762188911438
1761132073759366400,5.031366455078125,0.0779123306274414,-0.019076716154813766,0.07302044332027435
1761132073769366300,5.0413662109375,0.09467029571533203,-0.04795875772833824,0.09222915768623352
1761132073779366400,5.051366455078125,-0.027429580688476562,-0.04329764097929001,0.08955250680446625
1761132073789366500,5.061366455078125,0.08510112762451172,-0.0025634095072746277,0.0629567801952362
1761132073799366400,5.071366455078125,0.05876636505126953,0.019092896953225136,0.0077998340129852295
1761132073809366500,5.081366455078125,-0.0010833740234375,0.007468855008482933,-0.040356338024139404
1761132073819365600,5.09136572265625,-0.03220558166503906,0.029321182519197464,-0.09553299844264984
1761132073829365500,5.101365478515625,-0.010656356811523438,0.034082431346178055,-0.08603207767009735
1761132073839365600,5.11136572265625,0.06356239318847656,0.041214995086193085,-0.10749579966068268
1761132073849365500,5.121365478515625,0.044403076171875,0.02425841987133026,-0.09036080539226532
1761132073859365600,5.13136572265625,-0.00588226318359375,0.007162081077694893,-0.018165074288845062
1761132073869365500,5.141365478515625,-0.0034942626953125,-0.009932376444339752,0.0037718862295150757
1761132073879365400,5.151365478515625,0.03480815887451172,-0.022068344056606293,0.04718025028705597
1761132073889365500,5.161365478515625,0.01804637908935547,-0.03166928142309189,0.1071760505437851
1761132073899365400,5.171365478515625,-0.02265453338623047,-0.03199147805571556,0.09035123884677887
1761132073909365500,5.181365478515625,0.025228500366210938,-0.005993779748678207,0.08074988424777985
1761132073919366400,5.191366455078125,-0.9109048843383789,-0.05903184413909912,0.08543772995471954
1761132073929366300,5.2013662109375,4.4832305908203125,0.17995108664035797,-0.24260173738002777
1761132073939366400,5.211366455078125,0.20473480224609375,0.0887465700507164,-0.023462533950805664
1761132073949366300,5.2213662109375,-1.2532625198364258,-0.39198407530784607,-0.16929787397384644
1761132073959366400,5.231366455078125,-0.4631776809692383,0.23005282878875732,-0.03632771223783493
1761132073969366300,5.2413662109375,0.18802165985107422,0.17120754718780518,0.01763118803501129
1761132073979366400,5.251366455078125,0.41067981719970703,-0.010415744036436081,-0.0035367459058761597
1761132073989366300,5.2613662109375,0.1975727081298828,-0.0711490735411644,0.1176043152809143
1761132073999366400,5.271366455078125,-0.3315305709838867,-0.12199512869119644,0.16897478699684143
1761132074009366300,5.2813662109375,0.11858272552490234,-0.03417070955038071,0.07989585399627686
1761132074019365600,5.29136572265625,0.40828800201416016,0.0428786464035511,0.022055283188819885
1761132074029365500,5.301365478515625,-0.14238357543945312,0.048221465200185776,-0.018052376806735992
1761132074039365600,5.31136572265625,-0.2501182556152344,-0.05200806260108948,-0.035082124173641205
1761132074049365500,5.321365478515625,-0.09209728240966797,0.0007979162037372589,-0.10474465787410736
1761132074059365600,5.33136572265625,0.3268871307373047,0.08190372586250305,-0.10714790225028992
1761132074069365500,5.341365478515625,0.10182571411132812,0.06501135230064392,-0.10193170607089996
1761132074079365600,5.35136572265625,-0.1304159164428711,-0.04059102386236191,-0.04668087512254715
1761132074089365500,5.361365478515625,-0.11126232147216797,-0.0670837014913559,0.003613293170928955
1761132074099365400,5.371365478515625,0.26222896575927734,0.031393084675073624,0.025523468852043152
1761132074109365500,5.381365478515625,0.2622261047363281,0.031605515629053116,0.025856688618659973
1761132074119366400,5.391366455078125,-0.17590999603271484,-0.04030517861247063,0.07588733732700348
1761132074129366300,5.4013662109375,-0.0059185028076171875,-0.10502021014690399,0.07318495213985443
1761132074139366400,5.411366455078125,0.199981689453125,-0.03559136763215065,0.06616047024726868
1761132074149366300,5.4213662109375,0.027596473693847656,0.06986510753631592,0.04473918676376343
1761132074159366400,5.431366455078125,-0.11126518249511719,0.0025306083261966705,0.013408705592155457
1761132074169366300,5.4413662109375,-2.4863147735595703,-0.14649882912635803,-0.06318435817956924
1761132074179366400,5.451366455078125,3.8104257583618164,0.37479811906814575,-0.1847892701625824
1761132074189366300,5.4613662109375,-0.8918190002441406,-0.13320088386535645,-0.06099448353052139
1761132074199366400,5.471366455078125,-0.5302267074584961,-0.2970913052558899,-0.1583978235721588
1761132074209366300,5.4813662109375,-0.6284170150756836,0.16706156730651855,0.033429428935050964
1761132074219365600,5.49136572265625,0.3364439010620117,0.05143773555755615,0.052458539605140686
1761132074229365500,5.501365478515625,0.4824810028076172,-0.003001287579536438,0.07253342866897583
1761132074239365400,5.511365478515625,0.3316364288330078,-0.044251274317502975,0.1617274433374405
1761132074249365500,5.521365478515625,-0.4847755432128906,-0.10744200646877289,0.1774001568555832
1761132074259365400,5.531365478515625,0.10660934448242188,-0.030960578471422195,0.07795022428035736
1761132074269365500,5.541365478515625,0.3843374252319336,0.1372571885585785,0.0038435906171798706
1761132074279365400,5.551365478515625,-0.0681619644165039,0.039421066641807556,-0.08263719081878662
1761132074289365500,5.561365478515625,-0.3746175765991211,-0.0467277392745018,-0.080405093729496
1761132074299365400,5.571365478515625,0.020433425903320312,0.0059282779693603516,-0.11684921383857727
1761132074309365500,5.581365478515625,0.28379154205322266,0.11850540339946747,-0.16923101246356964
1761132074319366400,5.591366455078125,0.08506202697753906,0.07993800938129425,-0.11823546886444092
1761132074329366300,5.6013662109375,-0.25731849670410156,-0.05709391087293625,-0.0241926908493042
1761132074339366400,5.611366455078125,-0.010724067687988281,-0.05251746624708176,0.08637621998786926
1761132074349366300,5.6213662109375,0.2957286834716797,0.02645696885883808,0.09160171449184418
1761132074359366400,5.631366455078125,0.0323638916015625,0.045419126749038696,0.11081430315971375
1761132074369366300,5.6413662109375,-3.2644505500793457,-0.16330784559249878,0.14655503630638123
1761132074379366400,5.651366455078125,4.547817230224609,0.3457387089729309,0.02511666715145111
1761132074389366300,5.6613662109375,-1.6938648223876953,-0.43593353033065796,0.031265705823898315
1761132074399366400,5.671366455078125,0.08990001678466797,-0.2506065368652344,-0.17695628106594086
1761132074409366300,5.6813662109375,-0.85345458984375,0.27008941769599915,0.02252267301082611
1761132074419365400,5.691365478515625,0.1688852310180664,0.08290430158376694,-0.050499968230724335
1761132074429365500,5.701365478515625,0.5710887908935547,-0.007543511688709259,-0.07272231578826904
1761132074439365400,5.711365478515625,0.46094512939453125,-0.05102396011352539,0.014139324426651001
1761132074449365500,5.721365478515625,-0.5398263931274414,-0.0618402324616909,0.09719647467136383
1761132074459365400,5.731365478515625,0.12337779998779297,0.024007517844438553,0.010153591632843018
1761132074469365500,5.741365478515625,0.43939876556396484,0.09381861984729767,0.0017605423927307129
1761132074479365400,5.751365478515625,0.0970306396484375,-0.0011208057403564453,-0.03655271232128143
1761132074489365500,5.761365478515625,-0.3889913558959961,-0.07038310170173645,-0.015081487596035004
1761132074499365400,5.771365478515625,-0.053791046142578125,-0.003412313759326935,-0.03747023642063141
1761132074509365500,5.781365478515625,0.3173046112060547,0.11881005764007568,-0.044270724058151245
1761132074519366400,5.791366455078125,0.1784353256225586,0.027737634256482124,-0.024673983454704285
1761132074529366300,5.8013662109375,-0.23815536499023438,-0.10195475071668625,0.042248040437698364
1761132074539366400,5.811366455078125,-0.0705575942993164,-0.05917362868785858,0.0370972603559494
1761132074549366300,5.8213662109375,0.3125171661376953,0.0630885437130928,0.0009907186031341553
1761132074559366400,5.831366455078125,0.08266925811767578,0.061039265245199203,-0.02965690940618515
1761132074569366300,5.8413662109375,-0.2189950942993164,-0.06810623407363892,0.0011181086301803589
1761132074579366400,5.851366455078125,-0.0322418212890625,-0.08709980547428131,0.0031601935625076294
1761132074589366300,5.8613662109375,0.1688699722290039,0.044876523315906525,-0.022989541292190552
1761132074599366400,5.871366455078125,0.1688671112060547,0.04505389183759689,-0.0228101909160614
1761132074609366300,5.8813662109375,-0.13519573211669922,-0.01496286690235138,-0.020458288490772247
1761132074619365600,5.89136572265625,-0.08492088317871094,-0.08471633493900299,0.03713423013687134
1761132074629365500,5.901365478515625,-1.4663820266723633,-0.04917924851179123,0.14764121174812317
1761132074639365600,5.91136572265625,6.779541015625,0.26881787180900574,-0.16559968888759613
1761132074649365500,5.921365478515625,0.2693214416503906,0.28708410263061523,0.12495231628417969
1761132074659365600,5.93136572265625,-2.0433831214904785,-0.6027135848999023,-0.099149689078331
1761132074669365500,5.941365478515625,-0.3818025588989258,0.2724992334842682,-0.018740348517894745
1761132074679365600,5.95136572265625,0.5279569625854492,0.27424854040145874,0.07171612977981567
1761132074689365500,5.961365478515625,0.6620502471923828,-0.002520740032196045,-0.0394616425037384
1761132074699365600,5.97136572265625,0.24303245544433594,-0.10685397684574127,0.0727653056383133
1761132074709365500,5.981365478515625,0.24305438995361328,-0.1073971539735794,0.07094770669937134
1761132074719366400,5.991366455078125,0.16644001007080078,-0.010258197784423828,0.09691628813743591
1761132074729366300,6.0013662109375,0.43459606170654297,0.1049530953168869,-0.018271170556545258
1761132074739366400,6.011366455078125,-0.14721012115478516,-0.002506200224161148,-0.05540403723716736
1761132074749366300,6.0213662109375,-0.2836751937866211,-0.11502516269683838,-0.019787833094596863
1761132074759366400,6.031366455078125,-0.096923828125,-0.009856641292572021,-0.06565363705158234
1761132074769366300,6.0413662109375,0.42501258850097656,0.12169897556304932,-0.08966180682182312
1761132074779366400,6.051366455078125,0.0970010757446289,0.12663857638835907,-0.07958735525608063
1761132074789366500,6.061366455078125,-0.20466995239257812,-0.10343325138092041,-0.04838024824857712
1761132074799366400,6.071366455078125,-0.16157245635986328,-0.08679390698671341,0.03760641813278198
1761132074809366300,6.0813662109375,0.3052988052368164,0.05489722639322281,0.013659223914146423
1761132074819365600,6.09136572265625,0.08263206481933594,0.11244972050189972,0.06444074213504791
1761132074829365500,6.101365478515625,-0.37705326080322266,-0.057839471846818924,0.11207990348339081
1761132074839365400,6.111365478515625,-1.272481918334961,-0.15886612236499786,0.08539749681949615
1761132074849365500,6.121365478515625,2.419363021850586,0.24985742568969727,0.009602576494216919
1761132074859365400,6.131365478515625,-0.6164951324462891,-0.10118643939495087,0.014840468764305115
1761132074869365500,6.141365478515625,-0.30998897552490234,-0.15345534682273865,-0.107759989798069
1761132074879365400,6.151365478515625,-0.5829410552978516,0.06709930300712585,0.02020704746246338
1761132074889365500,6.161365478515625,0.25264453887939453,0.002512618899345398,-0.0139089897274971
1761132074899365400,6.171365478515625,0.362762451171875,0.053189173340797424,-0.03906357288360596
1761132074909365200,6.181365234375,0.1209421157836914,-0.004765871912240982,0.02115786075592041
1761132074919366100,6.1913662109375,-0.3531045913696289,-0.07048895955085754,0.061142295598983765
1761132074929366300,6.2013662109375,0.16644287109375,-0.032357025891542435,0.02467554807662964
1761132074939366100,6.2113662109375,0.32206058502197266,0.07096592336893082,0.0036808550357818604
1761132074949366300,6.2213662109375,-0.00833892822265625,0.028117259964346886,-0.005802810192108154
1761132074959366100,6.2313662109375,-0.28127574920654297,-0.019903533160686493,-0.001197323203086853
1761132074969366300,6.2413662109375,0.061100006103515625,-0.0008781515061855316,-0.018436424434185028
1761132074979366100,6.2513662109375,0.2741813659667969,0.06380889564752579,-0.04454054683446884
1761132074989366300,6.2613662109375,0.07546043395996094,0.03748711198568344,-0.04919221252202988
1761132074999366100,6.2713662109375,-0.22860050201416016,-0.041722044348716736,0.0008507817983627319
1761132075009366300,6.2813662109375,-0.0011491775512695312,-0.027515865862369537,0.0221979022026062
1761132075019365400,6.291365478515625,0.298126220703125,0.04688185453414917,0.007834076881408691
1761132075029365200,6.301365234375,0.015607833862304688,0.03980778157711029,0.0057246387004852295
1761132075039365400,6.311365478515625,-0.1807117462158203,-0.05595816299319267,-0.008996069431304932
1761132075049365200,6.321365234375,0.00843048095703125,-0.02963404357433319,0.026800021529197693
1761132075059365400,6.331365478515625,0.17602157592773438,0.05912015587091446,0.007944375276565552
1761132075069365200,6.341365234375,0.0012426376342773438,0.02320607379078865,-0.018214069306850433
1761132075079365400,6.351365478515625,-0.07058334350585938,-0.04880371689796448,0.0032737255096435547
1761132075089365200,6.361365234375,-1.8590540885925293,-0.1067718043923378,0.0990939736366272
1761132075099365400,6.371365478515625,5.25920295715332,0.23031504452228546,-0.1162150502204895
1761132075109365200,6.381365234375,0.14242267608642578,0.1790933758020401,0.10139285027980804
1761132075119366100,6.3913662109375,-0.9348974227905273,-0.48921841382980347,-0.05905679613351822
1761132075129366300,6.4013662109375,-0.8989801406860352,0.12105756998062134,0.032954126596450806
1761132075139366100,6.4113662109375,0.46570682525634766,0.24210283160209656,0.06909516453742981
1761132075149366300,6.4213662109375,0.348388671875,0.0632978156208992,-0.014227397739887238
1761132075159366100,6.4313662109375,0.2430257797241211,-0.14861035346984863,0.015495970845222473
1761132075169366300,6.4413662109375,-0.6140861511230469,-0.13217748701572418,0.09584739804267883
1761132075179366100,6.4513662109375,0.22867679595947266,0.01765207201242447,0.06415575742721558
1761132075189366300,6.4613662109375,0.5375299453735352,0.14201824367046356,-0.05330397188663483
1761132075199366100,6.4713662109375,-0.06582260131835938,-0.028109051287174225,-0.08348739147186279
1761132075209366300,6.4813662109375,-0.33635807037353516,-0.14052116870880127,-0.024235695600509644
1761132075219365400,6.491365478515625,-0.11130046844482422,-0.0160118006169796,-0.010147511959075928
1761132075229365500,6.501365478515625,0.3771190643310547,0.11796781420707703,-0.048622287809848785
1761132075239365400,6.511365478515625,0.1352977752685547,0.09640079736709595,-0.05523082613945007
1761132075249365200,6.521365234375,-0.10891342163085938,-0.069127157330513,-0.007273808121681213
1761132075259365400,6.531365478515625,-0.10411834716796875,-0.09299944341182709,0.04733176529407501
1761132075269365500,6.541365478515625,0.2957143783569336,0.08945603668689728,0.016235142946243286
1761132075279365400,6.551365478515625,0.17360305786132812,0.0968187153339386,0.014433860778808594
1761132075289365500,6.561365478515625,-0.24298381805419922,-0.06119545176625252,0.04041498899459839
1761132075299365400,6.571365478515625,-0.17833518981933594,-0.1019158810377121,0.07356096804141998
1761132075309365500,6.581365478515625,-0.3148059844970703,0.012935791164636612,0.04012821614742279
1761132075319366400,6.591366455078125,0.8008832931518555,0.13464269042015076,-0.03834620118141174
1761132075329366300,6.6013662109375,0.6356658935546875,0.12121273577213287,-0.025416888296604156
1761132075339366100,6.6113662109375,-0.3291893005371094,-0.27461132407188416,-0.014312423765659332
1761132075349366300,6.6213662109375,-0.5039377212524414,-0.0901581346988678,-0.022934451699256897
1761132075359366400,6.631366455078125,0.05869579315185547,0.17626632750034332,-0.010420575737953186
1761132075369366300,6.6413662109375,0.06826591491699219,0.08988268673419952,-0.045918963849544525
1761132075379366400,6.651366455078125,0.07065296173095703,-0.07830601930618286,-0.0240144282579422
1761132075389366300,6.6613662109375,-0.10890674591064453,-0.06394598633050919,0.028224900364875793
1761132075399366400,6.671366455078125,0.11375236511230469,0.009918320924043655,0.05216372013092041
1761132075409366300,6.6813662109375,0.18558120727539062,0.06484820693731308,0.04240401089191437
1761132075419365400,6.691365478515625,-0.00595855712890625,-0.02135961875319481,0.01868075132369995
1761132075429365500,6.701365478515625,-0.04904937744140625,-0.06185377016663551,0.013614341616630554
1761132075439365400,6.711365478515625,-0.008344650268554688,0.02453792467713356,-0.008092164993286133
1761132075449365500,6.721365478515625,0.11375713348388672,0.07464295625686646,-0.02960226684808731
1761132075459365400,6.731365478515625,0.03953742980957031,-0.006957009434700012,-0.05114951729774475
1761132075469365500,6.741365478515625,0.0203857421875,-0.0715547725558281,-0.04648437350988388
1761132075479365400,6.751365478515625,0.02996540069580078,0.0005343817174434662,-0.03703320026397705
1761132075489365500,6.761365478515625,0.029962539672851562,0.0007137209177017212,-0.03683432936668396
1761132075499365400,6.771365478515625,0.04911327362060547,0.00800045020878315,0.0017185062170028687
1761132075509365500,6.781365478515625,-0.06341361999511719,-0.05405142903327942,0.032842665910720825
1761132075519366400,6.791366455078125,-0.005949974060058594,-0.013054657727479935,0.032654181122779846
1761132075529366300,6.8013662109375,0.0970001220703125,0.04445800185203552,0.054315343499183655
1761132075539366400,6.811366455078125,-0.22622013092041016,-0.025111868977546692,0.030564963817596436
1761132075549366300,6.8213662109375,-2.4025492668151855,-0.14254401624202728,-0.010124251246452332
1761132075559366400,6.831366455078125,2.7425756454467773,0.3690561354160309,-0.0044693052768707275
1761132075569366300,6.8413662109375,0.13287639617919922,-0.23102469742298126,0.01983724534511566
1761132075579366100,6.8513662109375,-0.647587776184082,-0.3664812445640564,-0.05690242350101471
1761132075589366000,6.861365966796875,-0.7361593246459961,0.15123134851455688,-0.011598214507102966
1761132075599366100,6.8713662109375,0.25502586364746094,0.1798904836177826,-0.003402024507522583
1761132075609366000,6.881365966796875,0.34360790252685547,-0.03559068962931633,-0.06529612839221954
1761132075619365400,6.891365478515625,0.056293487548828125,-0.11233119666576385,0.01920352876186371
1761132075629365200,6.901365234375,-0.20466899871826172,-0.07011491060256958,0.11189842224121094
1761132075639365400,6.911365478515625,-0.013121604919433594,0.09507395327091217,0.043994128704071045
1761132075649365200,6.921365234375,0.4489479064941406,0.06348921358585358,0.020750150084495544
1761132075659365400,6.931365478515625,-0.020315170288085938,-0.043967947363853455,-0.04384305328130722
1761132075669365200,6.941365234375,-0.28606700897216797,-0.03656727820634842,0.011043429374694824
1761132075679365400,6.951365478515625,-0.09452533721923828,0.05929121375083923,-0.03490917384624481
1761132075689365200,6.961365234375,-0.0945272445678711,0.05934189260005951,-0.03479628264904022
1761132075699365400,6.971365478515625,0.11615657806396484,0.006561789661645889,-0.06543651223182678
1761132075709365200,6.981365234375,-0.13283824920654297,-0.048665497452020645,-0.041714563965797424
1761132075719366100,6.9913662109375,-0.0729827880859375,0.02569132298231125,-0.005815580487251282
1761132075729366300,7.0013662109375,0.21910858154296875,0.04759889841079712,0.013577044010162354
1761132075739366100,7.0113662109375,0.04672431945800781,0.021416103467345238,0.0687859058380127
1761132075749366300,7.0213662109375,-0.1663532257080078,-0.07905087620019913,0.10423591732978821
1761132075759366100,7.0313662109375,-0.02988147735595703,-0.04315629228949547,0.08969497680664062
1761132075769366300,7.0413662109375,0.17362499237060547,0.05499085783958435,0.0490347295999527
1761132075779366100,7.0513662109375,-0.451263427734375,0.011786572635173798,0.051519155502319336
1761132075789366300,7.0613662109375,0.30770111083984375,-0.0556582547724247,-0.05174471437931061
1761132075799366100,7.0713662109375,0.7625789642333984,0.2469509243965149,-0.08885738253593445
1761132075809366300,7.0813662109375,0.0036115646362304688,-0.15028657019138336,-0.05558618903160095
1761132075819365400,7.091365478515625,-0.42970848083496094,-0.04944415017962456,-0.07388325035572052
1761132075829365500,7.101365478515625,-0.0274810791015625,0.07799042016267776,-0.02352234721183777
1761132075839365400,7.111365478515625,-0.11128044128417969,0.05217844620347023,-0.023221179842948914
1761132075849365200,7.121365234375,0.37473297119140625,-0.026839978992938995,0.02293989062309265
1761132075859365400,7.131365478515625,-0.14002132415771484,-0.014878448098897934,0.06613507866859436
1761132075869365200,7.141365234375,-0.0705862045288086,-0.07049528509378433,0.13281501829624176
1761132075879365600,7.15136572265625,0.10180377960205078,-0.02748700976371765,0.08666399121284485
1761132075889365500,7.161365478515625,0.20474910736083984,0.02017737738788128,-0.0015637725591659546
1761132075899365600,7.17136572265625,0.05391502380371094,0.015428369864821434,-0.015932835638523102
1761132075909365500,7.181365478515625,-0.11607170104980469,0.03691552206873894,-0.04008542001247406
1761132075919366400,7.191366455078125,0.018007278442382812,0.03215713053941727,-0.05472981929779053
1761132075929366300,7.2013662109375,0.15447616577148438,0.013179663568735123,-0.0665217936038971
1761132075939366400,7.211366455078125,0.08264827728271484,0.022832300513982773,-0.07592933624982834
1761132075949366300,7.2213662109375,-0.12325286865234375,0.039547745138406754,-0.02568630874156952
1761132075959366400,7.231366455078125,0.05391693115234375,-0.001350797712802887,0.0030446648597717285
1761132075969366300,7.2413662109375,0.14249897003173828,-0.01329772174358368,0.029614999890327454
1761132075979366400,7.251366455078125,0.14249897003173828,-0.013279840350151062,0.029593631625175476
1761132075989366300,7.2613662109375,0.010822296142578125,-0.008456986397504807,0.04371871054172516
1761132075999366400,7.271366455078125,0.056311607360839844,-0.0012807808816432953,0.04844842851161957
1761132076009366300,7.2813662109375,0.11855888366699219,0.020203718915581703,0.05098734796047211
1761132076019365600,7.29136572265625,-0.04903411865234375,-0.020605284720659256,0.014986813068389893
1761132076029365500,7.301365478515625,-0.0322723388671875,-0.03504550829529762,0.002865716814994812
1761132076039365600,7.31136572265625,0.08983230590820312,0.0077605415135622025,-0.016416035592556
1761132076049365500,7.321365478515625,0.07307052612304688,0.06270265579223633,-0.030650131404399872
1761132076059365600,7.33136572265625,0.07306957244873047,0.0626891702413559,-0.03058958798646927
1761132076069365500,7.341365478515625,0.03715705871582031,0.01228063553571701,-0.0355023592710495
1761132076079365600,7.35136572265625,0.051522254943847656,0.00023435801267623901,-0.004349902272224426
1761132076089365500,7.361365478515625,0.07307052612304688,0.043366190046072006,0.02435682713985443
1761132076099365400,7.371365478515625,0.025186538696289062,0.02184019237756729,0.01958589255809784
1761132076109365500,7.381365478515625,-0.008333206176757812,-0.02866029366850853,0.048260509967803955
1761132076119366400,7.391366455078125,0.044342994689941406,-0.04075456038117409,0.03365185856819153
1761132076129366300,7.4013662109375,0.0970144271850586,0.02130039408802986,0.03127788007259369
1761132076139366400,7.411366455078125,0.044342994689941406,0.038055796176195145,0.02884465456008911
1761132076149366300,7.4213662109375,-0.0011472702026367188,-0.002811744809150696,-0.02869769185781479
1761132076159366400,7.431366455078125,0.04434394836425781,-0.03150515258312225,-0.023932799696922302
1761132076169366300,7.4413662109375,0.04194927215576172,0.016417093575000763,-0.03590799868106842
1761132076179366400,7.451366455078125,0.02518939971923828,0.011634580790996552,-0.043032124638557434
1761132076189366300,7.4613662109375,-0.008329391479492188,0.006887199357151985,-0.04780501872301102
1761132076199366400,7.471366455078125,0.03955268859863281,0.011694088578224182,-0.023687392473220825
1761132076209366300,7.4813662109375,0.039551734924316406,0.011839885264635086,-0.02360406517982483
1761132076219365400,7.491365478515625,0.020397186279296875,0.004686441272497177,0.019586965441703796
1761132076229365500,7.501365478515625,0.02997303009033203,0.011915966868400574,0.01726675033569336
1761132076239365400,7.511365478515625,0.018001556396484375,-0.012028485536575317,0.017247214913368225
1761132076249365500,7.521365478515625,0.04194355010986328,-0.031182102859020233,0.019641414284706116
1761132076259365400,7.531365478515625,0.044338226318359375,0.011710833758115768,0.02676604688167572
1761132076269365500,7.541365478515625,0.0036373138427734375,-0.019479580223560333,0.0027523189783096313
1761132076279365400,7.551365478515625,0.01800060272216797,-0.005244538187980652,-0.021116986870765686
1761132076289365500,7.561365478515625,0.053913116455078125,0.0187425147742033,-0.00669725239276886
1761132076299365400,7.571365478515625,0.044335365295410156,0.02831185609102249,-0.025731787085533142
1761132076309365500,7.581365478515625,0.003635406494140625,0.02113395184278488,0.007648155093193054
1761132076319366400,7.591366455078125,0.022789955139160156,-0.009952206164598465,0.01003827154636383
1761132076329366300,7.6013662109375,0.044338226318359375,-0.009952206164598465,0.012432470917701721
1761132076339366400,7.611366455078125,0.02997112274169922,0.009004727005958557,0.010038837790489197
1761132076349366300,7.6213662109375,0.029970169067382812,-0.003098834306001663,0.014880329370498657
1761132076359366400,7.631366455078125,0.029972076416015625,-0.015023354440927505,0.021939843893051147
1761132076369366300,7.6413662109375,0.04194355010986328,0.02100309729576111,0.02188892662525177
1761132076379366400,7.651366455078125,0.0371551513671875,0.016196250915527344,0.007545024156570435
1761132076399366400,7.671366455078125,0.01800251007080078,-0.010067515075206757,-0.006886735558509827
1761132076409366300,7.6813662109375,0.039551734924316406,-0.007679332047700882,-0.026098862290382385
1761132076419365400,7.691365478515625,0.04673480987548828,0.013861650601029396,0.0001786649227142334
1761132076429365500,7.701365478515625,0.02518749237060547,0.004204798489809036,-0.004621237516403198
1761132076439365400,7.711365478515625,0.027581214904785156,-0.007829949259757996,-0.009461969137191772
1761132076449365500,7.721365478515625,0.049129486083984375,-0.024550344794988632,0.0025050342082977295
1761132076459365400,7.731365478515625,0.0419464111328125,-0.005397286266088486,0.014475971460342407
1761132076469365500,7.741365478515625,0.0419464111328125,-0.005358267575502396,0.014471963047981262
1761132076479365400,7.751365478515625,0.03237152099609375,-0.01494310051202774,0.02636490762233734
1761132076489365500,7.761365478515625,0.03715801239013672,-0.003101825714111328,0.02404344081878662
1761132076499365400,7.771365478515625,0.044341087341308594,0.006596432998776436,0.00970536470413208
1761132076509365500,7.781365478515625,0.027582168579101562,-0.002986390143632889,0.004858449101448059
1761132076519366400,7.791366455078125,0.029976844787597656,0.0017406605184078217,0.009633183479309082
1761132076529366300,7.8013662109375,0.04673480987548828,-0.003001585602760315,-0.014235131442546844
1761132076539366400,7.811366455078125,0.02997589111328125,0.01607116311788559,-0.004669979214668274
1761132076549366500,7.821366455078125,0.02997589111328125,-0.0006934516131877899,-0.014305166900157928
1761132076559366400,7.831366455078125,0.013216018676757812,-0.003087654709815979,-0.00951676070690155
1761132076569366500,7.841366455078125,0.03715801239013672,0.0042049214243888855,0.009744033217430115
1761132076579366400,7.851366455078125,0.015608787536621094,0.011374421417713165,0.009804710745811462
1761132076589366500,7.861366455078125,0.015608787536621094,-0.007798399776220322,0.03853711485862732
1761132076599366400,7.871366455078125,0.029973983764648438,0.0017844252288341522,0.024230435490608215
1761132076609366500,7.881366455078125,0.03715705871582031,-0.003033950924873352,0.02174067497253418
1761132076619365600,7.89136572265625,0.015610694885253906,0.020962201058864594,0.004936084151268005
1761132076629365800,7.90136572265625,0.022792816162109375,0.008974071592092514,0.004957735538482666
1761132076639365600,7.91136572265625,0.05391693115234375,-0.0005597025156021118,0.0025985538959503174
1761132076649365800,7.92136572265625,0.029973983764648438,0.008943509310483932,0.005039811134338379
1761132076659365600,7.93136572265625,0.015608787536621094,-0.007835540920495987,-0.0021408498287200928
1761132076669365800,7.94136572265625,0.04194450378417969,0.008859317749738693,0.01217186450958252
1761132076679365600,7.95136572265625,0.032367706298828125,0.011192552745342255,-0.01896626502275467
1761132076689365800,7.96136572265625,0.02039813995361328,-0.0007852353155612946,0.007311120629310608
1761132076699365600,7.97136572265625,0.02997589111328125,-0.0033236518502235413,0.02161248028278351
1761132076709365800,7.98136572265625,0.03236961364746094,-0.02014961838722229,0.019146278500556946
1761132076719366400,7.991366455078125,0.039551734924316406,-0.003461841493844986,0.016818776726722717
1761132076729366500,8.001366455078125,0.051522254943847656,0.003720764070749283,0.012030363082885742
1761132076739366400,8.011366455078125,0.039551734924316406,-0.008210975676774979,0.021603256464004517
1761132076749366500,8.021366455078125,0.008426666259765625,0.018068721517920494,0.007263585925102234
1761132076759366400,8.031366455078125,0.010821342468261719,-0.015413470566272736,-0.004731103777885437
1761132076769366500,8.041366455078125,0.0156097412109375,0.0013459399342536926,-0.004731103777885437
1761132076779366400,8.051366455078124,0.03715705871582031,0.010901618748903275,-0.01911366730928421
1761132076789366500,8.061366455078126,0.037156105041503906,0.00606113113462925,0.00010451674461364746
1761132076799366700,8.07136669921875,0.039549827575683594,0.005928574129939079,-0.021390244364738464
1761132076809366500,8.081366455078125,0.025183677673339844,-0.00845067948102951,-0.006964549422264099
1761132076819366000,8.091365966796875,0.03954887390136719,-0.006011828780174255,0.009849220514297485
1761132076829365800,8.10136572265625,0.025182723999023438,-0.010755948722362518,0.026662856340408325
1761132076839365600,8.11136572265625,0.017999649047851562,0.003667358309030533,0.017080023884773254
1761132076849365500,8.121365478515624,0.04433631896972656,0.0060416702181100845,0.038629695773124695
1761132076859365600,8.13136572265625,0.02997303009033203,0.01321411319077015,0.009801685810089111
1761132076869365500,8.141365478515626,0.05151844024658203,-0.0011625774204730988,0.009881734848022461
1761132076879365600,8.15136572265625,0.010816574096679688,-0.010871559381484985,-0.014007069170475006
1761132076889365500,8.161365478515625,0.04194068908691406,-0.015720117837190628,0.009921595454216003
1761132076899365600,8.17136572265625,0.027576446533203125,-0.003696981817483902,-0.0069025009870529175
1761132076909365500,8.181365478515625,0.034759521484375,0.00813664123415947,-0.014090262353420258
1761132076919366400,8.191366455078125,0.02278614044189453,0.012858668342232704,-0.004388526082038879
1761132076929366300,8.2013662109375,0.029970169067382812,0.008065007627010345,0.00513005256652832
1761132076939366400,8.211366455078124,0.015604972839355469,0.01289166696369648,0.0027315467596054077
1761132076949366500,8.221366455078124,0.020394325256347656,-0.0063286274671554565,0.0002652853727340698
1761132076959366400,8.231366455078126,0.034760475158691406,-0.0014945529401302338,0.007324635982513428
1761132076969366500,8.241366455078126,0.022789955139160156,0.005801098421216011,0.009667783975601196
1761132076979366400,8.251366455078125,0.020397186279296875,0.0009461343288421631,-0.009557858109474182
1761132076989366500,8.261366455078125,0.053915977478027344,0.008068203926086426,0.0000054836273193359375
1761132076999366400,8.271366455078125,0.0371551513671875,0.007930442690849304,0.014384448528289795
1761132077009366500,8.281366455078125,0.04433917999267578,-0.00400128960609436,0.004803717136383057
1761132077019365600,8.29136572265625,0.022790908813476562,0.0056340452283620834,0.00958608090877533
1761132077029365500,8.301365478515624,0.027579307556152344,0.0081464983522892,0.00478595495223999
1761132077039365600,8.31136572265625,-0.010725975036621094,0.0009586848318576813,0.007121756672859192
1761132077049365500,8.321365478515625,0.027581214904785156,0.022486180067062378,-0.014424197375774384
1761132077059365600,8.33136572265625,0.04433917999267578,0.0009248740971088409,-0.009575247764587402
1761132077069365500,8.341365478515625,0.039551734924316406,-0.02062533050775528,0.00477030873298645
1761132077079365600,8.35136572265625,0.025185585021972656,0.00809185579419136,-0.0023516714572906494
1761132077089365500,8.361365478515625,0.03236865997314453,-0.003884788602590561,0.004772543907165527
1761132077099365600,8.37136572265625,0.03236865997314453,-0.0038453415036201477,0.004768550395965576
1761132077109365500,8.381365478515624,0.03715801239013672,0.017696836963295937,0.0023159682750701904
1761132077119366400,8.391366455078124,0.015610694885253906,-0.015821602195501328,0.011892899870872498
1761132077129366300,8.4013662109375,0.03715991973876953,0.008160881698131561,0.0021345019340515137
1761132077139366400,8.411366455078126,0.027584075927734375,0.001036807894706726,0.02367629110813141
1761132077149366300,8.4213662109375,0.04194831848144531,-0.013343896716833115,-0.002618923783302307
1761132077159366400,8.431366455078125,0.03237152099609375,-0.0014379508793354034,-0.024219423532485962
1761132077169366300,8.4413662109375,0.03237152099609375,-0.008693818002939224,-0.014595292508602142
1761132077179366400,8.451366455078125,0.03715991973876953,0.005671391263604164,-0.005018487572669983
1761132077189366300,8.4613662109375,0.044342994689941406,0.005587337538599968,-0.01225157082080841
1761132077199366400,8.471366455078124,0.022795677185058594,-0.02554488182067871,0.004429802298545837
1761132077209366300,8.4813662109375,0.01800823211669922,-0.006397288292646408,0.006765469908714294
1761132077219365400,8.491365478515625,0.034768104553222656,0.00802721455693245,-0.0076054781675338745
1761132077229365500,8.501365478515625,0.022797584533691406,-0.003950197249650955,0.021066278219223022
1761132077239365400,8.511365478515625,0.03476905822753906,0.008066616952419281,0.013938486576080322
1761132077249365500,8.521365478515625,0.02040386199951172,-0.0014712922275066376,0.0043576061725616455
1761132077259365400,8.531365478515625,0.020404815673828125,-0.0014048665761947632,0.004232540726661682
1761132077269365500,8.541365478515624,0.03476905822753906,-0.006265290081501007,0.0282411128282547
1761132077279365400,8.551365478515624,0.02758502960205078,0.008025892078876495,0.001951947808265686
1761132077289365500,8.561365478515626,0.029979705810546875,0.0056121814996004105,-0.005228668451309204
1761132077299365400,8.571365478515625,0.015614509582519531,0.005737269297242165,-0.0027684569358825684
1761132077309365500,8.581365478515625,0.027584075927734375,0.008235424757003784,-0.009902417659759521
1761132077319366400,8.591366455078125,0.037161827087402344,-0.013373862951993942,0.009237498044967651
1761132077329366300,8.6013662109375,0.02758312225341797,0.022467948496341705,0.011698409914970398
1761132077339366400,8.611366455078125,0.04194831848144531,-0.0016122572124004364,0.006904706358909607
1761132077349366300,8.6213662109375,0.03715991973876953,-0.004065372049808502,0.01888158917427063
1761132077359366400,8.631366455078124,0.022794723510742188,0.005550073459744453,-0.002670392394065857
1761132077369366300,8.6413662109375,0.015612602233886719,-0.011210963129997253,0.009281247854232788
1761132077379366100,8.6513662109375,0.029977798461914062,0.012772461399435997,0.016479507088661194
1761132077389366000,8.661365966796875,0.03716087341308594,0.02222380042076111,0.0020481348037719727
1761132077399366100,8.6713662109375,0.03476715087890625,0.0006093010306358337,0.016341283917427063
1761132077409366000,8.681365966796875,0.03237438201904297,0.007838398218154907,0.0018529891967773438
1761132077419365400,8.691365478515625,0.0251922607421875,-0.0016794949769973755,-0.017306499183177948
1761132077429365200,8.701365234375,0.015616416931152344,-0.0016400888562202454,-0.01012776792049408
1761132077439365400,8.711365478515624,0.025193214416503906,-0.001640472561120987,0.001843094825744629
1761132077449365200,8.721365234375,0.02998065948486328,-0.0015345141291618347,-0.0004829317331314087
1761132077459365400,8.731365478515626,0.0251922607421875,-0.013446994125843048,-0.01006576418876648
1761132077469365200,8.741365234375,0.022798538208007812,0.0009510815143585205,-0.007734164595603943
1761132077479365400,8.751365478515625,0.0299835205078125,-0.006179008632898331,0.011354893445968628
1761132077489365200,8.761365234375,0.022798538208007812,0.008251182734966278,0.00661902129650116
1761132077499365400,8.771365478515625,0.04434680938720703,-0.013315755873918533,0.01619797945022583
1761132077509365200,8.781365234375,-0.022690773010253906,-0.003738950937986374,0.030563190579414368
1761132077519366100,8.7913662109375,0.35080718994140625,-0.03481707721948624,-0.02223232388496399
1761132077529366000,8.801365966796874,-0.2119131088256836,0.058326903730630875,-0.1244373470544815
1761132077539366100,8.8113662109375,0.11107540130615234,0.020009536296129227,-0.0496760830283165
1761132077559366100,8.8313662109375,0.09685230255126953,-0.06649813801050186,0.09258473664522171
1761132077569366000,8.841365966796875,-0.08974552154541016,-0.002214856445789337,-0.011417374014854431
