time,seconds_elapsed,z,y,x
1761132068845932300,0.117932373046875,0.00007635815563844517,0,0.0006872233934700489
1761132068875932400,0.147932373046875,0.00007635815563844517,0,0.0006872233934700489
1761132068885932300,0.157932373046875,0.00007635815563844517,-0.0006108652451075613,0.00007635815563844517
1761132068895932400,0.167932373046875,0.00007635815563844517,0.0006108652451075613,0.00007635815563844517
1761132068905932300,0.177932373046875,0.00007635815563844517,-0.0006108652451075613,0.00007635815563844517
1761132068915932400,0.187932373046875,-0.0005345070967450738,0.0006108652451075613,0.00007635815563844517
1761132068925932300,0.197932373046875,0.0006872233934700489,0.0006108652451075613,0.00007635815563844517
1761132068935932400,0.207932373046875,0.00007635815563844517,-0.0006108652451075613,-0.0005345070967450738
1761132068945932500,0.2179326171875,0.0006872233934700489,0,-0.0005345070967450738
1761132068955932400,0.227932373046875,0.00007635815563844517,-0.0012217304902151227,0.0006872233934700489
1761132068965932500,0.2379326171875,0.0012980886967852712,-0.0006108652451075613,0.00007635815563844517
1761132068975932700,0.2479326171875,0.0006872233934700489,0,0.0012980886967852712
1761132068985932500,0.2579326171875,-0.0005345070967450738,0.0006108652451075613,0.0006872233934700489
1761132068995932700,0.2679326171875,0.0006872233934700489,0.0006108652451075613,0.0006872233934700489
1761132069005932500,0.2779326171875,0.0006872233934700489,0.0012217304902151227,0.0006872233934700489
1761132069015931000,0.287930908203125,0.0006872233934700489,-0.0006108652451075613,-0.0005345070967450738
1761132069025930800,0.2979306640625,0.00007635815563844517,-0.0006108652451075613,-0.0017562375869601965
1761132069035931000,0.307930908203125,0.0012980886967852712,-0.0012217304902151227,-0.0005345070967450738
1761132069045931000,0.317930908203125,0.00007635815563844517,0,0.0006872233934700489
1761132069055931000,0.327930908203125,-0.0005345070967450738,0,0.00007635815563844517
1761132069065931000,0.337930908203125,0.0012980886967852712,0.0012217304902151227,0.0019089538836851716
1761132069075931000,0.347930908203125,0.0006872233934700489,0,0.0006872233934700489
1761132069085931000,0.357930908203125,0.0006872233934700489,-0.0006108652451075613,0.00007635815563844517
1761132069095931000,0.367930908203125,0.0012980886967852712,-0.0006108652451075613,0.0006872233934700489
1761132069105931000,0.377930908203125,-0.0005345070967450738,-0.0006108652451075613,0.00007635815563844517
1761132069115931000,0.387930908203125,-0.0005345070967450738,0.0012217304902151227,0.00007635815563844517
1761132069125931000,0.397930908203125,0.0006872233934700489,0.0006108652451075613,0.00007635815563844517
1761132069135931000,0.407930908203125,0.00007635815563844517,0.001832595793530345,0.00007635815563844517
1761132069145931000,0.417930908203125,0.00007635815563844517,-0.0006108652451075613,-0.0005345070967450738
1761132069155931000,0.427930908203125,-0.0005345070967450738,-0.0006108652451075613,-0.0005345070967450738
1761132069165931000,0.437930908203125,0.0012980886967852712,-0.0012217304902151227,0.00007635815563844517
1761132069175931000,0.447930908203125,0.0006872233934700489,0.0006108652451075613,-0.0005345070967450738
1761132069185931000,0.457930908203125,0.00007635815563844517,0,0.00007635815563844517
1761132069195931000,0.467930908203125,0.00007635815563844517,0,0.00007635815563844517
1761132069205931000,0.477930908203125,0.0012980886967852712,0,0.00007635815563844517
1761132069215930000,0.48793017578125,0.00007635815563844517,-0.0012217304902151227,-0.0005345070967450738
1761132069225930000,0.497929931640625,0.0006872233934700489,0.0006108652451075613,0.00007635815563844517
1761132069235930000,0.50793017578125,0.00007635815563844517,-0.0006108652451075613,0.0006872233934700489
1761132069245930000,0.517929931640625,0.0006872233934700489,0,0.00007635815563844517
1761132069255930000,0.52793017578125,0.00007635815563844517,-0.0006108652451075613,-0.0011453722836449742
1761132069265930000,0.537929931640625,-0.0011453722836449742,-0.0006108652451075613,-0.0005345070967450738
1761132069275930000,0.54793017578125,0.00007635815563844517,0,-0.0005345070967450738
1761132069285930000,0.557929931640625,-0.0005345070967450738,-0.0006108652451075613,-0.0005345070967450738
1761132069295930000,0.56793017578125,-0.0005345070967450738,-0.0006108652451075613,-0.0011453722836449742
1761132069305930000,0.577929931640625,0.00007635815563844517,0.0006108652451075613,-0.0011453722836449742
1761132069315931000,0.587930908203125,-0.0011453722836449742,0.0006108652451075613,-0.0011453722836449742
1761132069325931000,0.597930908203125,-0.0005345070967450738,-0.0006108652451075613,0.0012980886967852712
1761132069335931000,0.607930908203125,0.0012980886967852712,0.0012217304902151227,-0.0005345070967450738
1761132069345931000,0.617930908203125,-0.0005345070967450738,-0.0012217304902151227,0.00007635815563844517
1761132069355931000,0.627930908203125,0.00007635815563844517,0,0.00007635815563844517
1761132069365931000,0.637930908203125,-0.0005345070967450738,-0.0006108652451075613,0.0006872233934700489
1761132069375931000,0.647930908203125,-0.0005345070967450738,-0.0006108652451075613,0.00007635815563844517
1761132069385931000,0.657930908203125,0.00007635815563844517,0,0.00007635815563844517
1761132069395931000,0.667930908203125,-0.0005345070967450738,0,-0.0011453722836449742
1761132069405931000,0.677930908203125,0.00007635815563844517,-0.0006108652451075613,-0.0005345070967450738
1761132069415930000,0.68793017578125,-0.0017562375869601965,0.0006108652451075613,0.0012980886967852712
1761132069425930000,0.697929931640625,0.00007635815563844517,-0.0006108652451075613,-0.0005345070967450738
1761132069435930000,0.70793017578125,0.00007635815563844517,-0.0006108652451075613,0.00007635815563844517
1761132069445930000,0.717929931640625,0.0006872233934700489,0,-0.0005345070967450738
1761132069455930000,0.72793017578125,0.00007635815563844517,-0.0006108652451075613,0.00007635815563844517
1761132069465930000,0.737929931640625,-0.0005345070967450738,0,0.0006872233934700489
1761132069475930000,0.74793017578125,0.00007635815563844517,0,0.00007635815563844517
1761132069485930000,0.757929931640625,0.0006872233934700489,-0.0012217304902151227,-0.0005345070967450738
1761132069495930000,0.76793017578125,-0.0005345070967450738,0,0.00007635815563844517
1761132069505930000,0.777929931640625,0.00007635815563844517,0,-0.0017562375869601965
1761132069515931000,0.787930908203125,0.00007635815563844517,0,0.00007635815563844517
1761132069525931000,0.797930908203125,0.0006872233934700489,0.0012217304902151227,0.00007635815563844517
1761132069535931000,0.807930908203125,-0.0011453722836449742,-0.0006108652451075613,0.00007635815563844517
1761132069545931000,0.817930908203125,0.00007635815563844517,-0.0006108652451075613,0.00007635815563844517
1761132069555931000,0.827930908203125,0.00007635815563844517,-0.0006108652451075613,0.0012980886967852712
1761132069565931000,0.837930908203125,0.00007635815563844517,0.001832595793530345,-0.0005345070967450738
1761132069575931000,0.847930908203125,-0.0005345070967450738,-0.0006108652451075613,-0.0011453722836449742
1761132069585931000,0.857930908203125,0.0012980886967852712,-0.0012217304902151227,0.00007635815563844517
1761132069595931000,0.867930908203125,0.00007635815563844517,-0.0006108652451075613,-0.0005345070967450738
1761132069605931000,0.877930908203125,0.0012980886967852712,0.0006108652451075613,0.00007635815563844517
1761132069615930000,0.88793017578125,0.0006872233934700489,0.0006108652451075613,0.0006872233934700489
1761132069625930000,0.897929931640625,0.00007635815563844517,0,0.00007635815563844517
1761132069635930000,0.90793017578125,-0.0017562375869601965,-0.0006108652451075613,0.0006872233934700489
1761132069645930000,0.917929931640625,0.00007635815563844517,0.0012217304902151227,-0.0011453722836449742
1761132069655930000,0.92793017578125,0.0019089538836851716,0.0012217304902151227,0.00007635815563844517
1761132069665930000,0.937929931640625,0.00007635815563844517,0,-0.0005345070967450738
1761132069675930000,0.94793017578125,0.00007635815563844517,0,0.00007635815563844517
1761132069685930000,0.957929931640625,-0.0005345070967450738,-0.0012217304902151227,0.00007635815563844517
1761132069695930000,0.96793017578125,-0.0005345070967450738,0.0012217304902151227,0.0012980886967852712
1761132069705930000,0.977929931640625,0.00007635815563844517,0.0006108652451075613,0.00007635815563844517
1761132069715931000,0.987930908203125,-0.0005345070967450738,0,0.0006872233934700489
1761132069725931000,0.997930908203125,-0.0005345070967450738,-0.0006108652451075613,-0.0011453722836449742
1761132069735930400,1.007930419921875,-0.0005345070967450738,0.0006108652451075613,0.0012980886967852712
1761132069745930500,1.017930419921875,0.00007635815563844517,0.0006108652451075613,-0.0017562375869601965
1761132069755930400,1.027930419921875,0.0006872233934700489,0,0.0012980886967852712
1761132069765930500,1.037930419921875,0.0006872233934700489,0.0006108652451075613,0.00007635815563844517
1761132069775930600,1.0479306640625,0.0006872233934700489,0.0006108652451075613,0.00007635815563844517
1761132069785930500,1.057930419921875,-0.0011453722836449742,0.0006108652451075613,0.0006872233934700489
1761132069795930600,1.0679306640625,0.00007635815563844517,-0.0006108652451075613,-0.0005345070967450738
1761132069805930500,1.077930419921875,0.0006872233934700489,0,0.00007635815563844517
1761132069815929600,1.0879296875,-0.0005345070967450738,-0.0006108652451075613,-0.0011453722836449742
1761132069825929700,1.0979296875,-0.0005345070967450738,-0.0006108652451075613,0.0006872233934700489
1761132069835929600,1.1079296875,-0.0005345070967450738,0,0.00007635815563844517
1761132069845929700,1.1179296875,0.00007635815563844517,0,0.0006872233934700489
1761132069855929600,1.1279296875,0.0012980886967852712,0,0.00007635815563844517
1761132069865929700,1.1379296875,0.00007635815563844517,0.0006108652451075613,0.00007635815563844517
1761132069875929600,1.1479296875,0.0006108652451075613,0.0006108652451075613,-0.0011453722836449742
1761132069885929700,1.1579296875,0.0012217304902151227,-0.0006108652451075613,-0.0005345070967450738
1761132069895929600,1.1679296875,0,0,-0.0005345070967450738
1761132069905929700,1.1779296875,-0.0006108652451075613,-0.0006108652451075613,-0.0005345070967450738
1761132069915930400,1.187930419921875,0.0006108652451075613,0,0.00007635815563844517
1761132069925930500,1.197930419921875,0.0006108652451075613,0,-0.0011453722836449742
1761132069935930400,1.207930419921875,0.0006108652451075613,0.0006108652451075613,-0.0005345070967450738
1761132069945930500,1.217930419921875,0,-0.0006108652451075613,0.00007635815563844517
1761132069955930400,1.227930419921875,0.0006108652451075613,0.0006108652451075613,0.0012980886967852712
1761132069965930500,1.237930419921875,0.001832595793530345,0,0.0006872233934700489
1761132069975930400,1.247930419921875,0.0012217304902151227,0,0.0006872233934700489
1761132069985930500,1.257930419921875,0,0,-0.0005345070967450738
1761132069995930400,1.267930419921875,-0.0006108652451075613,0.0006108652451075613,0.0012980886967852712
1761132070005930500,1.277930419921875,0.0012217304902151227,0.0006108652451075613,0.0006872233934700489
1761132070015929600,1.2879296875,-0.0006108652451075613,-0.0006108652451075613,-0.0005345070967450738
1761132070025929700,1.2979296875,-0.0006108652451075613,0.0012217304902151227,0.00007635815563844517
1761132070035930000,1.30793017578125,0.0012217304902151227,-0.0006108652451075613,0.00007635815563844517
1761132070045930000,1.317929931640625,-0.0006108652451075613,-0.0006108652451075613,0.00007635815563844517
1761132070055930000,1.32793017578125,0,-0.0006108652451075613,0.0006872233934700489
1761132070065930000,1.337929931640625,0.0012217304902151227,0,0.00007635815563844517
1761132070075930000,1.34793017578125,-0.0006108652451075613,0,0.0006872233934700489
1761132070085930000,1.357929931640625,0.0012217304902151227,-0.0006108652451075613,-0.0011453722836449742
1761132070095930000,1.36793017578125,0,0,-0.0005345070967450738
1761132070105930000,1.377929931640625,0,-0.0006108652451075613,-0.0005345070967450738
1761132070115931000,1.387930908203125,0,-0.0006108652451075613,-0.0005345070967450738
1761132070125931000,1.397930908203125,-0.0006108652451075613,0,0.0006872233934700489
1761132070135931000,1.407930908203125,0,0,0.0006872233934700489
1761132070155931000,1.427930908203125,0.0006108652451075613,0,0.0006872233934700489
1761132070165931000,1.437930908203125,-0.0006108652451075613,0.0006108652451075613,-0.0005345070967450738
1761132070175931000,1.447930908203125,-0.0006108652451075613,-0.0006108652451075613,0.0012980886967852712
1761132070185931000,1.457930908203125,0,0,0.0019089538836851716
1761132070195931000,1.467930908203125,-0.0012217304902151227,0,-0.0005345070967450738
1761132070205931000,1.477930908203125,0.0006108652451075613,0.0012217304902151227,0.00007635815563844517
1761132070215930000,1.48793017578125,0,0.0012217304902151227,-0.0005345070967450738
1761132070225930200,1.49793017578125,0,0,-0.0011453722836449742
1761132070235930000,1.50793017578125,0,-0.0006108652451075613,0.00007635815563844517
1761132070245930200,1.51793017578125,0,0,-0.0005345070967450738
1761132070255930000,1.52793017578125,0.0006108652451075613,0,0.00007635815563844517
1761132070265930200,1.53793017578125,0,-0.0006108652451075613,-0.0011453722836449742
1761132070275930000,1.54793017578125,-0.0006108652451075613,0.0012217304902151227,0.00007635815563844517
1761132070285930200,1.55793017578125,0,0.0006108652451075613,0.00007635815563844517
1761132070295930000,1.56793017578125,-0.0006108652451075613,0.0006108652451075613,-0.0011453722836449742
1761132070309365800,1.58136572265625,0,-0.0006108652451075613,0.00007635815563844517
1761132070319366400,1.591366455078125,-0.0012217304902151227,-0.0006108652451075613,0.00007635815563844517
1761132070329366500,1.601366455078125,-0.0012217304902151227,-0.0006108652451075613,0.00007635815563844517
1761132070339366400,1.611366455078125,-0.0012217304902151227,0.0006108652451075613,0.00007635815563844517
1761132070349366500,1.621366455078125,0.0012217304902151227,0,0.00007635815563844517
1761132070359366400,1.631366455078125,0,0.0006108652451075613,0.0006872233934700489
1761132070369366500,1.641366455078125,0.0006108652451075613,0,-0.0005345070967450738
1761132070379366400,1.651366455078125,0,-0.0006108652451075613,-0.0011453722836449742
1761132070389366500,1.661366455078125,-0.0006108652451075613,-0.0012217304902151227,-0.0005345070967450738
1761132070399366400,1.671366455078125,-0.0006108652451075613,-0.0006108652451075613,-0.0011453722836449742
1761132070409366500,1.681366455078125,-0.0012217304902151227,0,0.00007635815563844517
1761132070419365600,1.69136572265625,0,0.0006108652451075613,0.0006872233934700489
1761132070429365800,1.70136572265625,0.0006108652451075613,0.0012217304902151227,0.0006872233934700489
1761132070439365600,1.71136572265625,-0.0012217304902151227,0,-0.0005345070967450738
1761132070449365500,1.721365478515625,0.0006108652451075613,0.0006108652451075613,-0.0005345070967450738
1761132070459365600,1.73136572265625,-0.0006108652451075613,-0.0006108652451075613,0.00007635815563844517
1761132070469365500,1.741365478515625,0.0012217304902151227,0,0.00007635815563844517
1761132070479365600,1.75136572265625,0.0006108652451075613,0,-0.0005345070967450738
1761132070489365500,1.761365478515625,-0.0006108652451075613,-0.0006108652451075613,-0.0005345070967450738
1761132070499365600,1.77136572265625,0,-0.0006108652451075613,0.0006872233934700489
1761132070509365500,1.781365478515625,0,0.0012217304902151227,0.0006872233934700489
1761132070519366400,1.791366455078125,0.0006108652451075613,0.0006108652451075613,0.0006872233934700489
1761132070529366300,1.8013662109375,0,0.0006108652451075613,0.00007635815563844517
1761132070539366400,1.811366455078125,0.0006108652451075613,0.0006108652451075613,0.00007635815563844517
1761132070549366500,1.821366455078125,0.0012217304902151227,0.0006108652451075613,-0.0005345070967450738
1761132070559366400,1.831366455078125,0.0006108652451075613,-0.0006108652451075613,0.00007635815563844517
1761132070569366500,1.841366455078125,0.0012217304902151227,-0.0006108652451075613,-0.0017562375869601965
1761132070579366400,1.851366455078125,0,-0.0012217304902151227,0.0006872233934700489
1761132070589366500,1.861366455078125,0,-0.0006108652451075613,0.00007635815563844517
1761132070599366400,1.871366455078125,0.0006108652451075613,0.0006108652451075613,0.0006872233934700489
1761132070609366500,1.881366455078125,0.0006108652451075613,-0.0006108652451075613,-0.0011453722836449742
1761132070619365600,1.89136572265625,0,0,-0.0005345070967450738
1761132070629365800,1.90136572265625,0.0006108652451075613,-0.0006108652451075613,-0.0005345070967450738
1761132070639365600,1.91136572265625,0,-0.0006108652451075613,-0.0005345070967450738
1761132070649365800,1.92136572265625,0,0,-0.0005345070967450738
1761132070659365600,1.93136572265625,0.0006108652451075613,0,0.0006872233934700489
1761132070669365800,1.94136572265625,-0.0012217304902151227,-0.0006108652451075613,-0.0017562375869601965
1761132070679365600,1.95136572265625,0,0.0006108652451075613,-0.0005345070967450738
1761132070689365800,1.96136572265625,0,0.0006108652451075613,0.00007635815563844517
1761132070699365600,1.97136572265625,-0.0006108652451075613,0,-0.0011453722836449742
1761132070709365500,1.981365478515625,0.0006108652451075613,0,-0.0005345070967450738
1761132070719366400,1.991366455078125,-0.0012217304902151227,-0.0006108652451075613,0.00007635815563844517
1761132070729366500,2.001366455078125,-0.0006108652451075613,0,0.00007635815563844517
1761132070739366400,2.011366455078125,0,0,0.0006872233934700489
1761132070749366500,2.021366455078125,0,0,-0.0005345070967450738
1761132070759366400,2.031366455078125,0.0006108652451075613,0,0.0006872233934700489
1761132070769366500,2.041366455078125,-0.0012217304902151227,0,-0.0005345070967450738
1761132070779366400,2.051366455078125,0.0006108652451075613,0.0006108652451075613,0.0012980886967852712
1761132070789366500,2.061366455078125,-0.0006108652451075613,-0.0006108652451075613,-0.0011453722836449742
1761132070799366400,2.071366455078125,-0.0012217304902151227,-0.0006108652451075613,-0.0005345070967450738
1761132070809366500,2.081366455078125,0,0,-0.0005345070967450738
1761132070819365600,2.09136572265625,-0.0006108652451075613,-0.0006108652451075613,-0.0005345070967450738
1761132070829365500,2.101365478515625,0,0,0.00007635815563844517
1761132070839365600,2.11136572265625,-0.0006108652451075613,-0.0006108652451075613,0.00007635815563844517
1761132070849365500,2.121365478515625,0.0012217304902151227,0,-0.0005345070967450738
1761132070859365600,2.13136572265625,0,-0.0006108652451075613,0.0006872233934700489
1761132070869365500,2.141365478515625,0,-0.0006108652451075613,-0.0005345070967450738
1761132070879365400,2.151365478515625,0,0,0.00007635815563844517
1761132070889365500,2.161365478515625,-0.0006108652451075613,0,0.00007635815563844517
1761132070899365400,2.171365478515625,0.0006108652451075613,0.0006108652451075613,0.0006872233934700489
1761132070909365500,2.181365478515625,0.0006108652451075613,0.0012217304902151227,0.0006872233934700489
1761132070919366400,2.191366455078125,0,0.0006108652451075613,0.0012980886967852712
1761132070929366300,2.2013662109375,-0.0006108652451075613,0.0012217304902151227,0.00007635815563844517
1761132070939366400,2.211366455078125,0.0006108652451075613,0.0006108652451075613,0.00007635815563844517
1761132070949366300,2.2213662109375,0,0,-0.0011453722836449742
1761132070959366400,2.231366455078125,-0.0006108652451075613,0.0006108652451075613,0.00007635815563844517
1761132070969366300,2.2413662109375,0,0,-0.0005345070967450738
1761132070979366400,2.251366455078125,0,0.0006108652451075613,0.0006872233934700489
1761132070989366300,2.2613662109375,0.0006108652451075613,-0.0006108652451075613,-0.0005345070967450738
1761132070999366400,2.271366455078125,0,-0.0006108652451075613,0.00007635815563844517
1761132071009366300,2.2813662109375,0.0006108652451075613,0.0006108652451075613,0.0006872233934700489
1761132071019365400,2.291365478515625,0.0006108652451075613,0,0.0006872233934700489
1761132071029365500,2.301365478515625,-0.0006108652451075613,0,0.0006872233934700489
1761132071039365600,2.31136572265625,0,0,-0.0005345070967450738
1761132071049365500,2.321365478515625,0.0006108652451075613,0.0006108652451075613,0.00007635815563844517
1761132071059365600,2.33136572265625,0.0006108652451075613,0.0006108652451075613,-0.0005345070967450738
1761132071069365500,2.341365478515625,-0.0006108652451075613,-0.0006108652451075613,0.00007635815563844517
1761132071079365600,2.35136572265625,0.0006108652451075613,-0.0012217304902151227,0.0006872233934700489
1761132071089365500,2.361365478515625,0,-0.0006108652451075613,-0.0005345070967450738
1761132071099365600,2.37136572265625,0,0.0006108652451075613,-0.0005345070967450738
1761132071109365500,2.381365478515625,-0.0012217304902151227,0.0006108652451075613,0.0006872233934700489
1761132071119366400,2.391366455078125,0.0006108652451075613,-0.0012217304902151227,0.0006872233934700489
1761132071129366300,2.4013662109375,-0.0006108652451075613,0,-0.0005345070967450738
1761132071139366400,2.411366455078125,0,-0.0006108652451075613,-0.0005345070967450738
1761132071149366500,2.421366455078125,0.0006108652451075613,0,0.00007635815563844517
1761132071159366400,2.431366455078125,0,0,-0.0005345070967450738
1761132071169366500,2.441366455078125,0,0.0006108652451075613,0.00007635815563844517
1761132071179366400,2.451366455078125,-0.0006108652451075613,-0.0006108652451075613,0.00007635815563844517
1761132071189366500,2.461366455078125,-0.0006108652451075613,0.0006108652451075613,-0.0011453722836449742
1761132071199366400,2.471366455078125,0.0006108652451075613,0,0.00007635815563844517
1761132071209366500,2.481366455078125,0,0,-0.0005345070967450738
1761132071219365600,2.49136572265625,-0.0012217304902151227,0,-0.0005345070967450738
1761132071229365500,2.501365478515625,0,0,-0.0005345070967450738
1761132071239365600,2.51136572265625,0,0,0.00007635815563844517
1761132071249365500,2.521365478515625,-0.0006108652451075613,0,-0.0005345070967450738
1761132071259365600,2.53136572265625,0,0,0.00007635815563844517
1761132071269365500,2.541365478515625,-0.0006108652451075613,0,0.0006872233934700489
1761132071279365600,2.55136572265625,0,0.0006108652451075613,0.00007635815563844517
1761132071289365500,2.561365478515625,0,0,-0.0011453722836449742
1761132071299365600,2.57136572265625,0,0.0012217304902151227,0.00007635815563844517
1761132071309365500,2.581365478515625,0.0006108652451075613,0,-0.0005345070967450738
1761132071319366400,2.591366455078125,-0.0006108652451075613,0,0.00007635815563844517
1761132071329366500,2.601366455078125,0.0006108652451075613,0,-0.0011453722836449742
1761132071339366400,2.611366455078125,0.0006108652451075613,0.0006108652451075613,-0.0005345070967450738
1761132071349366300,2.6213662109375,0.0006108652451075613,0,-0.0005345070967450738
1761132071359366400,2.631366455078125,0.0006108652451075613,0,0.00007635815563844517
1761132071369366300,2.6413662109375,0.0012217304902151227,0,-0.0011453722836449742
1761132071379366400,2.651366455078125,0,-0.0006108652451075613,0.0006872233934700489
1761132071389366300,2.6613662109375,0,0,-0.0005345070967450738
1761132071399366400,2.671366455078125,-0.0006108652451075613,-0.0006108652451075613,-0.0005345070967450738
1761132071409366300,2.6813662109375,-0.0006108652451075613,0,-0.0005345070967450738
1761132071419365600,2.69136572265625,-0.0006108652451075613,-0.0006108652451075613,-0.0011453722836449742
1761132071429365500,2.701365478515625,0.0006108652451075613,0.0006108652451075613,-0.0005345070967450738
1761132071439365600,2.71136572265625,0,0.0006108652451075613,0.00007635815563844517
1761132071449365500,2.721365478515625,-0.0006108652451075613,-0.0006108652451075613,0.00007635815563844517
1761132071459365600,2.73136572265625,0.0012217304902151227,0,0.00007635815563844517
1761132071469365500,2.741365478515625,-0.0012217304902151227,0,-0.0005345070967450738
1761132071479365600,2.75136572265625,0.0006108652451075613,0.0006108652451075613,0.0006872233934700489
1761132071489365500,2.761365478515625,-0.0012217304902151227,0,0.0006872233934700489
1761132071499365600,2.77136572265625,0.0006108652451075613,0,0.00007635815563844517
1761132071509365500,2.781365478515625,-0.0006108652451075613,-0.0006108652451075613,0.00007635815563844517
1761132071519366400,2.791366455078125,-0.0006108652451075613,0,0.0006872233934700489
1761132071529366300,2.8013662109375,0.0006108652451075613,0.0006108652451075613,0.0006872233934700489
1761132071539366400,2.811366455078125,0.0006108652451075613,0,-0.0005345070967450738
1761132071549366500,2.821366455078125,0.0006108652451075613,0,0.00007635815563844517
1761132071559366400,2.831366455078125,0,-0.0006108652451075613,0.0006872233934700489
1761132071569366300,2.8413662109375,0,0.0006108652451075613,-0.0005345070967450738
1761132071579366400,2.851366455078125,0,-0.001832595793530345,-0.0005345070967450738
1761132071589366300,2.8613662109375,-0.0006108652451075613,0,-0.0005345070967450738
1761132071599366400,2.871366455078125,0,-0.0012217304902151227,0.00007635815563844517
1761132071609366300,2.8813662109375,-0.0006108652451075613,0,0.00007635815563844517
1761132071619365600,2.89136572265625,-0.0012217304902151227,-0.0006108652451075613,-0.0005345070967450738
1761132071629365500,2.901365478515625,0.0006108652451075613,-0.0006108652451075613,0.00007635815563844517
1761132071639365600,2.91136572265625,0.0012217304902151227,0.0006108652451075613,0.0012980886967852712
1761132071649365500,2.921365478515625,0,0,0.00007635815563844517
1761132071659365600,2.93136572265625,-0.0006108652451075613,0,0.00007635815563844517
1761132071669365500,2.941365478515625,0,0,0.00007635815563844517
1761132071679365600,2.95136572265625,0.0012217304902151227,-0.0006108652451075613,-0.0005345070967450738
1761132071689365500,2.961365478515625,0,-0.0006108652451075613,0.00007635815563844517
1761132071699365600,2.97136572265625,0,-0.0006108652451075613,0.0006872233934700489
1761132071709365500,2.981365478515625,0,0,0.00007635815563844517
1761132071719366400,2.991366455078125,-0.0006108652451075613,0.0006108652451075613,0.0006872233934700489
1761132071729366300,3.0013662109375,0.0006108652451075613,-0.0006108652451075613,0.00007635815563844517
1761132071739366400,3.011366455078125,0,-0.0006108652451075613,-0.0005345070967450738
1761132071749366300,3.0213662109375,0,0.0006108652451075613,-0.0011453722836449742
1761132071759366400,3.031366455078125,0,0.0006108652451075613,-0.0011453722836449742
1761132071769366300,3.0413662109375,-0.0006108652451075613,0.0012217304902151227,0.0006872233934700489
1761132071779366400,3.051366455078125,-0.0006108652451075613,0,-0.0005345070967450738
1761132071789366500,3.061366455078125,0.0006108652451075613,0.0006108652451075613,0.00007635815563844517
1761132071799366400,3.071366455078125,0,0.0006108652451075613,-0.0005345070967450738
1761132071809366500,3.081366455078125,0.0012217304902151227,0.0006108652451075613,-0.0011453722836449742
1761132071819365600,3.09136572265625,-0.0006108652451075613,0,-0.0005345070967450738
1761132071829365500,3.101365478515625,-0.0006108652451075613,0,0.00007635815563844517
1761132071839365400,3.111365478515625,0,0,-0.0011453722836449742
1761132071849365500,3.121365478515625,-0.0006108652451075613,0,0.00007635815563844517
1761132071859365400,3.131365478515625,0,-0.0006108652451075613,0.0006872233934700489
1761132071869365500,3.141365478515625,0.0006108652451075613,0,0.00007635815563844517
1761132071879365400,3.151365478515625,-0.0006108652451075613,0.0012217304902151227,-0.0005345070967450738
1761132071889365500,3.161365478515625,-0.0006108652451075613,-0.0006108652451075613,0.00007635815563844517
1761132071899365400,3.171365478515625,0.0006108652451075613,-0.0006108652451075613,0.0012980886967852712
1761132071909365500,3.181365478515625,0.0012217304902151227,0.0006108652451075613,-0.0011453722836449742
1761132071919366400,3.191366455078125,0.0006108652451075613,-0.0006108652451075613,0.0012980886967852712
1761132071929366300,3.2013662109375,0,0,0.00007635815563844517
1761132071939366400,3.211366455078125,-0.001832595793530345,-0.0006108652451075613,-0.0011453722836449742
1761132071949366300,3.2213662109375,-0.0012217304902151227,-0.0006108652451075613,0.0012980886967852712
1761132071959366400,3.231366455078125,0,-0.0012217304902151227,-0.0005345070967450738
1761132071969366300,3.2413662109375,0.0006108652451075613,0,0.00007635815563844517
1761132071979366400,3.251366455078125,-0.0006108652451075613,-0.0006108652451075613,-0.0005345070967450738
1761132071989366300,3.2613662109375,0,0,0.0006872233934700489
1761132071999366400,3.271366455078125,-0.0012217304902151227,-0.0006108652451075613,0.00007635815563844517
1761132072009366300,3.2813662109375,0.0006108652451075613,0,0.00007635815563844517
1761132072019365400,3.291365478515625,0.0006108652451075613,0,0.00007635815563844517
1761132072029365500,3.301365478515625,0.0006108652451075613,0.0006108652451075613,0.00007635815563844517
1761132072039365600,3.31136572265625,0,0.0006108652451075613,-0.0011453722836449742
1761132072049365500,3.321365478515625,0,-0.0006108652451075613,-0.0011453722836449742
1761132072059365600,3.33136572265625,0,-0.0006108652451075613,0.0006872233934700489
1761132072069365500,3.341365478515625,-0.0006108652451075613,0,0.00007635815563844517
1761132072079365400,3.351365478515625,0,0.0006108652451075613,0.0006872233934700489
1761132072089365500,3.361365478515625,0.0006108652451075613,-0.0006108652451075613,0.00007635815563844517
1761132072099365400,3.371365478515625,0,0,0.0006872233934700489
1761132072109365500,3.381365478515625,-0.0012217304902151227,-0.0006108652451075613,0.00007635815563844517
1761132072119366400,3.391366455078125,0.0006108652451075613,0,-0.0005345070967450738
1761132072129366300,3.4013662109375,0,-0.0006108652451075613,-0.0005345070967450738
1761132072139366400,3.411366455078125,-0.0012217304902151227,0,0.00007635815563844517
1761132072149366300,3.4213662109375,0.0006108652451075613,0.0012217304902151227,0.00007635815563844517
1761132072159366400,3.431366455078125,-0.0006108652451075613,0,-0.0005345070967450738
1761132072169366300,3.4413662109375,0,0.0006108652451075613,0.00007635815563844517
1761132072179366400,3.451366455078125,0,0,0.00007635815563844517
1761132072189366300,3.4613662109375,-0.0012217304902151227,0,0.0006872233934700489
1761132072199366400,3.471366455078125,0.0006108652451075613,0.0006108652451075613,-0.0005345070967450738
1761132072209366300,3.4813662109375,0,0,-0.0005345070967450738
1761132072219365600,3.49136572265625,0.0006108652451075613,0.0006108652451075613,0.00007635815563844517
1761132072229365500,3.501365478515625,0,-0.0006108652451075613,0.0012980886967852712
1761132072239365400,3.511365478515625,-0.0006108652451075613,0.0006108652451075613,0.00007635815563844517
1761132072249365500,3.521365478515625,-0.0006108652451075613,0,0.00007635815563844517
1761132072259365400,3.531365478515625,0,0,0.00007635815563844517
1761132072269365500,3.541365478515625,0.0012217304902151227,0,-0.0011453722836449742
1761132072279365400,3.551365478515625,0.0006108652451075613,0,0.00007635815563844517
1761132072289365500,3.561365478515625,0,0,0.0006872233934700489
1761132072299365400,3.571365478515625,0.0006108652451075613,-0.0006108652451075613,-0.0005345070967450738
1761132072309365500,3.581365478515625,-0.0006108652451075613,0.0006108652451075613,0.00007635815563844517
1761132072319366400,3.591366455078125,0.0006108652451075613,0,-0.0005345070967450738
1761132072329366300,3.6013662109375,-0.0006108652451075613,-0.0006108652451075613,0.0006872233934700489
1761132072339366400,3.611366455078125,0,0.0012217304902151227,0.00007635815563844517
1761132072349366300,3.6213662109375,0,0.0006108652451075613,0.00007635815563844517
1761132072359366400,3.631366455078125,0,-0.0006108652451075613,0.0012980886967852712
1761132072369366300,3.6413662109375,-0.0012217304902151227,-0.0006108652451075613,-0.0005345070967450738
1761132072379366400,3.651366455078125,0.0006108652451075613,0,0.0006872233934700489
1761132072389366300,3.6613662109375,-0.0006108652451075613,0.0006108652451075613,0.00007635815563844517
1761132072399366400,3.671366455078125,0,0,-0.0005345070967450738
1761132072409366300,3.6813662109375,-0.0006108652451075613,-0.0012217304902151227,0.0006872233934700489
1761132072419365600,3.69136572265625,0,0.0012217304902151227,-0.0005345070967450738
1761132072429365500,3.701365478515625,-0.0006108652451075613,0,0.00007635815563844517
1761132072439365400,3.711365478515625,0.0006108652451075613,0,-0.0005345070967450738
1761132072449365500,3.721365478515625,-0.0006108652451075613,0,-0.0011453722836449742
1761132072459365400,3.731365478515625,-0.0012217304902151227,-0.0006108652451075613,-0.0011453722836449742
1761132072469365500,3.741365478515625,-0.0012217304902151227,0,-0.0005345070967450738
1761132072479365400,3.751365478515625,-0.001832595793530345,0,0.00007635815563844517
1761132072489365500,3.761365478515625,0.0006108652451075613,0,-0.0005345070967450738
1761132072499365400,3.771365478515625,0,-0.0006108652451075613,0.00007635815563844517
1761132072509365500,3.781365478515625,-0.0012217304902151227,-0.0006108652451075613,-0.0005345070967450738
1761132072519366400,3.791366455078125,-0.0012217304902151227,0,-0.0005345070967450738
1761132072529366300,3.8013662109375,0.0006108652451075613,-0.0006108652451075613,0.00007635815563844517
1761132072539366400,3.811366455078125,0.0006108652451075613,0,-0.0005345070967450738
1761132072549366300,3.8213662109375,0,-0.0006108652451075613,0.00007635815563844517
1761132072559366400,3.831366455078125,0,0,-0.0005345070967450738
1761132072569366300,3.8413662109375,0,0.0006108652451075613,-0.0011453722836449742
1761132072579366400,3.851366455078125,0,0.0006108652451075613,0.00007635815563844517
1761132072589366300,3.8613662109375,-0.0012217304902151227,0.0006108652451075613,-0.0011453722836449742
1761132072599366400,3.871366455078125,0,0,-0.0005345070967450738
1761132072609366300,3.8813662109375,0,0,0.00007635815563844517
1761132072619365600,3.89136572265625,-0.0006108652451075613,0,0.00007635815563844517
1761132072629365500,3.901365478515625,-0.0012217304902151227,0.0006108652451075613,0.00007635815563844517
1761132072639365600,3.91136572265625,0.0006108652451075613,0,-0.0005345070967450738
1761132072649365500,3.921365478515625,-0.0012217304902151227,-0.0012217304902151227,0.00007635815563844517
1761132072659365600,3.93136572265625,0.0006108652451075613,0.0012217304902151227,0.00007635815563844517
1761132072669365500,3.941365478515625,0,0,-0.0005345070967450738
1761132072679365600,3.95136572265625,0,0.0012217304902151227,-0.0005345070967450738
1761132072689365500,3.961365478515625,0.0006108652451075613,0.0012217304902151227,0.00007635815563844517
1761132072699365600,3.97136572265625,0,-0.0012217304902151227,-0.0011453722836449742
1761132072709365500,3.981365478515625,-0.0006108652451075613,0,0.00007635815563844517
1761132072719366400,3.991366455078125,0.0006108652451075613,0,-0.0005345070967450738
1761132072729366300,4.0013662109375,0.0006108652451075613,0,0.00007635815563844517
1761132072739366400,4.011366455078125,0,-0.0006108652451075613,0.0006872233934700489
1761132072749366300,4.0213662109375,0.0006108652451075613,0.0006108652451075613,0.00007635815563844517
1761132072759366400,4.031366455078125,0.0006108652451075613,0,0.00007635815563844517
1761132072769366300,4.0413662109375,-0.0012217304902151227,-0.0006108652451075613,0.00007635815563844517
1761132072779366400,4.051366455078125,0,0,0.00007635815563844517
1761132072789366500,4.061366455078125,0.0006108652451075613,0.0012217304902151227,0.00007635815563844517
1761132072799366400,4.071366455078125,-0.0006108652451075613,0,0.00007635815563844517
1761132072809366500,4.081366455078125,-0.0006108652451075613,0,0.00007635815563844517
1761132072819365600,4.09136572265625,0,0.0006108652451075613,0.00007635815563844517
1761132072829365500,4.101365478515625,-0.0012217304902151227,-0.0006108652451075613,0.0006872233934700489
1761132072839365600,4.11136572265625,-0.0012217304902151227,0,-0.0011453722836449742
1761132072849365500,4.121365478515625,0,0.0006108652451075613,-0.0005345070967450738
1761132072859365600,4.13136572265625,0.0006108652451075613,-0.0006108652451075613,-0.0011453722836449742
1761132072869365500,4.141365478515625,0.0012217304902151227,0,0.00007635815563844517
1761132072879365400,4.151365478515625,0.0006108652451075613,-0.0012217304902151227,0.00007635815563844517
1761132072889365500,4.161365478515625,0,0,-0.0005345070967450738
1761132072899365000,4.171365234375,-0.0006108652451075613,0,0.00007635815563844517
1761132072909365000,4.181364990234375,0,0,0.00007635815563844517
1761132072919366000,4.191365966796875,0.0006108652451075613,-0.0006108652451075613,0.0012980886967852712
1761132072929366000,4.201365966796875,0,0,0.00007635815563844517
1761132072939366000,4.211365966796875,0.0012217304902151227,0.0006108652451075613,0.00007635815563844517
1761132072949366000,4.221365966796875,0.0006108652451075613,0.0006108652451075613,0.00007635815563844517
1761132072959366000,4.231365966796875,0,-0.0006108652451075613,-0.0005345070967450738
1761132072969366000,4.241365966796875,0,0.0006108652451075613,-0.0005345070967450738
1761132072979366000,4.251365966796875,-0.0006108652451075613,0.0006108652451075613,0.0006872233934700489
1761132072989366000,4.261365966796875,0,-0.0006108652451075613,0.0006872233934700489
1761132072999366000,4.271365966796875,-0.0006108652451075613,-0.0012217304902151227,0.00007635815563844517
1761132073009366000,4.281365966796875,0,0.0006108652451075613,-0.0005345070967450738
1761132073019365000,4.291365234375,0,0,-0.0005345070967450738
1761132073029365000,4.301364990234375,-0.0006108652451075613,-0.0006108652451075613,0.00007635815563844517
1761132073039365000,4.311365234375,0,0,-0.0005345070967450738
1761132073049365200,4.321365234375,-0.0006108652451075613,0.0006108652451075613,-0.0005345070967450738
1761132073059365000,4.331365234375,-0.0006108652451075613,-0.0012217304902151227,0.00007635815563844517
1761132073069365200,4.341365234375,0.001832595793530345,-0.0012217304902151227,-0.0011453722836449742
1761132073079365000,4.351365234375,-0.0006108652451075613,-0.0006108652451075613,0.0006872233934700489
1761132073089365000,4.361364990234375,-0.0006108652451075613,0,-0.0011453722836449742
1761132073099365000,4.371365234375,0,0,0.0006872233934700489
1761132073109365000,4.381364990234375,-0.0012217304902151227,-0.0006108652451075613,-0.0005345070967450738
1761132073119366000,4.391365966796875,-0.0006108652451075613,0,0.00007635815563844517
1761132073129366000,4.401365966796875,0,-0.0012217304902151227,0.00007635815563844517
1761132073139366000,4.411365966796875,-0.0006108652451075613,0,0.0006872233934700489
1761132073149366000,4.421365966796875,0,-0.0006108652451075613,-0.0005345070967450738
1761132073159366000,4.431365966796875,0,0,0.00007635815563844517
1761132073169366000,4.441365966796875,0,0.0006108652451075613,-0.0005345070967450738
1761132073179366000,4.451365966796875,0.0006108652451075613,0.0006108652451075613,0.0006872233934700489
1761132073189366000,4.461365966796875,0,0.0006108652451075613,0.00007635815563844517
1761132073199366400,4.471366455078125,-0.0012217304902151227,0,-0.0005345070967450738
1761132073209366300,4.4813662109375,0.0006108652451075613,0.0006108652451075613,0.00007635815563844517
1761132073219365400,4.491365478515625,-0.0006108652451075613,0,0.00007635815563844517
1761132073229365500,4.501365478515625,0.0006108652451075613,0.0006108652451075613,0.0006872233934700489
1761132073239365400,4.511365478515625,0,-0.0006108652451075613,0.00007635815563844517
1761132073249365500,4.521365478515625,0.0006108652451075613,0.0012217304902151227,0.0006872233934700489
1761132073259365400,4.531365478515625,-0.0012217304902151227,0,-0.0005345070967450738
1761132073269365500,4.541365478515625,0,0,-0.0005345070967450738
1761132073279365400,4.551365478515625,0,0,-0.0005345070967450738
1761132073289365500,4.561365478515625,-0.001832595793530345,0,-0.0005345070967450738
1761132073299365400,4.571365478515625,0.0012217304902151227,0.0006108652451075613,0.0019089538836851716
1761132073309365500,4.581365478515625,-0.0006108652451075613,-0.0006108652451075613,0.0012980886967852712
1761132073319366400,4.591366455078125,0.0006108652451075613,-0.0006108652451075613,0.0012980886967852712
1761132073329366300,4.6013662109375,-0.0006108652451075613,-0.0006108652451075613,0.0006872233934700489
1761132073339366400,4.611366455078125,0,0,0.00007635815563844517
1761132073349366300,4.6213662109375,0,-0.0012217304902151227,0.00007635815563844517
1761132073359366400,4.631366455078125,0.0006108652451075613,-0.0006108652451075613,0.0012980886967852712
1761132073369366300,4.6413662109375,-0.0006108652451075613,-0.0006108652451075613,0.00007635815563844517
1761132073379366400,4.651366455078125,0,-0.0006108652451075613,0.00007635815563844517
1761132073389366300,4.6613662109375,0.0006108652451075613,0,0.00007635815563844517
1761132073399366400,4.671366455078125,0.0006108652451075613,0,-0.0005345070967450738
1761132073409366300,4.6813662109375,-0.0006108652451075613,-0.0006108652451075613,0.00007635815563844517
1761132073419365400,4.691365478515625,0.0006108652451075613,-0.0006108652451075613,-0.0011453722836449742
1761132073429365500,4.701365478515625,-0.0006108652451075613,0.0006108652451075613,-0.0011453722836449742
1761132073439365400,4.711365478515625,0.0006108652451075613,0,0.00007635815563844517
1761132073449365500,4.721365478515625,0.0012217304902151227,0,-0.0011453722836449742
1761132073459365400,4.731365478515625,-0.0012217304902151227,0,0.00007635815563844517
1761132073469365500,4.741365478515625,-0.0006108652451075613,0,0.00007635815563844517
1761132073479365400,4.751365478515625,-0.0006108652451075613,0,-0.0005345070967450738
1761132073489365500,4.761365478515625,0,0,-0.0005345070967450738
1761132073499365400,4.771365478515625,-0.0006108652451075613,-0.0006108652451075613,-0.0005345070967450738
1761132073509365500,4.781365478515625,-0.0012217304902151227,0,-0.0011453722836449742
1761132073519366400,4.791366455078125,-0.0006108652451075613,0,0.00007635815563844517
1761132073529366300,4.8013662109375,0,-0.0006108652451075613,-0.0005345070967450738
1761132073539366400,4.811366455078125,0.0006108652451075613,-0.0006108652451075613,-0.0005345070967450738
1761132073549366300,4.8213662109375,0.0006108652451075613,0.0006108652451075613,-0.0005345070967450738
1761132073559366400,4.831366455078125,0,0.0006108652451075613,0.00007635815563844517
1761132073569366300,4.8413662109375,-0.0012217304902151227,0.0006108652451075613,0.00007635815563844517
1761132073579366400,4.851366455078125,0.0006108652451075613,0,0.0012980886967852712
1761132073589366300,4.8613662109375,0.0006108652451075613,0,0.00007635815563844517
1761132073599366400,4.871366455078125,0.0006108652451075613,-0.0006108652451075613,-0.0005345070967450738
1761132073609366300,4.8813662109375,0,-0.0006108652451075613,-0.0005345070967450738
1761132073619365600,4.89136572265625,0.0006108652451075613,0.0012217304902151227,0.0006872233934700489
1761132073629365500,4.901365478515625,-0.0006108652451075613,0,0.00007635815563844517
1761132073639365600,4.91136572265625,0.0006108652451075613,-0.0006108652451075613,0.0006872233934700489
1761132073649365500,4.921365478515625,0,0.001832595793530345,0.00007635815563844517
1761132073659365600,4.93136572265625,0.0006108652451075613,0.001832595793530345,0.002519819187000394
1761132073669365500,4.941365478515625,0,0.0006108652451075613,0.0031306843739002943
1761132073679365600,4.95136572265625,0,0.001832595793530345,0.0037415495608001947
1761132073699365600,4.97136572265625,0,0.0024434609804302454,0.0012980886967852712
1761132073709365500,4.981365478515625,0,0,0.00007635815563844517
1761132073719366400,4.991366455078125,-0.0006108652451075613,-0.006108652334660292,-0.006643159314990044
1761132073729366300,5.0013662109375,0.0006108652451075613,-0.001832595793530345,-0.006032294128090143
1761132073739366400,5.011366455078125,0.0006108652451075613,0.0012217304902151227,0.0012980886967852712
1761132073749366300,5.0213662109375,0.0006108652451075613,0.001832595793530345,0.00007635815563844517
1761132073759366400,5.031366455078125,0.0006108652451075613,0.0006108652451075613,0.0012980886967852712
1761132073769366300,5.0413662109375,0.0006108652451075613,-0.0024434609804302454,0.0012980886967852712
1761132073779366400,5.051366455078125,0.0006108652451075613,-0.0006108652451075613,0.00007635815563844517
1761132073789366500,5.061366455078125,-0.0006108652451075613,0.001832595793530345,-0.0005345070967450738
1761132073799366400,5.071366455078125,0.0006108652451075613,-0.0006108652451075613,-0.0035888333804905415
1761132073809366500,5.081366455078125,0.0006108652451075613,-0.0006108652451075613,-0.0029779679607599974
1761132073819365600,5.09136572265625,0.0006108652451075613,-0.0006108652451075613,0.00007635815563844517
1761132073829365500,5.101365478515625,0.0006108652451075613,0,0.00007635815563844517
1761132073839365600,5.11136572265625,0.0012217304902151227,0.0012217304902151227,0.0006872233934700489
1761132073849365500,5.121365478515625,-0.0006108652451075613,-0.0012217304902151227,0.0012980886967852712
1761132073859365600,5.13136572265625,-0.0006108652451075613,0,0.0019089538836851716
1761132073869365500,5.141365478515625,0,0.0006108652451075613,0.0006872233934700489
1761132073879365400,5.151365478515625,0.0012217304902151227,0.0006108652451075613,0.00007635815563844517
1761132073889365500,5.161365478515625,0,-0.0006108652451075613,0.0031306843739002943
1761132073899365400,5.171365478515625,-0.0012217304902151227,0.0006108652451075613,0.0037415495608001947
1761132073909365500,5.181365478515625,-0.0006108652451075613,0.0012217304902151227,0.004352414980530739
1761132073919366400,5.191366455078125,0,0.00366519158706069,0.00618501054123044
1761132073929366300,5.2013662109375,0.0012217304902151227,0.03726277872920036,0.026343563571572304
1761132073939366400,5.211366455078125,-0.003054326167330146,-0.04764748737215996,-0.03107776865363121
1761132073949366300,5.2213662109375,0.0012217304902151227,0.00855211354792118,-0.04024074971675873
1761132073959366400,5.231366455078125,0.001832595793530345,0.009773843921720982,0.013515393249690533
1761132073969366300,5.2413662109375,0.001832595793530345,0.0006108652451075613,-0.007254024967551231
1761132073979366400,5.251366455078125,-0.0006108652451075613,0.012828170321881771,0.006795875728130341
1761132073989366300,5.2613662109375,0,-0.013439035043120384,0.00557414535433054
1761132073999366400,5.271366455078125,-0.0006108652451075613,-0.003054326167330146,0.00862847175449133
1761132074009366300,5.2813662109375,0.0012217304902151227,-0.0006108652451075613,-0.0029779679607599974
1761132074019365600,5.29136572265625,0.0006108652451075613,0.00855211354792118,-0.005421428941190243
1761132074029365500,5.301365478515625,0,-0.0012217304902151227,-0.0035888333804905415
1761132074039365600,5.31136572265625,-0.0006108652451075613,-0.001832595793530345,-0.0011453722836449742
1761132074049365500,5.321365478515625,-0.0006108652451075613,0,0.0031306843739002943
1761132074059365600,5.33136572265625,0.0006108652451075613,0.003054326167330146,0.0006872233934700489
1761132074069365500,5.341365478515625,-0.0006108652451075613,-0.001832595793530345,0.0006872233934700489
1761132074079365600,5.35136572265625,-0.0006108652451075613,-0.00366519158706069,0.0006872233934700489
1761132074089365500,5.361365478515625,0.001832595793530345,0.0012217304902151227,-0.0029779679607599974
1761132074099365400,5.371365478515625,0.0012217304902151227,0.0024434609804302454,-0.002367102773860097
1761132074109365500,5.381365478515625,0,-0.003054326167330146,0.00007635815563844517
1761132074119366400,5.391366455078125,-0.0006108652451075613,-0.003054326167330146,0.0006872233934700489
1761132074129366300,5.4013662109375,0.0006108652451075613,0.0024434609804302454,0.0006872233934700489
1761132074139366400,5.411366455078125,0,0.003054326167330146,0.00007635815563844517
1761132074149366300,5.4213662109375,0.0006108652451075613,0,0.0031306843739002943
1761132074159366400,5.431366455078125,0.0006108652451075613,0.001832595793530345,0.00618501054123044
1761132074169366300,5.4413662109375,-0.0006108652451075613,0.006108652334660292,0.008017606101930141
1761132074179366400,5.451366455078125,0.0006108652451075613,0.015271631069481373,0.025732697919011116
1761132074189366300,5.4613662109375,-0.003054326167330146,-0.04398229718208313,-0.03901901841163635
1761132074199366400,5.471366455078125,0.001832595793530345,0.019547687843441963,-0.015195272862911224
1761132074209366300,5.4813662109375,0.0012217304902151227,-0.00427605677396059,0.007406740915030241
1761132074219365600,5.49136572265625,0.0006108652451075613,0.00855211354792118,-0.006643159314990044
1761132074229365500,5.501365478515625,0,0.006108652334660292,0.00557414535433054
1761132074239365400,5.511365478515625,-0.0024434609804302454,-0.009773843921720982,0.00985020212829113
1761132074249365500,5.521365478515625,-0.0006108652451075613,-0.006719517521560192,0.004352414980530739
1761132074259365400,5.531365478515625,0.0012217304902151227,0.009162978269159794,-0.0029779679607599974
1761132074269365500,5.541365478515625,0.001832595793530345,0.001832595793530345,-0.0035888333804905415
1761132074279365400,5.551365478515625,0,0,-0.0011453722836449742
1761132074289365500,5.561365478515625,-0.001832595793530345,-0.005497787147760391,0.00007635815563844517
1761132074299365400,5.571365478515625,0,0.0024434609804302454,-0.0005345070967450738
1761132074309365500,5.581365478515625,0.001832595793530345,0.0024434609804302454,0.00007635815563844517
1761132074319366400,5.591366455078125,-0.0006108652451075613,-0.001832595793530345,0.0006872233934700489
1761132074329366300,5.6013662109375,-0.0006108652451075613,-0.001832595793530345,0.00007635815563844517
1761132074339366400,5.611366455078125,-0.0006108652451075613,0.003054326167330146,0.00007635815563844517
1761132074349366300,5.6213662109375,-0.0006108652451075613,0.0006108652451075613,0.0019089538836851716
1761132074359366400,5.631366455078125,0.0006108652451075613,-0.0012217304902151227,0.0037415495608001947
1761132074369366300,5.6413662109375,-0.001832595793530345,0.009773843921720982,0.010461067780852318
1761132074379366400,5.651366455078125,0,-0.007941247895359993,0.032452214509248734
1761132074389366300,5.6613662109375,-0.00366519158706069,-0.04459316283464432,-0.05490151420235634
1761132074399366400,5.671366455078125,0.001832595793530345,0.03176499158143997,0.0006872233934700489
1761132074409366300,5.6813662109375,0.001832595793530345,-0.012217304669320583,0.004963280167430639
1761132074419365400,5.691365478515625,0,0.01771509274840355,-0.005421428941190243
1761132074429365500,5.701365478515625,-0.0006108652451075613,0.006108652334660292,0.0037415495608001947
1761132074439365400,5.711365478515625,0,-0.007941247895359993,0.01290452852845192
1761132074449365500,5.721365478515625,0.0006108652451075613,-0.00855211354792118,0.004352414980530739
1761132074459365400,5.731365478515625,0.001832595793530345,0.012217304669320583,-0.0035888333804905415
1761132074469365500,5.741365478515625,0.001832595793530345,0,-0.008475755341351032
1761132074479365400,5.751365478515625,0,-0.0006108652451075613,-0.0017562375869601965
1761132074489365500,5.761365478515625,0,-0.00855211354792118,0.0006872233934700489
1761132074499365400,5.771365478515625,0,0.00366519158706069,-0.0011453722836449742
1761132074509365500,5.781365478515625,-0.0006108652451075613,0.00366519158706069,0.00007635815563844517
1761132074519366400,5.791366455078125,0.0012217304902151227,-0.0024434609804302454,0.0031306843739002943
1761132074529366300,5.8013662109375,-0.001832595793530345,-0.00366519158706069,0.0031306843739002943
1761132074539366400,5.811366455078125,0.0006108652451075613,-0.001832595793530345,-0.0011453722836449742
1761132074549366300,5.8213662109375,0,0.004886921960860491,-0.0035888333804905415
1761132074559366400,5.831366455078125,0,-0.00366519158706069,-0.0017562375869601965
1761132074569366300,5.8413662109375,-0.0012217304902151227,-0.00366519158706069,-0.0017562375869601965
1761132074579366400,5.851366455078125,0,0.001832595793530345,-0.002367102773860097
1761132074589366300,5.8613662109375,0.001832595793530345,0.001832595793530345,-0.0017562375869601965
1761132074599366400,5.871366455078125,0.0006108652451075613,-0.0006108652451075613,0.0012980886967852712
1761132074609366300,5.8813662109375,0,0.0012217304902151227,0.0031306843739002943
1761132074619365600,5.89136572265625,-0.0006108652451075613,0.00366519158706069,0.0037415495608001947
1761132074629365500,5.901365478515625,0.0006108652451075613,0.006108652334660292,0.00557414535433054
1761132074639365600,5.91136572265625,0.003054326167330146,0.05742133408784866,0.03306308016180992
1761132074649365500,5.921365478515625,-0.004886921960860491,-0.06352998316287994,-0.03474296256899834
1761132074659365600,5.93136572265625,-0.0006108652451075613,0.014049900695681572,-0.061621032655239105
1761132074669365500,5.941365478515625,0.0024434609804302454,0.018936822190880775,0.03061962127685547
1761132074679365600,5.95136572265625,0.001832595793530345,-0.01038470957428217,-0.013362676836550236
1761132074689365500,5.961365478515625,-0.001832595793530345,0.021380282938480377,0.011682798154652119
1761132074699365600,5.97136572265625,-0.001832595793530345,-0.018325956538319588,0.004963280167430639
1761132074709365500,5.981365478515625,0.0006108652451075613,-0.0024434609804302454,0.010461067780852318
1761132074719366400,5.991366455078125,0.0024434609804302454,-0.0006108652451075613,-0.0029779679607599974
1761132074729366300,6.0013662109375,0.001832595793530345,0.013439035043120384,-0.0035888333804905415
1761132074739366400,6.011366455078125,-0.0006108652451075613,-0.0024434609804302454,-0.0005345070967450738
1761132074749366300,6.0213662109375,0.0006108652451075613,-0.00366519158706069,0.0019089538836851716
1761132074759366400,6.031366455078125,-0.0006108652451075613,-0.0006108652451075613,0.0012980886967852712
1761132074769366300,6.0413662109375,0.0024434609804302454,0.004886921960860491,-0.0017562375869601965
1761132074779366400,6.051366455078125,-0.0006108652451075613,-0.0006108652451075613,0.0006872233934700489
1761132074789366500,6.061366455078125,-0.0006108652451075613,-0.003054326167330146,0.0006872233934700489
1761132074799366400,6.071366455078125,0,-0.0006108652451075613,-0.004199698567390442
1761132074809366300,6.0813662109375,0.0006108652451075613,0.004886921960860491,-0.0011453722836449742
1761132074819365600,6.09136572265625,0.0006108652451075613,-0.0024434609804302454,0.002519819187000394
1761132074829365500,6.101365478515625,-0.0012217304902151227,-0.003054326167330146,0.004352414980530739
1761132074839365400,6.111365478515625,-0.0006108652451075613,0.009773843921720982,0.008017606101930141
1761132074849365500,6.121365478515625,0.001832595793530345,0.005497787147760391,0.01412625890225172
1761132074859365400,6.131365478515625,0,-0.02871066704392433,-0.02863430790603161
1761132074869365500,6.141365478515625,0,0.010995574295520782,-0.002367102773860097
1761132074879365400,6.151365478515625,0,-0.006108652334660292,-0.0005345070967450738
1761132074889365500,6.161365478515625,0.0012217304902151227,0.012217304669320583,-0.004199698567390442
1761132074899365400,6.171365478515625,0.0006108652451075613,0.00366519158706069,0.004963280167430639
1761132074909365200,6.181365234375,-0.0006108652451075613,-0.00733038317412138,0.011071932502090931
1761132074919366100,6.1913662109375,0,-0.005497787147760391,0.0019089538836851716
1761132074929366300,6.2013662109375,0,0.006108652334660292,-0.0035888333804905415
1761132074939366100,6.2113662109375,0.0012217304902151227,0.0012217304902151227,-0.002367102773860097
1761132074949366300,6.2213662109375,0.0006108652451075613,-0.001832595793530345,0.0012980886967852712
1761132074959366100,6.2313662109375,0,-0.004886921960860491,0.0012980886967852712
1761132074969366300,6.2413662109375,0,0.0024434609804302454,-0.0005345070967450738
1761132074979366100,6.2513662109375,0.0006108652451075613,0.0012217304902151227,-0.0005345070967450738
1761132074989366300,6.2613662109375,0.001832595793530345,-0.003054326167330146,0.0012980886967852712
1761132074999366100,6.2713662109375,-0.0006108652451075613,-0.0024434609804302454,0.0012980886967852712
1761132075009366300,6.2813662109375,0,0,-0.0017562375869601965
1761132075019365400,6.291365478515625,0.0006108652451075613,0.003054326167330146,-0.0011453722836449742
1761132075029365200,6.301365234375,-0.0012217304902151227,-0.00366519158706069,-0.0005345070967450738
1761132075039365400,6.311365478515625,0,-0.0012217304902151227,0.00007635815563844517
1761132075049365200,6.321365234375,0,0.003054326167330146,-0.0017562375869601965
1761132075059365400,6.331365478515625,0.0006108652451075613,0.001832595793530345,0.00007635815563844517
1761132075069365200,6.341365234375,0,-0.0006108652451075613,0.0019089538836851716
1761132075079365400,6.351365478515625,0,0.0006108652451075613,0.004963280167430639
1761132075089365200,6.361365234375,-0.0006108652451075613,0.003054326167330146,0.00618501054123044
1761132075099365400,6.371365478515625,0.003054326167330146,0.04581489413976669,0.03367394581437111
1761132075109365200,6.381365234375,-0.0024434609804302454,-0.04886921867728233,-0.024358252063393593
1761132075119366100,6.3913662109375,0.0012217304902151227,0.01038470957428217,-0.043905939906835556
1761132075129366300,6.4013662109375,0.003054326167330146,0.0024434609804302454,0.011071932502090931
1761132075139366100,6.4113662109375,0.0024434609804302454,0.006108652334660292,-0.010308351367712021
1761132075149366300,6.4213662109375,0.0006108652451075613,0.010995574295520782,0.009239336475729942
1761132075159366100,6.4313662109375,-0.0024434609804302454,-0.01038470957428217,0.0031306843739002943
1761132075169366300,6.4413662109375,-0.0006108652451075613,-0.00366519158706069,0.011682798154652119
1761132075179366100,6.4513662109375,0.0012217304902151227,0.0012217304902151227,0.002519819187000394
1761132075189366300,6.4613662109375,0.0012217304902151227,0.01038470957428217,0.0006872233934700489
1761132075199366100,6.4713662109375,0,-0.006108652334660292,-0.0011453722836449742
1761132075209366300,6.4813662109375,0,-0.003054326167330146,0.0006872233934700489
1761132075219365400,6.491365478515625,0.0006108652451075613,-0.001832595793530345,0.0019089538836851716
1761132075229365500,6.501365478515625,0.0012217304902151227,0.005497787147760391,0.00007635815563844517
1761132075239365400,6.511365478515625,-0.0006108652451075613,-0.0006108652451075613,0.0019089538836851716
1761132075249365200,6.521365234375,-0.001832595793530345,-0.005497787147760391,-0.0011453722836449742
1761132075259365400,6.531365478515625,0.0006108652451075613,0,-0.004810563754290342
1761132075269365500,6.541365478515625,0.0012217304902151227,0.006108652334660292,-0.0017562375869601965
1761132075279365400,6.551365478515625,0.0006108652451075613,-0.00366519158706069,-0.0011453722836449742
1761132075289365500,6.561365478515625,-0.0006108652451075613,-0.00366519158706069,0.00007635815563844517
1761132075299365400,6.571365478515625,0,0.001832595793530345,0.0012980886967852712
1761132075309365500,6.581365478515625,0.001832595793530345,0.006719517521560192,0.004352414980530739
1761132075319366400,6.591366455078125,0,0.01038470957428217,0.01412625890225172
1761132075329366300,6.6013662109375,-0.0024434609804302454,-0.00855211354792118,0.00557414535433054
1761132075339366100,6.6113662109375,0,-0.01466076634824276,-0.02496911771595478
1761132075349366300,6.6213662109375,0.001832595793530345,0.005497787147760391,-0.004810563754290342
1761132075359366400,6.631366455078125,0.0024434609804302454,0.00427605677396059,0.0019089538836851716
1761132075369366300,6.6413662109375,-0.0006108652451075613,0.003054326167330146,0.004963280167430639
1761132075379366400,6.651366455078125,0,-0.004886921960860491,0.00007635815563844517
1761132075389366300,6.6613662109375,-0.0012217304902151227,0,0.0037415495608001947
1761132075399366400,6.671366455078125,0.0006108652451075613,-0.001832595793530345,0.0012980886967852712
1761132075409366300,6.6813662109375,0.0006108652451075613,0.0024434609804302454,0.00007635815563844517
1761132075419365400,6.691365478515625,-0.0012217304902151227,-0.0024434609804302454,-0.002367102773860097
1761132075429365500,6.701365478515625,0,-0.0012217304902151227,-0.0017562375869601965
1761132075439365400,6.711365478515625,0.0006108652451075613,0.0006108652451075613,0.0019089538836851716
1761132075449365500,6.721365478515625,0,0,0.0019089538836851716
1761132075459365400,6.731365478515625,-0.0012217304902151227,-0.0012217304902151227,-0.0005345070967450738
1761132075469365500,6.741365478515625,0,-0.001832595793530345,-0.002367102773860097
1761132075479365400,6.751365478515625,0.001832595793530345,0.0012217304902151227,-0.0017562375869601965
1761132075489365500,6.761365478515625,0,0.001832595793530345,-0.0011453722836449742
1761132075499365400,6.771365478515625,0.0006108652451075613,-0.0006108652451075613,-0.002367102773860097
1761132075509365500,6.781365478515625,-0.0012217304902151227,-0.001832595793530345,-0.0029779679607599974
1761132075519366400,6.791366455078125,0.0012217304902151227,0.0012217304902151227,-0.0005345070967450738
1761132075529366300,6.8013662109375,0,0.001832595793530345,0.0012980886967852712
1761132075539366400,6.811366455078125,0.0012217304902151227,0.0006108652451075613,0.0012980886967852712
1761132075549366300,6.8213662109375,-0.0006108652451075613,0.009773843921720982,0.009239336475729942
1761132075559366400,6.831366455078125,0.0012217304902151227,0.00427605677396059,0.03672827407717705
1761132075569366300,6.8413662109375,-0.0012217304902151227,-0.025656340643763542,-0.03474296256899834
1761132075579366100,6.8513662109375,0.001832595793530345,-0.0024434609804302454,-0.020082194358110428
1761132075589366000,6.861365966796875,0.003054326167330146,0.01038470957428217,0.002519819187000394
1761132075599366100,6.8713662109375,0,0.00366519158706069,0.00007635815563844517
1761132075609366000,6.881365966796875,-0.001832595793530345,0.006719517521560192,0.0012980886967852712
1761132075619365400,6.891365478515625,-0.001832595793530345,-0.00733038317412138,0.00985020212829113
1761132075629365200,6.901365234375,-0.0012217304902151227,-0.007941247895359993,0.002519819187000394
1761132075639365400,6.911365478515625,0.0006108652451075613,0.007941247895359993,0.004963280167430639
1761132075649365200,6.921365234375,0.0012217304902151227,0.0012217304902151227,-0.0029779679607599974
1761132075659365400,6.931365478515625,0,-0.001832595793530345,-0.002367102773860097
1761132075669365200,6.941365234375,0,-0.00427605677396059,-0.0005345070967450738
1761132075679365400,6.951365478515625,-0.0006108652451075613,0.0012217304902151227,-0.0005345070967450738
1761132075689365200,6.961365234375,0.0006108652451075613,0.00427605677396059,0.00007635815563844517
1761132075699365400,6.971365478515625,0,-0.00366519158706069,0.0006872233934700489
1761132075709365200,6.981365234375,0,-0.001832595793530345,-0.0017562375869601965
1761132075719366100,6.9913662109375,0,0.0012217304902151227,-0.004199698567390442
1761132075729366300,7.0013662109375,0.0012217304902151227,0.0006108652451075613,-0.002367102773860097
1761132075739366100,7.0113662109375,-0.0012217304902151227,-0.004886921960860491,-0.0017562375869601965
1761132075749366300,7.0213662109375,-0.0006108652451075613,-0.0012217304902151227,0.00007635815563844517
1761132075759366100,7.0313662109375,0.0006108652451075613,0.0024434609804302454,0.0006872233934700489
1761132075769366300,7.0413662109375,0.0006108652451075613,0.00366519158706069,0.0006872233934700489
1761132075779366100,7.0513662109375,-0.0006108652451075613,0,0.0037415495608001947
1761132075789366300,7.0613662109375,0,0.013439035043120384,0.015347989276051521
1761132075799366100,7.0713662109375,0,-0.0024434609804302454,0.019624045118689537
1761132075809366300,7.0813662109375,-0.0012217304902151227,-0.015882495790719986,-0.027412578463554382
1761132075819365400,7.091365478515625,0.001832595793530345,0,-0.005421428941190243
1761132075829365500,7.101365478515625,0.0006108652451075613,0.001832595793530345,-0.006032294128090143
1761132075839365400,7.111365478515625,0,0.005497787147760391,-0.0011453722836449742
1761132075849365200,7.121365234375,0,0.0006108652451075613,-0.0005345070967450738
1761132075859365400,7.131365478515625,-0.0012217304902151227,-0.00366519158706069,0.00557414535433054
1761132075869365200,7.141365234375,0.0006108652451075613,-0.005497787147760391,0.0012980886967852712
1761132075879365600,7.15136572265625,0,0.006719517521560192,0.0031306843739002943
1761132075889365500,7.161365478515625,0.0006108652451075613,0.001832595793530345,0.00007635815563844517
1761132075899365600,7.17136572265625,0.0006108652451075613,-0.0012217304902151227,0.0006872233934700489
1761132075909365500,7.181365478515625,-0.0006108652451075613,-0.0024434609804302454,-0.0005345070967450738
1761132075919366400,7.191366455078125,0,0.001832595793530345,-0.0017562375869601965
1761132075929366300,7.2013662109375,-0.0012217304902151227,0.0012217304902151227,-0.0011453722836449742
1761132075939366400,7.211366455078125,-0.0012217304902151227,-0.001832595793530345,-0.0005345070967450738
1761132075949366300,7.2213662109375,0,-0.001832595793530345,0.0006872233934700489
1761132075959366400,7.231366455078125,0,0.0012217304902151227,-0.0011453722836449742
1761132075969366300,7.2413662109375,0.0006108652451075613,-0.0006108652451075613,-0.0005345070967450738
1761132075979366400,7.251366455078125,0,-0.0024434609804302454,-0.0005345070967450738
1761132075989366300,7.2613662109375,-0.0006108652451075613,-0.0006108652451075613,0.00007635815563844517
1761132075999366400,7.271366455078125,0.0012217304902151227,0.001832595793530345,0.0006872233934700489
1761132076009366300,7.2813662109375,0,0,0.0006872233934700489
1761132076019365600,7.29136572265625,-0.0006108652451075613,-0.0006108652451075613,0.0006872233934700489
1761132076029365500,7.301365478515625,-0.0006108652451075613,-0.0006108652451075613,0.0031306843739002943
1761132076039365600,7.31136572265625,0,0.0012217304902151227,0.0012980886967852712
1761132076049365500,7.321365478515625,0,0.0006108652451075613,0.00007635815563844517
1761132076059365600,7.33136572265625,0.0012217304902151227,-0.0012217304902151227,0.0012980886967852712
1761132076069365500,7.341365478515625,0.0012217304902151227,0,0.0006872233934700489
1761132076079365600,7.35136572265625,-0.0012217304902151227,-0.0006108652451075613,-0.0005345070967450738
1761132076089365500,7.361365478515625,0.0006108652451075613,0,-0.0005345070967450738
1761132076099365400,7.371365478515625,0.0006108652451075613,-0.0006108652451075613,0.0019089538836851716
1761132076109365500,7.381365478515625,0.0006108652451075613,-0.0024434609804302454,0.0012980886967852712
1761132076119366400,7.391366455078125,0.0012217304902151227,0.0006108652451075613,0.0019089538836851716
1761132076129366300,7.4013662109375,0,0,0.00007635815563844517
1761132076139366400,7.411366455078125,0,0,0.0012980886967852712
1761132076149366300,7.4213662109375,0,0,-0.0005345070967450738
1761132076159366400,7.431366455078125,-0.0012217304902151227,0,-0.0005345070967450738
1761132076169366300,7.4413662109375,0,0.0006108652451075613,0.00007635815563844517
1761132076179366400,7.451366455078125,0,0,-0.0005345070967450738
1761132076189366300,7.4613662109375,0.0006108652451075613,0.0012217304902151227,-0.0005345070967450738
1761132076199366400,7.471366455078125,-0.0012217304902151227,0,-0.0017562375869601965
1761132076209366300,7.4813662109375,-0.0006108652451075613,0.0006108652451075613,-0.0005345070967450738
1761132076219365400,7.491365478515625,0,0.0006108652451075613,-0.0005345070967450738
1761132076229365500,7.501365478515625,-0.0006108652451075613,0,0.00007635815563844517
1761132076239365400,7.511365478515625,0,0,0.00007635815563844517
1761132076249365500,7.521365478515625,0.0006108652451075613,-0.0006108652451075613,0.0019089538836851716
1761132076259365400,7.531365478515625,0.0012217304902151227,-0.0006108652451075613,0.0006872233934700489
1761132076269365500,7.541365478515625,0.0006108652451075613,0.0006108652451075613,0.0012980886967852712
1761132076279365400,7.551365478515625,0,0.0006108652451075613,-0.0005345070967450738
1761132076289365500,7.561365478515625,0,0.0012217304902151227,0.00007635815563844517
1761132076299365400,7.571365478515625,-0.0012217304902151227,-0.0012217304902151227,0.00007635815563844517
1761132076309365500,7.581365478515625,-0.0006108652451075613,0,-0.0005345070967450738
1761132076319366400,7.591366455078125,0,0,0.00007635815563844517
1761132076329366300,7.6013662109375,0.0006108652451075613,0,0.0019089538836851716
1761132076339366400,7.611366455078125,0,0.0006108652451075613,0.0012980886967852712
1761132076349366300,7.6213662109375,0,-0.0012217304902151227,-0.0005345070967450738
1761132076359366400,7.631366455078125,0.0006108652451075613,-0.0006108652451075613,-0.0011453722836449742
1761132076369366300,7.6413662109375,-0.0012217304902151227,0.0006108652451075613,0.00007635815563844517
1761132076379366400,7.651366455078125,0.0006108652451075613,0,-0.0011453722836449742
1761132076399366400,7.671366455078125,0,-0.0006108652451075613,0.00007635815563844517
1761132076409366300,7.6813662109375,-0.0012217304902151227,-0.0006108652451075613,0.00007635815563844517
1761132076419365400,7.691365478515625,0,0,0.0006872233934700489
1761132076429365500,7.701365478515625,0.0012217304902151227,-0.0006108652451075613,0.0006872233934700489
1761132076439365400,7.711365478515625,0,0,-0.0005345070967450738
1761132076449365500,7.721365478515625,-0.0006108652451075613,0,0.00007635815563844517
1761132076459365400,7.731365478515625,0,0,-0.0005345070967450738
1761132076469365500,7.741365478515625,0,-0.0006108652451075613,0.00007635815563844517
1761132076479365400,7.751365478515625,0.0012217304902151227,0.0006108652451075613,0.0012980886967852712
1761132076489365500,7.761365478515625,0.0006108652451075613,0.0006108652451075613,-0.0011453722836449742
1761132076499365400,7.771365478515625,0,-0.0006108652451075613,0.00007635815563844517
1761132076509365500,7.781365478515625,-0.0012217304902151227,0,0.0006872233934700489
1761132076519366400,7.791366455078125,-0.0012217304902151227,0.0006108652451075613,-0.0005345070967450738
1761132076529366300,7.8013662109375,-0.0012217304902151227,0,0.0006872233934700489
1761132076539366400,7.811366455078125,0.0012217304902151227,-0.0006108652451075613,0.00007635815563844517
1761132076549366500,7.821366455078125,0,0,0.00007635815563844517
1761132076559366400,7.831366455078125,0.0006108652451075613,0.0012217304902151227,-0.0011453722836449742
1761132076569366500,7.841366455078125,0.0006108652451075613,0.0006108652451075613,0.00007635815563844517
1761132076579366400,7.851366455078125,0.0006108652451075613,0,0.00007635815563844517
1761132076589366500,7.861366455078125,0,0.0006108652451075613,0.00007635815563844517
1761132076599366400,7.871366455078125,-0.0006108652451075613,-0.0006108652451075613,0.00007635815563844517
1761132076609366500,7.881366455078125,-0.0006108652451075613,0,-0.0005345070967450738
1761132076619365600,7.89136572265625,0.0006108652451075613,0.0006108652451075613,0.00007635815563844517
1761132076629365800,7.90136572265625,0,0.0006108652451075613,-0.0005345070967450738
1761132076639365600,7.91136572265625,0.0006108652451075613,0.0006108652451075613,0.0006872233934700489
1761132076649365800,7.92136572265625,0,0,0.00007635815563844517
1761132076659365600,7.93136572265625,0,-0.0006108652451075613,0.0006872233934700489
1761132076669365800,7.94136572265625,-0.0006108652451075613,0,0.0006872233934700489
1761132076679365600,7.95136572265625,-0.0012217304902151227,-0.0006108652451075613,0.00007635815563844517
1761132076689365800,7.96136572265625,0.0006108652451075613,-0.0006108652451075613,0.0012980886967852712
1761132076699365600,7.97136572265625,0,-0.0006108652451075613,0.0006872233934700489
1761132076709365800,7.98136572265625,0.0006108652451075613,0.0006108652451075613,0.0006872233934700489
1761132076719366400,7.991366455078125,0,0,0.00007635815563844517
1761132076729366500,8.001366455078125,0.0006108652451075613,0,-0.0005345070967450738
1761132076739366400,8.011366455078125,0,0.0006108652451075613,0.0006872233934700489
1761132076749366500,8.021366455078125,-0.0006108652451075613,0,-0.0005345070967450738
1761132076759366400,8.031366455078125,0,0,0.00007635815563844517
1761132076769366500,8.041366455078125,0.0006108652451075613,0,0.00007635815563844517
1761132076779366400,8.051366455078124,0.0006108652451075613,0.0006108652451075613,0.0006872233934700489
1761132076789366500,8.061366455078126,0,0.0006108652451075613,0.0012980886967852712
1761132076799366700,8.07136669921875,-0.0006108652451075613,0.0006108652451075613,0.00007635815563844517
1761132076809366500,8.081366455078125,-0.0006108652451075613,0.0006108652451075613,-0.0005345070967450738
1761132076819366000,8.091365966796875,-0.0012217304902151227,0.0006108652451075613,-0.0005345070967450738
1761132076829365800,8.10136572265625,-0.0006108652451075613,0,-0.0005345070967450738
1761132076839365600,8.11136572265625,-0.0006108652451075613,0,0.00007635815563844517
1761132076849365500,8.121365478515624,0,-0.0006108652451075613,0.00007635815563844517
1761132076859365600,8.13136572265625,0,0.0012217304902151227,0.00007635815563844517
1761132076869365500,8.141365478515626,0.0006108652451075613,0.0006108652451075613,0.0012980886967852712
1761132076879365600,8.15136572265625,0.0006108652451075613,0,0.0006872233934700489
1761132076889365500,8.161365478515625,-0.0006108652451075613,-0.0006108652451075613,-0.0005345070967450738
1761132076899365600,8.17136572265625,0.001832595793530345,0,0.0012980886967852712
1761132076909365500,8.181365478515625,-0.0006108652451075613,0.0012217304902151227,0.0006872233934700489
1761132076919366400,8.191366455078125,0.0012217304902151227,-0.0006108652451075613,0.00007635815563844517
1761132076929366300,8.2013662109375,-0.0012217304902151227,0,-0.0005345070967450738
1761132076939366400,8.211366455078124,0,-0.0006108652451075613,0.0006872233934700489
1761132076949366500,8.221366455078124,-0.0012217304902151227,-0.0012217304902151227,-0.0005345070967450738
1761132076959366400,8.231366455078126,0,-0.0006108652451075613,-0.0011453722836449742
1761132076969366500,8.241366455078126,0,-0.0006108652451075613,0.0006872233934700489
1761132076979366400,8.251366455078125,0,0,0.0006872233934700489
1761132076989366500,8.261366455078125,-0.001832595793530345,0,0.0012980886967852712
1761132076999366400,8.271366455078125,0.0006108652451075613,0,-0.0005345070967450738
1761132077009366500,8.281366455078125,0,0,-0.0005345070967450738
1761132077019365600,8.29136572265625,0.001832595793530345,0,-0.0011453722836449742
1761132077029365500,8.301365478515624,0.0012217304902151227,-0.0006108652451075613,0.00007635815563844517
1761132077039365600,8.31136572265625,-0.0012217304902151227,0,0.00007635815563844517
1761132077049365500,8.321365478515625,0,0.0006108652451075613,0.00007635815563844517
1761132077059365600,8.33136572265625,-0.0006108652451075613,0,0.00007635815563844517
1761132077069365500,8.341365478515625,0.0006108652451075613,0.0006108652451075613,0.00007635815563844517
1761132077079365600,8.35136572265625,0.0006108652451075613,-0.0006108652451075613,0.00007635815563844517
1761132077089365500,8.361365478515625,0.0006108652451075613,0,-0.0005345070967450738
1761132077099365600,8.37136572265625,0.0006108652451075613,-0.0006108652451075613,0.00007635815563844517
1761132077109365500,8.381365478515624,0.0006108652451075613,0,0.00007635815563844517
1761132077119366400,8.391366455078124,0,-0.001832595793530345,-0.0005345070967450738
1761132077129366300,8.4013662109375,0,0,-0.0005345070967450738
1761132077139366400,8.411366455078126,0,0.0006108652451075613,0.00007635815563844517
1761132077149366300,8.4213662109375,-0.0006108652451075613,-0.0006108652451075613,0.0006872233934700489
1761132077159366400,8.431366455078125,0.0012217304902151227,0.0006108652451075613,0.0006872233934700489
1761132077169366300,8.4413662109375,0,0,0.00007635815563844517
1761132077179366400,8.451366455078125,0,-0.0006108652451075613,0.0006872233934700489
1761132077189366300,8.4613662109375,0.0006108652451075613,-0.0006108652451075613,0.00007635815563844517
1761132077199366400,8.471366455078124,0,-0.0006108652451075613,0.00007635815563844517
1761132077209366300,8.4813662109375,0.0012217304902151227,0,-0.0005345070967450738
1761132077219365400,8.491365478515625,-0.0006108652451075613,-0.0006108652451075613,0.00007635815563844517
1761132077229365500,8.501365478515625,0.0012217304902151227,0.0006108652451075613,-0.0005345070967450738
1761132077239365400,8.511365478515625,0,0,-0.0005345070967450738
1761132077249365500,8.521365478515625,0.0006108652451075613,-0.0012217304902151227,-0.0005345070967450738
1761132077259365400,8.531365478515625,0,0.0006108652451075613,0.0006872233934700489
1761132077269365500,8.541365478515624,0,0.0006108652451075613,0.0006872233934700489
1761132077279365400,8.551365478515624,0,0,0.00007635815563844517
1761132077289365500,8.561365478515626,0,0.0006108652451075613,-0.0011453722836449742
1761132077299365400,8.571365478515625,0.0006108652451075613,0.0006108652451075613,-0.0011453722836449742
1761132077309365500,8.581365478515625,-0.0012217304902151227,0,0.0006872233934700489
1761132077319366400,8.591366455078125,0.0012217304902151227,0.0006108652451075613,0.0006872233934700489
1761132077329366300,8.6013662109375,0.0006108652451075613,0,0.0012980886967852712
1761132077339366400,8.611366455078125,-0.0006108652451075613,0,0.0006872233934700489
1761132077349366300,8.6213662109375,-0.0006108652451075613,0,-0.0005345070967450738
1761132077359366400,8.631366455078124,0.0006108652451075613,0,0.00007635815563844517
1761132077369366300,8.6413662109375,0.0006108652451075613,0,-0.0005345070967450738
1761132077379366100,8.6513662109375,-0.0006108652451075613,-0.0006108652451075613,0.0012980886967852712
1761132077389366000,8.661365966796875,0,-0.0006108652451075613,0.0006872233934700489
1761132077399366100,8.6713662109375,0,-0.0012217304902151227,-0.0005345070967450738
1761132077409366000,8.681365966796875,0.0006108652451075613,0,-0.0005345070967450738
1761132077419365400,8.691365478515625,0.0006108652451075613,0,-0.0005345070967450738
1761132077429365200,8.701365234375,-0.0006108652451075613,0,0.00007635815563844517
1761132077439365400,8.711365478515624,0.0006108652451075613,0.0006108652451075613,-0.0011453722836449742
1761132077449365200,8.721365234375,0,0,-0.0005345070967450738
1761132077459365400,8.731365478515626,0,-0.0006108652451075613,-0.0005345070967450738
1761132077469365200,8.741365234375,0,-0.0006108652451075613,-0.0005345070967450738
1761132077479365400,8.751365478515625,0.0006108652451075613,0.0006108652451075613,-0.0005345070967450738
1761132077489365200,8.761365234375,0.0006108652451075613,0,0.00007635815563844517
1761132077499365400,8.771365478515625,0,0,0.00007635815563844517
1761132077509365200,8.781365234375,0,-0.0012217304902151227,-0.0005345070967450738
1761132077519366100,8.7913662109375,0.0012217304902151227,0.056810468435287476,0.02695442922413349
1761132077529366000,8.801365966796874,-0.001832595793530345,0.1765400618314743,0.07338018715381622
1761132077539366100,8.8113662109375,0,-0.021991148591041565,-0.006643159314990044
1761132077549366000,8.821365966796876,0.0012217304902151227,-0.09040805697441101,-0.03901901841163635
1761132077559366100,8.8313662109375,0.0012217304902151227,-0.10873401165008545,-0.04512767121195793
1761132077569366000,8.841365966796875,0.0006108652451075613,0.01466076634824276,0.0012980886967852712
