time,seconds_elapsed,z,y,x
1761132803358408200,0.084408203125,1.5712895320236682,-0.7052243447326123,-0.20796096045067533
1761132803378256400,0.10425634765625,1.053843867266178,-1.0084995816737412,-0.08841166662829927
1761132803398104000,0.12410400390625,0.11688333514928817,-1.0527806219488383,-0.09652153338836506
1761132803417952300,0.1439521484375,-0.894417859941721,-0.7866779084518551,-0.2623810443590395
1761132803437800200,0.16380029296875,-1.434439513644576,-0.5201823962450027,-0.49436406437754626
1761132803457648400,0.1836484375,-1.417204885727167,-0.31105069324821233,-0.7802178455922752
1761132803477496300,0.203496337890625,-0.5899743098735809,-0.4692892443537712,-0.6881960530422627
1761132803497343700,0.22334375,0.28572832820415495,-0.6633084261536598,-0.5006313080787659
1761132803517192000,0.24319189453125,0.5111240605205297,-0.8254290793895721,-0.2062416441110894
1761132803537040000,0.263039794921875,0.047555531901121134,-0.6700394879743456,-0.15726287447381765
1761132803556887800,0.2828876953125,-0.47641807332038877,-0.48986236904412506,-0.11831318528931588
1761132803576735700,0.30273583984375,-0.6779051067829132,-0.32724311863631006,-0.05622384539470076
1761132803596584000,0.322583984375,-0.6696423053503036,-0.18000380818992853,-0.000694558135420084
1761132803616431600,0.342431640625,-0.7669786439865827,0.08208966966569423,-0.13853585257418452
1761132803636279800,0.36227978515625,-0.864605490002036,0.36493396686613555,-0.2670253447672352
1761132803656127700,0.382127685546875,-0.8215069375097751,0.5295680642277002,-0.3421121134009212
1761132803675975700,0.4019755859375,-0.7157476384431123,0.5965541266553104,-0.39398890603464093
1761132803695823600,0.42182373046875,-0.5884171435594558,0.6093658235639333,-0.5245735804086551
1761132803715671800,0.441671875,-0.43843700997233387,0.5715419966042041,-0.679814666731283
1761132803735520000,0.46152001953125,-0.31002865672409535,0.5865853980876505,-0.7835181292466818
1761132803755367700,0.48136767578125,-0.15607143619954586,0.5706714973799883,-0.7593701417442411
1761132803775215900,0.5012158203125,0.1869908905982971,0.5413283523872494,-0.7472549026671796
1761132803795063800,0.521063720703125,0.4579688089162111,0.5260131482250988,-0.7099162288758903
1761132803814911700,0.540911865234375,0.5655360341876745,0.5362606937341392,-0.7560963077053428
1761132803834759700,0.560759765625,0.548942042261362,0.46197789842709897,-0.6915002091541886
1761132803854608000,0.58060791015625,0.4379880971610546,0.4535585912585258,-0.6690935123611241
1761132803874455800,0.600455810546875,0.03489244968295097,0.7061290384873747,-0.8369641074258833
1761132803894303700,0.6203037109375,-0.19970190361142157,0.42236762644201514,-0.7537311129439622
1761132803914151700,0.640151611328125,-0.21963059291839598,0.23970409752354024,-0.5899061400081962
1761132803933999900,0.659999755859375,0.0914198080688715,-0.14478577981442212,-0.333539953758195
1761132803953847800,0.679847900390625,0.06497369969189166,-0.4887963472478091,0.02414915654622018
1761132803973695700,0.69969580078125,-0.4847077627599239,-0.44018063876926894,0.26865064441412684
1761132803993544000,0.7195439453125,-0.8018167331337929,-0.5346230095297098,0.5824179762098938
1761132804013391600,0.7393916015625,-0.7339011347711086,-0.5846836561195552,0.7173938712801784
1761132804033239800,0.75923974609375,-0.04436638047099113,-0.7074076801210641,0.7265487261816859
1761132804053087700,0.779087646484375,0.8567582836329937,-0.9418236081086099,0.8715309053510427
1761132804072936000,0.79893603515625,1.2773363963097333,-1.0274285924188793,0.9312384281430393
1761132804092783600,0.81878369140625,0.7433873405188322,-0.9106696143016219,1.0797301498033105
1761132804112631800,0.8386318359375,-0.3151291947335005,-0.4523986075684428,0.9586483400508761
1761132804132479700,0.858479736328125,-0.7162129178673029,-0.06103256085067987,1.0455346694085745
1761132804152327700,0.87832763671875,-0.28270342742502685,0.38444443076103924,1.0171861614763735
1761132804172176000,0.89817578125,0.25461013636291024,0.3905031462781131,0.9133541041452438
1761132804192023800,0.91802392578125,0.4343313282191753,0.29950492462217804,0.3967470821689814
1761132804211871700,0.937871826171875,0.5585632725656032,0.12034896543323993,-0.028245412883907556
1761132804231719700,0.9577197265625,0.6374433325350284,-0.014898586185276508,-0.4388881878059357
1761132804251567900,0.97756787109375,0.5438081865042448,-0.0051256724506616586,-0.8204794941581786
1761132804271415800,0.997415771484375,0.14566636204123495,0.11108867739588021,-1.0275115214619785
1761132804291263700,1.017263671875,-0.49029053132832046,0.26506168001145125,-1.0752635988485066
1761132804311111700,1.037111572265625,-0.9930945072710513,0.4824165830828249,-1.0385350197795777
1761132804330960000,1.0569599609375,-1.0649076975941658,0.646161184258759,-0.9276397460639476
1761132804350807800,1.076807861328125,-0.9571317980080842,0.7665139490842818,-0.7296954997748136
1761132804370655700,1.09665576171875,-0.9585849194258451,0.794582105705142,-0.6287899243496358
1761132804390504000,1.11650390625,-0.9858785845428705,0.7523129897743464,-0.48108146202154456
1761132804410351900,1.136351806640625,-0.6675660835981369,0.719512690065056,-0.34168241674676536
1761132804430199800,1.15619970703125,-0.04398994837403297,0.6755171887330711,-0.20326726794280112
1761132804450047700,1.1760478515625,0.7871177611738442,0.474818383038789,-0.11611746534332633
1761132804469896000,1.19589599609375,1.5550263794869184,0.3196028330162167,0.02088672068417072
1761132804489743600,1.21574365234375,1.8514730855822563,0.184578714890033,0.11717808031216263
1761132804509592600,1.235592529296875,1.239975510686636,0.33512758827582,0.19532040059156713
1761132804529440800,1.255440673828125,-0.003981763112545013,0.6856793940462171,-0.028022417782992123
1761132804549288400,1.275288330078125,-0.35548341695368285,0.765031017050147,-0.1357577296303585
1761132804569136600,1.29513671875,0.31616730560958384,0.4492234846636653,-0.4071017047816887
1761132804588984600,1.314984619140625,1.1867658985465763,-0.08838774689659476,-0.531519161762856
1761132804608832500,1.33483251953125,1.5342799440562724,-0.6714530080340803,-0.6248721663840114
1761132804628680400,1.354680419921875,1.7756980058908463,-1.1013207809731365,-0.6264296249590814
1761132804648528600,1.374528564453125,2.0544746152609585,-1.3543702438905834,-0.5032728355634958
1761132804668376300,1.394376220703125,1.9163316344618797,-1.417552530121058,-0.29155170059539376
1761132804688224500,1.414224609375,0.8063298266440629,-1.219093904569,-0.1878292411185801
1761132804708072400,1.434072509765625,-0.46509588431715965,-0.937313729468733,-0.1894244013555348
1761132804727920600,1.453920654296875,-1.1757780560642481,-0.7587380543857812,-0.23906605534832923
1761132804747768600,1.4737685546875,-1.2184557527959345,-0.6812561707764864,-0.2905045113637112
1761132804767616500,1.493616455078125,-0.8828162694752216,-0.7049862981930375,-0.3316271789394319
1761132804787464700,1.513464599609375,-0.7136328382462263,-0.8001371094837785,-0.30627781629059464
1761132804807312400,1.5333125,-0.8126198666989802,-0.6983274248257278,-0.33832316944673657
1761132804827160600,1.55316064453125,-1.0679571482926606,-0.48030850488767024,-0.3980305095756426
1761132804847008500,1.573008544921875,-1.2446253823190927,-0.25413623524084683,-0.39479426760077474
1761132804866856400,1.5928564453125,-1.3490642464369536,-0.06825228297114372,-0.3089045115323737
1761132804886704400,1.612704345703125,-1.2414736402899027,0.04034545439183712,-0.16703151389211415
1761132804906552600,1.632552490234375,-0.9262339709192514,0.08174334044605493,0.019880173990130423
1761132804926400500,1.652400390625,-0.6155699389010667,0.20766323787942528,0.14732421225085854
1761132804946248400,1.67224853515625,-0.37132396016418934,0.39900793977305293,0.22787987728230655
1761132804966096600,1.6920966796875,-0.21690146021544932,0.6079128482766449,0.2603627085402608
1761132804985944600,1.711944580078125,-0.18233108209371565,0.7695661762617528,0.26570311972014604
1761132805005792500,1.73179248046875,-0.13611702792942523,0.8421130876868963,0.2489281452037394
1761132805025640400,1.751640380859375,-0.05016892926990985,0.9070914635539055,0.1506036723129451
1761132805045488600,1.771488525390625,0.09777063840031623,0.909663213738054,-0.006855711113661527
1761132805065336600,1.791336669921875,0.08244447445273399,0.9988780591085552,-0.2598579008232802
1761132805085184500,1.8111845703125,-0.01724047313630581,1.1190576593242585,-0.625666020175442
1761132805105032400,1.831032470703125,-0.13473989435732364,1.1836856143184005,-0.9010951457485556
1761132805124880600,1.850880615234375,-0.13981179079413414,1.2103089789584278,-1.1732337053436785
1761132805144728300,1.870728271484375,-0.1063683708757162,1.264669076307863,-1.368045425760746
1761132805164576500,1.890576416015625,-0.031845921593904494,1.2203938812516628,-1.4987833910003303
1761132805184424700,1.9104248046875,0.37717443975806236,1.085963783495873,-1.5201599410280584
1761132805204272400,1.9302724609375,0.5935515838384628,1.1370691168330609,-1.6270784931324422
1761132805224120600,1.95012060546875,0.5351707065403462,1.1287800119154154,-1.9112441020645201
1761132805243968500,1.969968505859375,0.9189081580758094,0.9452493447735905,-2.1222040434017777
1761132805263816700,1.989816650390625,1.333490245208144,0.5017277250133455,-2.261489764495194
1761132805283664400,2.009664306640625,1.4486428110420704,0.18751783708184958,-2.240041172144562
1761132805303512600,2.0295126953125,0.7993161484897137,0.6794517517030239,-2.4617355657249687
1761132805323360500,2.049360595703125,0.43472178884148593,0.3734448978409171,-2.099353621429205
1761132805343208400,2.06920849609375,0.6152776779562235,0.24267171515747904,-1.8777058434695004
1761132805363056400,2.089056396484375,1.2437000841677188,-0.5300805437944829,-1.4586355050072073
1761132805382904600,2.108904541015625,1.9087755199939012,-1.2998529101528227,-1.1057537949845193
1761132805402752500,2.12875244140625,2.3211919535249472,-2.0814818646520377,-0.9297670404162257
1761132805422600400,2.148600341796875,2.3495488639593125,-2.5379852771908045,-0.6598335896499454
1761132805442448600,2.16844873046875,1.4403583822995423,-2.374053482879698,-0.3344051922854036
1761132805462296600,2.188296630859375,0.26551205412745477,-1.7032605461895465,-0.0057246612571179864
1761132805482144500,2.20814453125,-0.03250467776358128,-1.3941343912631272,0.07841814154610037
1761132805501992400,2.227992431640625,0.43756665687859053,-1.690820166811347,0.14981449469663202
1761132805521840600,2.247840576171875,0.7063958727300167,-1.9545517672628163,0.30001002460010345
1761132805541688300,2.267688232421875,0.23707915584743022,-2.0562708510279655,0.36041590491980313
1761132805561536500,2.28753662109375,-0.21580781975984573,-2.106046981588006,0.1604787312477827
1761132805581384400,2.307384521484375,-0.3998410295963287,-2.173793360863626,0.09006422874145209
1761132805601232600,2.327232666015625,-0.6698959878504276,-2.065645120833814,0.037892727477476
1761132805621080600,2.34708056640625,-0.8385340601563454,-1.8573285336121916,0.015399886770918964
1761132805640928500,2.366928466796875,-0.979253028923273,-1.5041805738687515,0.011028466753661632
1761132805660776700,2.386776611328125,-1.2382885805130004,-1.2314283393546939,0.10301036568470298
1761132805680624400,2.406624267578125,-1.4047697670459747,-1.025462406912446,0.16705635607242583
1761132805700472600,2.42647265625,-1.3055477607935666,-0.8577209911853074,0.13970438489690423
1761132805720320500,2.446320556640625,-1.1552309425979852,-0.6725283821806312,0.11715681832842528
1761132805740168400,2.46616845703125,-1.1069412512034178,-0.4816562662348151,0.025845146809145805
1761132805760016400,2.486016357421875,-1.0823480772167444,-0.33887685780674215,-0.09177790079154073
1761132805779864600,2.505864501953125,-0.7945978877961635,-0.250434896504879,-0.1375785153167322
1761132805799712500,2.52571240234375,-0.02646773568689823,-0.31160365095585585,-0.13784794337525963
1761132805819560400,2.545560546875,0.8536831139713525,-0.417496513274312,-0.18839951528720555
1761132805839408600,2.56540869140625,1.617260425081849,-0.5664025878891349,-0.260608499994874
1761132805859256600,2.585256591796875,1.9918325733870266,-0.32079642671495673,-0.08165054759606719
1761132805879104500,2.6051044921875,1.9323592246770858,-0.13767390198260546,0.09515636424869299
1761132805898952400,2.624952392578125,1.9526450568586586,-0.2757496627643704,0.15402137180194259
1761132805918800600,2.644800537109375,2.2660651095867155,-0.6343105874672532,-0.09614442543797194
1761132805938648600,2.664648681640625,1.9932921245455741,-0.978197382390499,-0.5164380951501428
1761132805958496500,2.68449658203125,1.0224866059720517,-0.8765469799473882,-1.021178811309114
1761132805978344400,2.704344482421875,0.03812544025480747,-0.5859291261360049,-1.4417055591247976
1761132805998192600,2.724192626953125,-0.5146954892665148,-0.43927842923253774,-1.7905489535421133
1761132806018040300,2.744040283203125,-0.7992547736912965,-0.46391515009999273,-1.9007985497653483
1761132806037888500,2.763888427734375,-0.8007377057254313,-0.7686313796296715,-1.8744146929696202
1761132806057736700,2.78373681640625,-0.5364104774683713,-1.2821215847596525,-1.9155898761838674
1761132806077584400,2.80358447265625,-0.35994156540632244,-1.6047273989841342,-1.9292017835594713
1761132806097432600,2.8234326171875,-0.35890170096457,-1.6707962004363537,-1.944570763735473
1761132806117280500,2.843280517578125,-0.39197453400492666,-1.5293936333194373,-2.00013965235278
1761132806137128700,2.863128662109375,-0.37574469921588893,-1.3456696355625986,-2.007229172222316
1761132806156975600,2.8829755859375,0.08142974445223808,-1.220946692828834,-1.9343445532754062
1761132806176823600,2.902823486328125,0.8227513846129179,-1.1790692065641284,-1.7484633774846792
1761132806196671500,2.92267138671875,1.2477543279945849,-1.087668541587144,-1.4643378083020449
1761132806216519700,2.942519775390625,1.12247258233428,-0.9032418023884295,-1.2548625525645911
1761132806236367400,2.962367431640625,0.7106015077263116,-0.7159215337052941,-1.0067932161472737
1761132806256215600,2.982215576171875,0.28895138190388675,-0.5358154341846704,-0.7168287116780877
1761132806276063500,3.0020634765625,0.021139234140515325,-0.432945280688256,-0.4492171279881149
1761132806295911400,3.021911376953125,-0.1291039342969656,-0.42941140747368334,-0.2172868062712252
1761132806315759400,3.04175927734375,-0.06158464177548885,-0.47359804746359585,-0.05528218063041568
1761132806335607600,3.061607666015625,-0.019445874226093292,-0.5278327648676931,0.04634630224183202
1761132806355455700,3.081455810546875,-0.07358370712697505,-0.6276026142612099,0.05103796718940139
1761132806375303400,3.101303466796875,-0.03451134141087532,-0.5938599191352725,-0.07353851627837867
1761132806395151600,3.121151611328125,0.10663082120418547,-0.6133860189907252,-0.2288821861926466
1761132806414999600,3.14099951171875,0.2535983289718628,-0.5158239087745548,-0.35212734799142925
1761132806434847500,3.160847412109375,0.2632142985790968,-0.25745851153135296,-0.5030681798368692
1761132806454695400,3.1806953125,0.2816442737609148,-0.10273717476651072,-0.750623721513152
1761132806474543600,3.200543701171875,0.16763561726510523,0.01880772245302796,-0.9426845357868819
1761132806494391600,3.2203916015625,-0.12524199817180634,0.18443506863564252,-1.1207588372189552
1761132806514238700,3.24023876953125,-0.35492695211470127,0.19198519175425172,-1.2021290335036814
1761132806534087000,3.2600869140625,-0.5052776725798845,0.1751233426719904,-1.1618174083162098
1761132806553934800,3.279934814453125,-0.6633914282619953,0.20482903736680744,-1.0650023170750587
1761132806573783000,3.299782958984375,-0.7818786914765834,0.3051004065416753,-0.9883511121362447
1761132806593631000,3.319630859375,-0.911392960140109,0.4163781767688691,-0.9019392684224993
1761132806613479000,3.33947900390625,-0.6571341214329004,0.5028538064338266,-0.7302600748550147
1761132806633327000,3.3593271484375,-0.07183481763303279,0.45992008911445736,-0.6674652535721659
1761132806653174800,3.3791748046875,0.6714367875516414,0.35268048836216326,-0.7050007651098072
1761132806673023000,3.39902294921875,1.251488253825903,0.4374652423307299,-0.8370358574878424
1761132806692871000,3.418870849609375,1.0634528226107358,0.6997673945009708,-1.005944563428685
1761132806712718800,3.43871875,0.8524322371274232,0.348906230520457,-0.8249203261498361
1761132806732566800,3.45856689453125,1.4902806433320044,-0.17961919278651475,-0.48510078066550194
1761132806752415000,3.4784150390625,2.4006740710407493,-0.8640696295596658,-0.17981559214144943
1761132806772263000,3.498262939453125,2.878446481579542,-1.3576491194307803,0.04476151726841926
1761132806792110800,3.51811083984375,2.314022792547941,-1.526784473734349,-0.03790507550239563
1761132806811959000,3.537958984375,0.9840139597147702,-1.493956555365771,-0.18644962332844733
1761132806831807000,3.557806884765625,-0.18281448169648645,-1.3250769293889402,-0.40577670325562354
1761132806851655000,3.577655029296875,-0.8010527630239724,-1.1991856735281645,-0.588164922364056
1761132806871502800,3.5975029296875,-0.8129600584387778,-1.2048787706032396,-0.7086896096903831
1761132806891351000,3.61735107421875,-0.5693710823059082,-1.392487062447518,-0.6505836038108914
1761132806911199000,3.637198974609375,-0.4850397711932659,-1.5903407078437506,-0.6711848586171865
1761132806931047000,3.657046875,-0.4756149402439594,-1.6339621151663362,-0.6113119161304086
1761132806950894800,3.676894775390625,-0.4066214835166931,-1.5203626239933072,-0.46699916065521535
1761132806970743000,3.696742919921875,-0.19314239896535873,-1.3241490008890628,-0.37435404857508836
1761132806990590700,3.7165908203125,-0.2595464237213135,-1.1601413648627699,-0.3473259025264531
1761132807010439000,3.73643896484375,-0.4995172093570232,-1.1098944019205867,-0.35549854145757853
1761132807030287000,3.756287109375,-0.6046878948807716,-1.1052550516821444,-0.46112866118662055
1761132807050134800,3.776134765625,-0.46665772680640216,-1.1438505936667323,-0.532713157320395
1761132807069983000,3.79598291015625,-0.4666308387994766,-1.127770981003344,-0.6503571746438741
1761132807089831000,3.815830810546875,-0.6907394539147615,-1.2160200500816105,-0.657930386377126
1761132807109679000,3.83567919921875,-0.5911643964409827,-1.4433385671541095,-0.49357189108654853
1761132807129526800,3.85552685546875,-0.1664081212967634,-1.5993030358478426,-0.17717753525543956
1761132807149375000,3.875375,0.16038403870165346,-1.7133189988672732,0.23305428424552083
1761132807169223000,3.895222900390625,0.2553185768932104,-1.6102692510202525,0.6496091327555478
1761132807189070800,3.91507080078125,0.3193944509625435,-1.438577197971195,1.3045356611415744
1761132807208918800,3.934918701171875,0.25598726993501186,-1.091526532189548,1.975849552965909
1761132807228767000,3.95476708984375,-0.014938625934720038,-0.6266344998814165,2.4385557656675574
1761132807248615000,3.974614990234375,-0.17803133907318114,-0.04398863319978118,2.9361767860144377
1761132807268462800,3.994462890625,-0.18341069402396679,0.3789673145242035,3.24608941514343
1761132807288311000,4.01431103515625,-0.0316799173772335,0.6459123240642249,3.4683880582273003
1761132807308159000,4.034158935546875,0.43262510882318017,0.6178529352717101,3.6708120802789925
1761132807328007000,4.0540068359375,0.5776350527822971,0.6952272668533027,3.7701948300510644
1761132807347854800,4.073854736328125,0.5026233586788177,0.7547844944544136,3.6591549602329727
1761132807367703000,4.093703125,0.3996288481503725,0.7144877015098929,3.4301009976699945
1761132807387550700,4.11355078125,0.05660042362213134,0.7322932611830532,2.9409760029897094
1761132807407399000,4.13339892578125,-0.21865151875317096,0.6164521285630762,2.505749187235534
1761132807427246800,4.153246826171875,-0.35842122397124765,0.5505277040176093,2.044969704812765
1761132807447095000,4.173094970703125,-0.3558966739296913,0.5659181653730571,1.4757229795388878
1761132807466943000,4.19294287109375,-0.35150633001625536,0.6817204272873699,0.938487230227515
1761132807486791000,4.212791015625,-0.45543958269953727,0.7928323394283652,0.45281208374015985
1761132807506638800,4.232638916015625,-0.5682955620288849,1.0316495711147784,0.10666556372400372
1761132807526486800,4.25248681640625,-0.7393845346182585,1.3236672087214887,-0.1487950519884005
1761132807546334700,4.272334716796875,-0.9267138633906841,1.4953350041121243,-0.4106119413923472
1761132807566183000,4.292182861328125,-0.9309317733466624,1.600063937217742,-0.342933074394986
1761132807586030800,4.31203076171875,-0.7266437109887599,1.7553716955684124,-0.2680070858135819
1761132807605878800,4.331878662109375,-0.23912732054889202,1.7512984547801316,-0.13474018661826848
1761132807625726700,4.351726806640625,0.44001872620582577,1.7195071859829127,-0.013845396471070125
1761132807645575000,4.371574951171875,0.9057143299818038,1.652952062318474,0.09919590369677171
1761132807665422600,4.391422607421875,0.9995885454654693,1.6340125301793216,0.03397616595509462
1761132807685270800,4.411270751953125,0.9569640402257442,1.7685772141002118,0.23188516740091145
1761132807705119000,4.431118896484375,0.7020318323016166,1.8734001090995966,0.27263786915307864
1761132807724966700,4.450966552734375,0.31989947787523265,2.050958862224966,0.48369741667360067
1761132807744814800,4.47081494140625,0.12559388034939764,2.1344927393496036,0.22564428198365494
1761132807764662800,4.490662841796875,0.19451427184045314,1.6416355724036693,0.4360298027001321
1761132807784511000,4.510510986328125,0.832204857134819,0.6638314271144569,0.3160569405702874
1761132807804358700,4.530358642578125,2.0587796189785004,-0.6993040147729218,0.5726885728234424
1761132807824206800,4.550206787109375,2.8257407273083923,-1.31231608588472,0.63751040642187
1761132807844054800,4.5700546875,3.0125398947268724,-1.6203908320620655,0.5980521831933409
1761132807863902700,4.58990283203125,2.4077649060845374,-1.503519187350571,0.3535985895877704
1761132807883750700,4.609750732421875,0.9205272837102413,-1.0353994251675904,-0.34830903181228784
1761132807903598800,4.629598876953125,-0.6274339796960353,-0.44651217987835407,-1.0893477999109775
1761132807923446800,4.64944677734375,-1.9167045594274996,-0.6360834423586725,-1.2616099809981882
1761132807943293700,4.669293701171875,-2.4787650264590977,-0.6465916846305132,-1.492527253215015
1761132807963143000,4.689142822265625,-2.3501041597545145,-0.6006733985424041,-1.7204815839730203
1761132807982989800,4.70898974609375,-1.547641529932618,-0.9442410445138811,-1.7702150444351135
1761132808002838000,4.728838134765625,-0.6050865388095379,-1.5511445696175097,-1.3091339487172662
1761132808022685700,4.748685791015625,-0.24789222628474233,-1.889657562547922,-0.8409314766868948
1761132808042534000,4.768533935546875,-0.1470242063909769,-1.81932233582288,-0.7981737004563212
1761132808062381800,4.7883818359375,-0.15595102469027042,-1.6134864595010876,-0.7099079725041985
1761132808082229800,4.808229736328125,-0.27571663727760315,-1.4114733563378452,-0.461847257784754
1761132808102077700,4.82807763671875,-0.5427665684968233,-1.037800348829478,-0.08592859024144708
1761132808121926000,4.84792578125,-0.9613672436207532,-0.5958730125233531,0.2544140292689204
1761132808141773800,4.86777392578125,-1.4307891744434833,-0.2692293210849166,0.5415005306163803
1761132808161621800,4.887621826171875,-1.831682343441248,0.10597586442679166,0.570584732411988
1761132808181469700,4.9074697265625,-1.7940321194827555,0.6266600727140903,0.45832902053073044
1761132808201318000,4.92731787109375,-1.529782048115134,1.3849315325014293,0.004447261732444167
1761132808221165800,4.947165771484375,-1.270481123587489,1.810400485959649,-0.27238223215788604
1761132808241013800,4.967013671875,-0.38322716392576694,1.7292412290118633,-0.10939506175313145
1761132808260862000,4.986862060546875,0.7455541631639003,1.5905648719884453,-0.12657156627513466
1761132808280709600,5.006709716796875,1.6786100890576838,1.5742608029194176,-0.23016221606582402
1761132808300557800,5.026557861328125,1.9620120201408862,1.5740081433326005,-0.5307482869882136
1761132808320405800,5.04640576171875,2.0722300521820785,1.461410376548022,-0.7514491394866257
1761132808340254000,5.06625390625,2.178263492015004,1.1346962502218783,-0.9188635882817209
1761132808360101600,5.0861015625,1.9367092365801333,0.5731997006833554,-1.063907580640912
1761132808379949800,5.10594970703125,1.5337971289753913,0.36441155042722817,-1.3426768834874032
1761132808399797800,5.1257978515625,0.7802204028755426,0.6707480746351182,-1.9026742805093526
1761132808419645700,5.145645751953125,0.2944067247003317,0.23749328960627317,-2.0359135610453785
1761132808439494000,5.165493896484375,0.2609866856575012,-0.13301292443424462,-1.9760420067980884
1761132808459341800,5.185341796875,0.6672586250841617,-0.7215992870807647,-1.5782432966843247
1761132808479189800,5.205189697265625,1.0948568456560372,-1.0323878222614526,-1.0313249422702937
1761132808499037700,5.22503759765625,1.027381392276287,-1.04350776669085,-0.6734056034065783
1761132808518886000,5.244885986328125,0.727965899503231,-1.2603680181130765,-0.24759821177423
1761132808538734000,5.264734130859375,0.6492991900235414,-1.495628141839802,0.23197766798995434
1761132808558581800,5.284581787109375,0.1568926894545555,-1.357556472711265,0.48655324449613685
1761132808578430000,5.304429931640625,-0.7177122165143489,-1.0725450606048106,0.6747140556566417
1761132808598278000,5.32427783203125,-1.5227631092637777,-0.8023126999571919,0.7051039332233369
1761132808618125800,5.344125732421875,-1.964365889790654,-0.49447979971170425,0.7840690411277115
1761132808637974000,5.36397412109375,-1.7268915971457957,-0.41736382680535317,0.8566262547511607
1761132808657822000,5.383822021484375,-1.0860270579904316,-0.4976546303555369,0.8841691453889012
1761132808677670000,5.403669921875,-0.6975730993270873,-0.6045818041577935,0.6198977389723063
1761132808697517800,5.423517822265625,-0.2081441532641649,-0.8089350407063961,0.2708330299545079
1761132808717366000,5.443365966796875,0.46806934716999526,-1.0775386311084032,-0.0848350593836978
1761132808737214000,5.4632138671875,0.9622533788055181,-1.1711278921708463,-0.5454911711551249
1761132808757062000,5.483061767578125,1.0880676239073277,-0.88302435926795,-0.9115455203533173
1761132808776909800,5.502909912109375,0.34847792210578915,-0.5257502595052123,-0.9860826557476073
1761132808796758000,5.522758056640625,-0.6204740775555372,-0.050481063959002495,-1.0227485448438673
1761132808816605700,5.542605712890625,-1.1377560761839152,0.3622305531263351,-0.8826704312637448
1761132808836454000,5.562453857421875,-1.2187187876462935,0.6223164905518292,-0.715421402163431
1761132808856302000,5.582302001953125,-1.0482277809500693,0.6831397925660013,-0.4162464036153629
1761132808876150000,5.60214990234375,-0.8227303418248891,0.7432265969991684,-0.2711369082719087
1761132808895998000,5.621998046875,-0.6741168204158544,0.7499909765675663,-0.2913695489615202
1761132808915846000,5.641845947265625,-0.6042138476282358,0.7641051343768834,-0.3104047600274905
1761132808935694000,5.661694091796875,-0.11140227338969706,0.6175880007252097,-0.2626689031234011
1761132808955541800,5.681541748046875,0.8086410261958837,0.39735622704327106,-0.39238636620882894
1761132808975390000,5.701389892578125,1.31091250269711,0.4025108333274722,-0.5797265451688319
1761132808995238000,5.72123779296875,1.5479098254799841,0.30215397782623765,-0.6566296790421009
1761132809015085800,5.7410859375,2.0348317571580408,0.3839697989866137,-0.4091301053367555
1761132809034933800,5.760933837890625,1.7379004824161528,0.6332149011850357,-0.6018570188364014
1761132809054782000,5.780781982421875,1.2026420975923537,0.7082552368611097,-0.42850759050175546
1761132809074630100,5.800630126953125,1.4311965862005949,0.420685664704442,-0.7293057698048651
1761132809094477800,5.820477783203125,2.3408687138974664,-0.4925301269486546,-0.5996553075410426
1761132809114326000,5.840325927734375,2.809679819345474,-1.3191717969983816,-0.5943616581123322
1761132809134174000,5.860174072265625,2.3135458226859567,-2.021377232301235,-0.2254915391073562
1761132809154022000,5.88002197265625,0.7646592611283063,-2.0512571145191787,-0.04827162601491436
1761132809173869800,5.899869873046875,-1.1539414873093365,-1.718125522366166,0.003983480145595968
1761132809193718000,5.919718017578125,-2.708686127245426,-1.2927899860292673,-0.045202201107470315
1761132809213566000,5.93956591796875,-3.223691997635364,-0.862623084013164,-0.2968894448941573
1761132809233414000,5.959413818359375,-2.5696441517800093,-0.6599108926698565,-0.755823993569985
1761132809253261800,5.97926171875,-1.2759364663839339,-0.7977911308795214,-0.9571139700904489
1761132809273110000,5.999110107421875,-0.2753431277900934,-1.0048030652433633,-1.0425783768862484
1761132809292958000,6.0189580078125,0.052390112450718875,-1.065727489544451,-1.0778711509983987
1761132809312804900,6.038804931640625,-0.08946458234786987,-0.9529124267473816,-0.9181061209779232
1761132809332654000,6.058654052734375,0.019431845700740812,-0.8967892652481794,-0.6896615224849433
1761132809352501000,6.0785009765625,0.4674596908390522,-0.8354553833633661,-0.19661318034846334
1761132809372349000,6.098348876953125,0.45996612021327016,-0.594306493858993,0.07362681561633944
1761132809392196900,6.11819677734375,0.20173720883131027,-0.2796589451625943,0.2395346775070764
1761132809412045000,6.138045166015625,-0.3782219029843807,-0.051957858513295645,0.0790518546060659
1761132809431893000,6.15789306640625,-0.7908703917056321,0.1153591943219304,0.007454864316899329
1761132809451741000,6.177740966796875,-0.733072282731533,0.33962358452081676,-0.08326890604551881
1761132809471588900,6.1975888671875,-0.369789590203762,0.44084260980933904,-0.022733517594635485
1761132809491437000,6.21743701171875,-0.05236556253135204,0.6208543090447783,-0.017658735080994664
1761132809511284700,6.23728466796875,-0.0035211598634719847,0.7191442951440811,-0.11306615148130804
1761132809531133000,6.2571328125,-0.10334405461847782,0.750644472040236,-0.2870870858693495
1761132809550980900,6.27698095703125,-0.11755378175675868,0.7044990991979837,-0.4113367120029405
1761132809570828800,6.296828857421875,0.21166998930275438,0.5870490700766444,-0.37495669064335524
1761132809590677000,6.316677001953125,0.44120589016377926,0.4200537965416908,-0.328747897176072
1761132809610525000,6.33652490234375,0.5885153432369232,0.3191609344676137,-0.34845077837053684
1761132809630373000,6.356373046875,0.28996728094816204,0.45298225267529485,-0.33503121522925794
1761132809650220800,6.376220703125,-0.3303080591648817,0.8894877100631594,-0.6500512504998595
1761132809670069000,6.396069091796875,-0.28856559745669363,0.7092232051104307,-0.4777425268571824
1761132809689917000,6.4159169921875,0.10149345831573009,0.6141217859193683,-0.666223875208944
1761132809709764900,6.435764892578125,0.8541016316443681,-0.008052958074212075,-0.3950420318167656
1761132809729612800,6.45561279296875,1.1622148101359606,-0.42882279393076894,-0.16342530609369277
1761132809749461000,6.4754609375,0.9861486336559057,-0.58886634863168,-0.15996267148442567
1761132809769309000,6.495308837890625,0.6472779133290052,-0.7776260024681687,-0.12988850880339742
1761132809789156900,6.515156982421875,0.23422376641631126,-1.0714856146797538,-0.08095401669926941
1761132809809005000,6.535005126953125,-0.2935609215259552,-1.0322317549169062,-0.08915895046479999
1761132809828853000,6.55485302734375,-1.1252741957515477,-0.4876981767475605,-0.18250746157392858
1761132809848701000,6.574700927734375,-1.5323977835714817,-0.16964871065318585,-0.14011566911153495
1761132809868548900,6.594548828125,-1.2946692239046096,-0.09308920258581638,-0.15151030229646711
1761132809888397000,6.61439697265625,-0.7365805831134319,-0.2491024788573384,-0.13383078015577046
1761132809908244700,6.63424462890625,-0.23500761027038097,-0.494722668556869,-0.16284933283664285
1761132809928093000,6.654093017578125,0.21768822667896745,-0.6821756237089633,-0.2972189508431591
1761132809947940900,6.67394091796875,0.9898375513017177,-0.7851765639781951,-0.43938101282417774
1761132809967789000,6.6937890625,1.7639274885982275,-0.8529331723868846,-0.34059476764053104
1761132809987636700,6.71363671875,1.595132179903984,-0.5279164976283908,-0.3821671334788203
1761132810007485000,6.73348486328125,0.5060246915549039,-0.015329963339865207,-0.5393164280429482
1761132810027333000,6.7533330078125,-0.4612158280134201,0.30487025104761123,-0.5321264434736221
1761132810047180800,6.773180908203125,-0.7535732189685106,0.5510097884461284,-0.7487136501081287
1761132810067029000,6.793029052734375,-0.6324702202975749,0.5612485661268234,-0.9085322369467467
1761132810086877000,6.812876953125,-0.5259323380738496,0.5197787838801742,-1.1301776037536562
1761132810106724900,6.832724853515625,-0.5850362689495087,0.3628615445062518,-1.2932608184114098
1761132810126572800,6.85257275390625,-0.5946633444726467,0.25981501152962444,-1.5204988175936043
1761132810146421000,6.8724208984375,-0.030921207964420317,-0.058444882445037365,-1.6247281306140124
1761132810166269000,6.89226904296875,0.8017243786752224,-0.44819384935498235,-1.5665436526708303
1761132810186116900,6.912116943359375,1.2136533209502696,-0.7530231838703155,-1.439331377339363
1761132810205964800,6.93196484375,1.3764964432418345,-0.9831272400081157,-1.1977212269987911
1761132810225813000,6.95181298828125,0.6682493896871805,-0.12251900294870137,-0.9843984289877116
1761132810245661000,6.971660888671875,0.4443447727113962,-0.8789850207492709,-1.2970312768608332
1761132810265508900,6.9915087890625,1.265184770745039,-1.3521920230686664,-1.6173448884949087
1761132810285357000,7.011357177734375,1.758268147662282,-1.9692723665326832,-2.0899032176472248
1761132810305205000,7.031205078125,1.5616770695477724,-2.4012749595433474,-2.0698776438370348
1761132810325053000,7.051052978515625,1.0336281777113676,-1.9729966477528214,-1.8652635643951594
1761132810344900900,7.07090087890625,1.1848036585628985,-1.7530454445779322,-1.3556876100994646
1761132810364749000,7.0907490234375,1.7846698323756456,-1.7403922992318868,-0.84037179697752
1761132810384596700,7.1105966796875,1.1980939327687024,-1.7554150963187216,-0.4614339277435094
1761132810404445000,7.13044482421875,-0.3203992440909147,-1.586812095326185,-0.604849880509451
1761132810424292900,7.15029296875,-1.7266642181307077,-1.5225576498195528,-0.9049121467534452
1761132810444140800,7.170140869140625,-2.043102157375216,-1.3743594312131404,-1.4379049977980554
1761132810463987700,7.18998779296875,-1.5315180781275033,-1.292022216527164,-1.9355761408969758
1761132810483836000,7.2098359375,-0.7518722602695226,-1.557367681916058,-2.4385300467044115
1761132810503683800,7.229683837890625,0.18943419209718704,-1.9233944124549627,-2.2594095972202717
1761132810523531800,7.24953173828125,0.8824468516409396,-1.8693349054872987,-2.0636580386698244
1761132810543379700,7.269379638671875,1.2547183217883109,-1.8296049526453018,-1.7957794015415012
1761132810563228000,7.289227783203125,1.1076824249595403,-1.5722443485304711,-1.4636704304344952
1761132810583075800,7.309075927734375,0.9557172550350427,-1.2464239561736583,-1.210462562084943
1761132810602923800,7.328923828125,1.217080372789502,-1.0462927212342619,-0.7181370177976787
1761132810622771700,7.348771728515625,1.597138843551278,-0.8141767407521605,-0.4007076198304072
1761132810642620000,7.368619873046875,1.7533131556034087,-0.789525991359353,-0.09114961282536387
1761132810662467800,7.3884677734375,1.5226993963778017,-0.9465592583283782,0.25733751550018785
1761132810682315800,7.408315673828125,0.7829547962754965,-1.0185556962639093,0.5481049338500946
1761132810702163700,7.428163818359375,0.05232698408663273,-0.912058730572462,0.4766302912989631
1761132810722012000,7.448011962890625,-0.39488486849367616,-0.7446621827602387,0.16978176244832574
1761132810741859600,7.467859619140625,-0.6532581567823886,-0.6389829631924628,-0.11981144275674596
1761132810761707800,7.487707763671875,-0.4707750989973545,-0.4966609431430697,-0.40267654528319835
1761132810781556000,7.507555908203125,-0.18714052820205687,-0.48445554156452414,-0.4770150163002312
1761132810801403600,7.527403564453125,0.0026139818906784056,-0.38475773449391126,-0.3710761594155803
1761132810821251800,7.547251953125,0.15656360363066196,-0.2913806548774242,-0.33523689386919137
1761132810841099800,7.567099853515625,0.034359365719556806,-0.14831044680923222,-0.3700136082179844
1761132810860948000,7.586947998046875,-0.03210603383481502,-0.16857026776671408,-0.5231003295183182
1761132810880795600,7.606795654296875,0.1250081894159317,-0.20826514929533005,-0.805228441273421
1761132810900643800,7.626643798828125,0.14992752661705017,-0.2862663806036114,-1.1656419350404292
1761132810920491800,7.64649169921875,0.12682546797096728,-0.36526042234152556,-1.3793475948892533
1761132810940339700,7.666339599609375,0.006147416713833808,-0.2396376081585884,-1.3441510476931928
1761132810960187600,7.686187744140625,0.0708586660772562,-0.22877046944648027,-1.3923540837176143
1761132810980035800,7.706035888671875,0.04095978689789772,-0.2525102414742112,-1.512747618944943
1761132810999883800,7.7258837890625,-0.058503626894950866,-0.24245354236215352,-1.5504399284794925
1761132811019731700,7.745731689453125,-0.28281273301839827,-0.14173574459403754,-1.5905243938475846
1761132811039580000,7.765579833984375,-0.2662462136209011,-0.021497546058893202,-1.4676483941547571
1761132811059427800,7.785427734375,-0.18217852188050745,0.1045537226691842,-1.4267971821978687
1761132811079275800,7.80527587890625,-0.22546996659636495,0.2177607073932886,-1.375149120286107
1761132811099123700,7.825123779296875,-0.3913438348859548,0.4167807662203908,-1.314764940341562
1761132811118972000,7.844971923828125,-0.3981067531496286,0.5175982249706983,-1.2440988742269574
1761132811138819600,7.864819580078125,-0.21555705986917018,0.5572068895205855,-1.0392726133391261
1761132811158667800,7.884667724609375,-0.1558773749321699,0.6092626554504037,-0.82438863042593
1761132811178515700,7.904515625,-0.2511439215570688,0.679526278243959,-0.6034509734969585
1761132811198364000,7.924364013671875,-0.22141513824760914,0.73063482645154,-0.4479101370427757
1761132811218211800,7.9442119140625,0.040599136891961096,0.46194794168025255,-0.2040367179453373
1761132811238059800,7.964059814453125,0.48020577516555785,-0.13247984047085046,0.1357515556178987
1761132811257908000,7.983907958984375,0.633223669013381,-0.6374634985402227,0.4567504461023956
1761132811277755600,8.003755615234375,0.5484042821228504,-0.9837430338189005,0.6576054652716964
1761132811297603800,8.023603759765624,-0.09644494275450706,-0.9941457698896526,0.55976059259139
1761132811317451800,8.04345166015625,-0.76129533765316,-0.7987158445090055,0.2595911031132564
1761132811337299700,8.0632998046875,-0.9081102852076292,-0.6189262635916472,-0.16225523940101266
1761132811357147600,8.083147705078124,-0.5956096854120493,-0.44510260534137486,-0.5289518320254981
1761132811376995800,8.102995849609375,0.2104319719403982,-0.5188803737357258,-0.6716486767366528
1761132811396843800,8.12284375,0.7374129422843456,-0.6411135454803705,-0.776151107610017
1761132811416691700,8.142691650390624,0.6339899772107601,-0.6545245234563947,-0.8611177940167486
1761132811436540000,8.162539794921875,0.6510153462916612,-0.6547948648303746,-0.7617576944679021
1761132811456387800,8.182387939453125,0.9733668934941291,-0.6302957988679408,-0.48042456901539116
1761132811476235800,8.20223583984375,1.164332532942295,-0.5790571945399046,-0.09208623608835041
1761132811496082700,8.222082763671875,0.8127092985481024,-0.4848071314811706,0.28793738255575296
1761132811515930600,8.2419306640625,0.3303817089229822,-0.5455956544429064,0.5827638670381158
1761132811535778800,8.26177880859375,-0.07220423546731472,-0.5651186855584382,0.793334809057787
1761132811555626800,8.281626708984374,-0.38740415734946726,-0.6430623414605856,0.8054015328180044
1761132811575474700,8.301474609375,-0.6113087743252515,-0.7255746204525232,0.8184493765700608
1761132811595322600,8.321322509765626,-0.37326983353495596,-0.7475432911545038,0.7608209981396794
1761132811615170800,8.3411708984375,-0.13377601776123046,-0.7061188093543053,0.7846358812302351
1761132811635018500,8.3610185546875,-0.4416173935741186,-0.5425578941822051,0.7772501548931002
1761132811654866700,8.38086669921875,-0.6761170543223619,-0.42251346465349193,0.7333108407277613
1761132811674716700,8.400716552734375,-0.6488157904207706,-0.3345964040085673,0.7161597994405776
1761132811694564600,8.420564697265625,-0.6472697300225496,-0.17245090859234333,0.6333611777879298
1761132811714412800,8.440412841796874,-0.5377712444275617,-0.10650544125884771,0.5083273424740881
1761132811734260500,8.460260498046875,-0.2597679575175047,-0.028069033403694627,0.3640155368469655
1761132811754108700,8.480108642578125,0.08588789290487765,-0.013353987091779708,0.2399907324451953
1761132811773956900,8.499956787109374,0.4585463165432214,-0.050774786208570004,0.1127351294286549
1761132811793804500,8.519804443359375,0.48180794966518875,-0.05659311709851026,0.023426102968677878
1761132811813652700,8.53965283203125,0.5890414129376411,-0.0744534756988287,-0.10767952653951943
1761132811833500700,8.559500732421874,1.0813713411390782,-0.1278361063182354,-0.17591193576641379
1761132811853348600,8.5793486328125,1.5643869130283594,-0.15499182426929473,-0.1895323917746544
1761132811873196500,8.599196533203125,1.9493729033201932,-0.19277824182808398,-0.09960713311247527
1761132811893044700,8.619044677734376,2.0086025064021347,-0.2700955825254321,-0.08716934755016117
1761132811912892700,8.638892578125,1.8168407481402158,-0.2848994761645794,-0.23929405541792512
1761132811932740600,8.65874072265625,1.5040478873997927,-0.3884665258839726,-0.3255520968094468
1761132811952588500,8.678588623046876,0.8269313006460666,-0.37025457736700773,-0.472578823951073
1761132811972436700,8.698436767578125,0.1260965691745281,-0.39213381621986626,-0.5223930214991793
1761132811992284700,8.71828466796875,-0.31376492064297196,-0.4510001389473676,-0.4135964370958507
1761132812012132600,8.738132568359376,-0.311368380895257,-0.6045668988496065,-0.11032242399742827
1761132812031979500,8.7579794921875,-0.2469096449881792,-0.9404738009348511,0.19979232184123247
1761132812051827700,8.77782763671875,-0.3773644093722105,-1.1264672049283981,0.39943957265596836
1761132812071676000,8.797676025390626,-0.6107236679136753,-1.263815528218448,0.44740120113994925
1761132812091523600,8.817523681640624,-0.889910027128458,-1.3668278666645288,0.42061493755578994
1761132812111371800,8.837371826171875,-1.1412462563872336,-1.363908764347434,0.31427199338227507
1761132812131219700,8.8572197265625,-1.2781079652041196,-1.2245567000195383,0.15065425172271207
1761132812151067600,8.877067626953124,-1.2550953384071588,-1.0679755607321857,-0.023367385918227953
1761132812170915600,8.89691552734375,-0.8375649228632449,-0.9987029948025942,-0.21291547758551313
1761132812190763800,8.916763671875,-0.49828679077923294,-1.0257114132374525,-0.48826983915567396
1761132812210611500,8.936611572265624,-0.5397200404077768,-0.8312152615755796,-0.5899937086937949
1761132812230459600,8.956459716796875,-0.2128103915095329,-0.6898147402852773,-0.5449361676208675
1761132812250307600,8.9763076171875,0.6782575734823941,-0.5342787261366844,-0.2712010047503747
