time,seconds_elapsed,z,y,x
1761132242957596400,0.112596435546875,-0.7735081315040588,1.0420597791671753,1.8289304971694946
1761132242987619800,0.142619873046875,-0.7735081315040588,1.0420597791671753,1.8289304971694946
1761132242997628200,0.152628173828125,-0.7735081315040588,1.0420597791671753,1.8289304971694946
1761132243007627800,0.162627685546875,-0.4021020531654358,-0.7587710022926331,1.431868076324463
1761132243017632800,0.1726328125,-0.2701551616191864,-0.4221842288970947,1.423926830291748
1761132243027637000,0.182636962890625,-0.08933904021978378,-0.031230485066771507,1.4367550611495972
1761132243037640700,0.192640625,0.08475755155086517,0.401262104511261,1.4880677461624146
1761132243047643600,0.2026435546875,0.24908030033111572,0.9919688105583191,1.6438384056091309
1761132243057646600,0.212646484375,0.3608686327934265,1.1617892980575562,1.7861700057983398
1761132243067649000,0.22264892578125,0.5392413139343262,1.0756573677062988,1.8625280857086182
1761132243077651200,0.232651123046875,0.8483390808105469,0.7940484881401062,1.863139033317566
1761132243087653400,0.2426533203125,1.1201741695404053,0.21555908024311066,1.8570303916931152
1761132243097655300,0.2526552734375,1.1959214210510254,-0.3965279161930084,1.9724838733673096
1761132243107657200,0.2626572265625,1.042594313621521,-1.0128909349441528,2.2198843955993652
1761132243117659000,0.272658935546875,0.8092437386512756,-1.365360140800476,2.6065618991851807
1761132243127660300,0.282660400390625,0.727998673915863,-1.0086148977279663,3.042719841003418
1761132243137662000,0.292661865234375,0.8935431241989136,-0.26335927844047546,3.2033772468566895
1761132243147663400,0.302663330078125,1.337031364440918,0.44890961050987244,2.3573288917541504
1761132243157664500,0.31266455078125,1.504408359527588,-0.011071932502090931,1.0109820365905762
1761132243167666000,0.322666015625,1.602146863937378,-0.3268892765045166,-0.4697553813457489
1761132243177667000,0.3326669921875,1.5202908515930176,-0.7361689805984497,-1.807550311088562
1761132243187668200,0.342668212890625,1.3290899991989136,-1.2297481298446655,-2.9156599044799805
1761132243197669400,0.35266943359375,1.2728904485702515,-1.964008092880249,-3.798970937728882
1761132243207669200,0.362669189453125,1.3785701990127563,-2.137493848800659,-4.357301712036133
1761132243217670100,0.372670166015625,1.5306755304336548,-1.6005432605743408,-4.625471591949463
1761132243227671300,0.38267138671875,1.6833919286727905,-0.7434993386268616,-4.6938886642456055
1761132243237672200,0.392672119140625,1.7212655544281006,0.0720057412981987,-4.608367443084717
1761132243247673000,0.402673095703125,1.2912163734436035,1.2008846998214722,-4.141666412353516
1761132243257674000,0.412674072265625,0.4812090992927551,2.4928646087646484,-3.422677993774414
1761132243267674600,0.422674560546875,0.04138612002134323,2.5014169216156006,-2.8796188831329346
1761132243277674800,0.4326748046875,0.1592831164598465,1.2864058017730713,-2.5864033699035645
1761132243287674600,0.442674560546875,0.6052147150039673,-0.2908482253551483,-2.3102922439575195
1761132243297674800,0.4526748046875,1.1482739448547363,-1.4569900035858154,-1.8784105777740479
1761132243307675600,0.462675537109375,1.6125315427780151,-2.1106157302856445,-1.3603968620300293
1761132243317675500,0.472675537109375,1.7707456350326538,-2.2046890258789062,-0.9004153609275818
1761132243327675600,0.482675537109375,1.5819882154464722,-1.7880789041519165,-0.5558874011039734
1761132243337675500,0.492675537109375,1.2851077318191528,-1.0464885234832764,-0.35613444447517395
1761132243347675600,0.502675537109375,1.0737483501434326,-0.20227275788784027,-0.34758231043815613
1761132243357675500,0.512675537109375,0.9002626538276672,0.7128033638000488,-0.49235737323760986
1761132243367675600,0.522675537109375,0.7115052938461304,1.4519503116607666,-0.7177666425704956
1761132243377675500,0.532675537109375,0.447000652551651,1.8819994926452637,-0.9560040831565857
1761132243387675600,0.542675537109375,0.25213462114334106,1.7653242349624634,-1.0268645286560059
1761132243397675500,0.552675537109375,-0.06185010448098183,1.5631277561187744,-0.978606104850769
1761132243407674600,0.562674560546875,-0.24877487123012543,1.1972194910049438,-0.911410927772522
1761132243417674800,0.5726748046875,-0.16814066469669342,0.7861071825027466,-0.8979719281196594
1761132243427674600,0.582674560546875,-0.11560624837875366,0.35178202390670776,-0.8118399381637573
1761132243437674800,0.5926748046875,-0.06673702597618103,0.13920091092586517,-0.7159340381622314
1761132243447674600,0.602674560546875,0.046273041516542435,0.24793493747711182,-0.7122688889503479
1761132243457674800,0.6126748046875,0.21120665967464447,0.4244749844074249,-0.7159340381622314
1761132243467674600,0.622674560546875,0.3376557528972626,0.34628424048423767,-0.7110471725463867
1761132243477674800,0.6326748046875,0.42012256383895874,0.032299499958753586,-0.7446447610855103
1761132243487674600,0.642674560546875,0.43539419770240784,-0.28901562094688416,-0.8057312369346619
1761132243497674800,0.6526748046875,0.29245173931121826,-0.4997641146183014,-0.9083566069602966
1761132243507675600,0.662675537109375,0.04566217586398125,-0.5284748077392578,-0.941343367099762
1761132243517675500,0.672675537109375,-0.1950187236070633,-0.37453675270080566,-0.9291260242462158
1761132243527675600,0.682675537109375,-0.3312416672706604,0.16913332045078278,-0.9975429177284241
1761132243537675500,0.692675537109375,-0.33246341347694397,0.6480516791343689,-0.827722430229187
1761132243547675600,0.702675537109375,-0.2041817009449005,0.8807913064956665,-0.5057964324951172
1761132243557675500,0.712675537109375,-0.03375030308961868,0.9217193126678467,-0.1417207419872284
1761132243567675600,0.722675537109375,0.0835358202457428,0.6700428128242493,0.21807889640331268
1761132243577675500,0.732675537109375,0.19165897369384766,0.37377315759658813,0.607200026512146
1761132243587675600,0.742675537109375,0.26679539680480957,0.004810563754290342,0.9578366875648499
1761132243597675500,0.752675537109375,0.3724750876426697,-0.4020256996154785,1.0335839986801147
1761132243607675000,0.7626748046875,0.4824308156967163,-1.1204031705856323,0.6444628238677979
1761132243617674800,0.7726748046875,0.4622722864151001,-2.9878182411193848,-0.7733554244041443
1761132243627675000,0.7826748046875,0.2551889419555664,-3.9645917415618896,-1.742187738418579
1761132243637674800,0.7926748046875,0.14217889308929443,-3.7245218753814697,-2.3848178386688232
1761132243647674600,0.802674560546875,0.2154827117919922,-2.4618632793426514,-2.725069761276245
1761132243657674800,0.8126748046875,0.33948835730552673,-0.4851033687591553,-2.701857089996338
1761132243667674600,0.822674560546875,0.41401392221450806,1.617494821548462,-2.2797491550445557
1761132243677674800,0.8326748046875,0.42989641427993774,2.7109436988830566,-1.996307611465454
1761132243687674600,0.842674560546875,0.3572034537792206,2.637028932571411,-1.9645426273345947
1761132243697674800,0.8526748046875,0.3810271918773651,1.7555503845214844,-2.0109684467315674
1761132243707675600,0.862675537109375,0.527634859085083,0.562530517578125,-1.9578231573104858
1761132243717675500,0.872675537109375,0.7096726894378662,-0.6121633052825928,-1.6908750534057617
1761132243727675600,0.882675537109375,0.9582948684692383,-1.8613827228546143,-1.197906732559204
1761132243737675500,0.892675537109375,1.3431400060653687,-3.0397417545318604,-0.5467243790626526
1761132243747675600,0.902675537109375,1.657124638557434,-3.544316530227661,0.2223549485206604
1761132243757675500,0.912675537109375,1.6210836172103882,-3.1301498413085938,0.9450085163116455
1761132243767675600,0.922675537109375,1.3321443796157837,-2.229123592376709,1.454470157623291
1761132243777675500,0.932675537109375,0.9888381361961365,-1.4844789505004883,1.720807433128357
1761132243787675600,0.942675537109375,0.7389942407608032,-1.0470993518829346,1.824654459953308
1761132243797675500,0.952675537109375,0.5838344693183899,-0.8192466497421265,1.8283196687698364
1761132243807675000,0.9626748046875,0.4867068827152252,-0.7819838523864746,1.8106045722961426
1761132243817674800,0.9726748046875,0.4518875777721405,-0.8571202754974365,1.7996090650558472
1761132243827675000,0.9826748046875,0.42928555607795715,-0.8754462599754333,1.7739527225494385
1761132243837674800,0.9926748046875,0.35353827476501465,-0.804585874080658,1.6865988969802856
1761132243847675000,1.0026748046875,0.12202033400535583,-0.5938373804092407,1.3487904071807861
1761132243857674800,1.0126748046875,-0.07651086896657944,-0.37453675270080566,0.9914342761039734
1761132243867675000,1.0226748046875,-0.28909197449684143,-0.17905987799167633,0.5357288122177124
1761132243877674800,1.0326748046875,-0.5138903856277466,0.032299499958753586,0.06108652427792549
1761132243887675000,1.0426748046875,-0.7338019013404846,0.29680415987968445,-0.3494149148464203
1761132243897674800,1.0526748046875,-0.917061448097229,0.5576435923576355,-0.6279694437980652
1761132243907675600,1.062675537109375,-1.0697777271270752,0.7873289585113525,-0.7483099102973938
1761132243917675500,1.072675537109375,-1.1968377828598022,0.9828058481216431,-0.7147123217582703
1761132243927675600,1.082675537109375,-1.2811371088027954,1.2778537273406982,-0.4856378734111786
1761132243937675500,1.092675537109375,-1.2994630336761475,1.588784098625183,-0.1319468915462494
1761132243947675600,1.102675537109375,-1.2432634830474854,1.8044195175170898,0.23273965716362
1761132243957675500,1.112675537109375,-1.1485793590545654,1.8538997173309326,0.513737678527832
1761132243967675400,1.12267529296875,-1.0813841819763184,1.7720437049865723,0.6633996367454529
1761132243977675300,1.13267529296875,-1.0807733535766602,1.6248252391815186,0.6786713004112244
1761132243987675400,1.14267529296875,-1.118036150932312,1.4440090656280518,0.5876523852348328
1761132243997675300,1.15267529296875,-1.1357512474060059,1.247921347618103,0.455705463886261
1761132244007674600,1.162674560546875,-1.0667234659194946,1.1171962022781372,0.3689626157283783
1761132244017674500,1.172674560546875,-0.8950703144073486,1.0603857040405273,0.29016098380088806
1761132244027674600,1.182674560546875,-0.6708827614784241,1.1275808811187744,0.22296582162380219
1761132244037674500,1.192674560546875,-0.4259257912635803,1.293736219406128,0.21441370248794556
1761132244047674600,1.202674560546875,-0.19074267148971558,1.4433982372283936,0.2370157092809677
1761132244057674500,1.212674560546875,-0.017867809161543846,1.5832864046096802,0.3072652220726013
1761132244067674600,1.222674560546875,0.1794416606426239,1.616273045539856,0.4648684561252594
1761132244077674500,1.232674560546875,0.8263479471206665,0.8807913064956665,0.7574729323387146
1761132244087674600,1.242674560546875,1.3584115505218506,-0.2523637115955353,1.0574077367782593
1761132244097674500,1.252674560546875,1.8232800960540771,-1.6408604383468628,1.5595389604568481
1761132244107675400,1.26267529296875,2.180025339126587,-2.785011053085327,2.069000482559204
1761132244117675500,1.272675537109375,2.409099817276001,-3.4386367797851562,2.1893410682678223
1761132244127675400,1.28267529296875,2.4585797786712646,-4.11303186416626,1.4227051734924316
1761132244137675500,1.292675537109375,2.3431262969970703,-4.675027847290039,0.02015855349600315
1761132244147675400,1.30267529296875,2.2508857250213623,-4.252309322357178,-1.2822061777114868
1761132244157675300,1.31267529296875,2.2411117553710938,-2.62007737159729,-2.0763309001922607
1761132244167675400,1.32267529296875,2.063350200653076,-0.3372739851474762,-2.4269676208496094
1761132244177675300,1.33267529296875,1.7243198156356812,1.648648977279663,-2.311514139175415
1761132244187675400,1.34267529296875,1.4182764291763306,2.9980502128601074,-1.8191566467285156
1761132244197675300,1.35267529296875,1.1678216457366943,3.4427602291107178,-1.3671164512634277
1761132244207674400,1.36267431640625,0.9259189963340759,3.1232776641845703,-1.0965031385421753
1761132244217674500,1.372674560546875,0.6174320578575134,2.2802836894989014,-0.9828822016716003
1761132244227674400,1.38267431640625,0.2295326143503189,1.3169491291046143,-0.8576548099517822
1761132244237674500,1.392674560546875,-0.15042556822299957,0.6773731708526611,-0.5619960427284241
1761132244247674400,1.40267431640625,-0.4271475374698639,0.5069417953491211,-0.09712757170200348
1761132244257674500,1.412674560546875,-0.5755877494812012,0.7060838937759399,0.45814892649650574
1761132244267674600,1.422674560546875,-0.6543893814086914,1.1147527694702148,1.0140362977981567
1761132244277674800,1.4326748046875,-0.6983717083930969,1.494710922241211,1.4813482761383057
1761132244287674600,1.442674560546875,-0.7490735054016113,1.685911774635315,1.785559058189392
1761132244297674800,1.4526748046875,-0.7869471311569214,1.6352099180221558,1.9468275308609009
1761132244307675400,1.46267529296875,-0.8181012868881226,1.123304843902588,1.9700404405593872
1761132244317675500,1.472675537109375,-0.8645270466804504,0.7207446098327637,1.881464958190918
1761132244327675400,1.48267529296875,-0.9298896193504333,0.4366922974586487,1.7348573207855225
1761132244337675500,1.492675537109375,-0.9695958495140076,0.2583196461200714,1.547932505607605
1761132244347675600,1.502675537109375,-0.9836457371711731,0.19540052115917206,1.3640620708465576
1761132244357675500,1.512675537109375,-0.9958630800247192,0.24488060176372528,1.2247848510742188
1761132244367675600,1.522675537109375,-1.0288498401641846,0.3658319115638733,1.0512990951538086
1761132244377675500,1.532675537109375,-1.088714599609375,0.4611268937587738,0.817337691783905
1761132244387675600,1.542675537109375,-1.1779009103775024,0.5136613249778748,0.5589417219161987
1761132244397675500,1.552675537109375,-1.2383766174316406,0.552756667137146,0.3188716471195221
1761132244410775300,1.565775390625,-1.202946424484253,0.5900194644927979,0.09896016865968704
1761132244420775200,1.575775146484375,-1.1015427112579346,0.5704717636108398,-0.13011430203914642
1761132244430775300,1.585775390625,-0.9573785662651062,0.4855615198612213,-0.29993483424186707
1761132244440775200,1.595775146484375,-0.7087563872337341,0.3157409727573395,-0.37201693654060364
1761132244450775300,1.605775390625,-0.4271475374698639,0.04818199574947357,-0.3805690407752991
1761132244460775200,1.615775146484375,-0.21762074530124664,-0.2157117873430252,-0.3536909818649292
1761132244470775300,1.625775390625,-0.10399980843067169,-0.41607558727264404,-0.2968805134296417
1761132244480775200,1.635775146484375,-0.06918048858642578,-0.5724570751190186,-0.24556782841682434
1761132244490775300,1.645775390625,-0.09666942805051804,-0.7263951301574707,-0.2370157092809677
1761132244500775200,1.655775146484375,-0.1033889427781105,-0.7838164567947388,-0.23335053026676178
1761132244510775800,1.66577587890625,-0.020311269909143448,-0.6860780119895935,-0.2382374405860901
1761132244520775700,1.675775634765625,0.11468994617462158,-0.49670979380607605,-0.2871066629886627
1761132244530775800,1.68577587890625,0.2203696370124817,-0.3220023512840271,-0.3854559659957886
1761132244540775700,1.695775634765625,0.30405816435813904,-0.19799669086933136,-0.5522221922874451
1761132244550775800,1.70577587890625,0.32910364866256714,-0.3769802153110504,-0.6255260109901428
1761132244560775700,1.715775634765625,0.40973785519599915,-0.6414848566055298,-0.5619960427284241
1761132244570775800,1.72577587890625,0.6223189830780029,-0.8155814409255981,-0.2681698501110077
1761132244580775700,1.735775634765625,0.9589056968688965,-0.8375726342201233,0.18081611394882202
1761132244590775800,1.74577587890625,1.4359915256500244,-0.8864418268203735,0.5491678714752197
1761132244600775700,1.755775634765625,2.015702486038208,-0.9200394153594971,0.6963863968849182
1761132244610775000,1.765775146484375,2.5996897220611572,-1.0464885234832764,0.6976081132888794
1761132244620775000,1.77577490234375,3.154966354370117,-1.3409255743026733,0.6817256212234497
1761132244630775000,1.785775146484375,3.5917348861694336,-1.6842318773269653,0.7373143434524536
1761132244640775000,1.79577490234375,3.8757872581481934,-1.879097819328308,0.9291260242462158
1761132244650774800,1.80577490234375,3.9790234565734863,-2.144824266433716,1.1178834438323975
1761132244660775000,1.81577490234375,3.947869300842285,-2.7135398387908936,0.9456194043159485
1761132244670774800,1.82577490234375,3.847076654434204,-3.2828662395477295,0.43127086758613586
1761132244680775000,1.83577490234375,3.5801284313201904,-3.144199848175049,-0.0354301854968071
1761132244690774800,1.84577490234375,3.028517246246338,-2.0770182609558105,-0.3274237811565399
1761132244700775000,1.85577490234375,2.2618813514709473,-0.7758752107620239,-0.5253441333770752
1761132244710775800,1.86577587890625,1.4940236806869507,0.21006128191947937,-0.5815436840057373
1761132244720775700,1.875775634765625,0.8196284174919128,0.762894332408905,-0.3188716471195221
1761132244730775800,1.88577587890625,0.2741257846355438,0.9565386176109314,0.21135938167572021
1761132244740775700,1.895775634765625,-0.1388191282749176,0.733572781085968,0.7037167549133301
1761132244750775800,1.90577587890625,-0.41431936621665955,0.12087496370077133,0.9999864101409912
1761132244760775700,1.915775634765625,-0.6049093008041382,-0.4032474160194397,1.141707181930542
1761132244770774800,1.92577490234375,-0.7014260292053223,-0.6610325574874878,1.2223412990570068
1761132244780775000,1.93577490234375,-0.6965391039848328,-0.5956699848175049,1.3274102210998535
1761132244790774800,1.94577490234375,-0.716697633266449,-0.34460434317588806,1.4599679708480835
1761132244800775000,1.95577490234375,-0.784503698348999,-0.12041681259870529,1.6731599569320679
1761132244810775300,1.965775390625,-0.8614727258682251,-0.09353873878717422,1.901012659072876
1761132244820775200,1.975775146484375,-0.9097310900688171,-0.23403774201869965,2.0897700786590576
1761132244830775300,1.985775390625,-0.9207266569137573,-0.4948772192001343,2.1734585762023926
1761132244840775200,1.995775146484375,-0.9060658812522888,-0.8003098368644714,2.0873265266418457
1761132244850775300,2.005775390625,-0.9408851861953735,-0.8968265652656555,1.86497163772583
1761132244860775400,2.015775390625,-1.0196868181228638,-0.7856490612030029,1.5668693780899048
1761132244870775300,2.025775390625,-1.1064296960830688,-0.6060546636581421,1.2003501653671265
1761132244880775200,2.035775146484375,-1.1876747608184814,-0.3782019317150116,0.8258898258209229
1761132244890775300,2.045775390625,-1.257924199104309,-0.16867516934871674,0.46853363513946533
1761132244900775200,2.055775146484375,-1.3416128158569336,0.013362676836550236,0.14355333149433136
1761132244910776000,2.065776123046875,-1.4558446407318115,0.17402023077011108,-0.15515977144241333
1761132244920776200,2.075776123046875,-1.5609134435653687,0.31207579374313354,-0.44104471802711487
1761132244930776000,2.085776123046875,-1.6256651878356934,0.45807257294654846,-0.7037167549133301
1761132244940776200,2.095776123046875,-1.6391041278839111,0.5710826516151428,-0.9382890462875366
1761132244950776000,2.105776123046875,-1.5877914428710938,0.6645449995994568,-1.1539244651794434
1761132244960776200,2.115776123046875,-1.476613998413086,0.8203156590461731,-1.3506230115890503
1761132244970775800,2.12577587890625,-1.337336778640747,1.0420597791671753,-1.5027284622192383
1761132244980775700,2.135775634765625,-1.2279918193817139,1.1886674165725708,-1.6126842498779297
1761132244990775800,2.14577587890625,-1.1662944555282593,1.2045499086380005,-1.6694947481155396
1761132245000775700,2.155775634765625,-1.0783299207687378,1.1410199403762817,-1.6676621437072754
1761132245010775000,2.165775146484375,-1.0355693101882935,1.0756573677062988,-1.6499470472335815
1761132245020775000,2.17577490234375,-1.000749945640564,1.0127382278442383,-1.6591099500656128
1761132245030774800,2.18577490234375,-0.9225592613220215,0.9577603340148926,-1.7201964855194092
1761132245040775000,2.19577490234375,-0.7820602059364319,0.9577603340148926,-1.7861700057983398
1761132245050774800,2.20577490234375,-0.5627595782279968,1.017625093460083,-1.8112154006958008
1761132245060775000,2.21577490234375,-0.251218318939209,0.9980774521827698,-1.7892242670059204
1761132245070775800,2.22577587890625,0.09453139454126358,0.8832347989082336,-1.7311921119689941
1761132245080775700,2.235775634765625,0.32299500703811646,0.8355873227119446,-1.6267341375350952
1761132245090775800,2.24577587890625,0.39874228835105896,0.8129853010177612,-1.503339409828186
1761132245100775700,2.255775634765625,0.3260493278503418,0.9101128578186035,-1.3952162265777588
1761132245110775800,2.26577587890625,0.1647808998823166,0.9485973715782166,-1.4660766124725342
1761132245120776000,2.27577587890625,0.0633772686123848,0.4763985276222229,-1.8594738245010376
1761132245130775800,2.28577587890625,0.07987063378095627,-0.5767331719398499,-2.470339059829712
1761132245140776000,2.29577587890625,0.275347501039505,-1.8632153272628784,-3.045163154602051
1761132245150775800,2.30577587890625,0.46532660722732544,-2.877251625061035,-3.393967390060425
1761132245160775700,2.315775634765625,0.6815729141235352,-3.0678415298461914,-3.2455270290374756
1761132245170775800,2.32577587890625,0.925308108329773,-2.5284476280212402,-2.9688050746917725
1761132245180776000,2.33577587890625,0.8336783647537231,-1.0483211278915405,-2.1197023391723633
1761132245190775800,2.34577587890625,0.7237225770950317,0.6034585237503052,-0.9841039180755615
1761132245200776000,2.35577587890625,0.5349652171134949,1.6865226030349731,0.13255776464939117
1761132245210775000,2.365775146484375,0.30283644795417786,2.2106449604034424,0.9767735004425049
1761132245220775000,2.37577490234375,0.15622878074645996,2.2973878383636475,1.5900822877883911
1761132245230775000,2.385775146484375,-0.07162395119667053,1.9644662141799927,2.260812282562256
1761132245240775000,2.39577490234375,-0.22128593921661377,1.7897588014602661,2.690861463546753
1761132245250775000,2.405775146484375,-0.26771169900894165,1.7524960041046143,3.137403964996338
1761132245260775000,2.41577490234375,-0.2499966025352478,1.8038086891174316,3.5405750274658203
1761132245270775300,2.425775390625,-0.20173825323581696,1.790980577468872,3.841120719909668
1761132245280775200,2.435775146484375,-0.19379699230194092,1.552132248878479,4.039041042327881
1761132245290775300,2.445775390625,-0.2762638032436371,1.1208614110946655,4.125783920288086
1761132245300775200,2.455775146484375,-0.44974952936172485,0.572304368019104,4.133114337921143
1761132245310776000,2.465776123046875,-0.6604980230331421,0.0567341111600399,4.010941028594971
1761132245320776200,2.475776123046875,-0.8871290683746338,-0.30367639660835266,3.718336820602417
1761132245330776000,2.485776123046875,-1.1455250978469849,-0.4234059751033783,3.3035593032836914
1761132245340776200,2.495776123046875,-1.345278024673462,-0.27924177050590515,2.85274076461792
1761132245350776000,2.505776123046875,-1.4387403726577759,0.03718642145395279,2.4086415767669678
1761132245360776200,2.515776123046875,-1.489442229270935,0.4922810196876526,2.072054862976074
1761132245370776000,2.525776123046875,-1.574352502822876,0.9351583123207092,1.8197675943374634
1761132245380776200,2.535776123046875,-1.724014401435852,1.1996629238128662,1.5680910348892212
1761132245390776000,2.545776123046875,-1.8913915157318115,1.2693016529083252,1.3005321025848389
1761132245400776200,2.555776123046875,-2.012953758239746,1.1941652297973633,1.0256427526474
1761132245410775300,2.565775390625,-2.0752620697021484,1.0542770624160767,0.7562511563301086
1761132245420775200,2.575775146484375,-2.0917553901672363,0.8490263223648071,0.47280970215797424
1761132245430775300,2.585775390625,-2.0728185176849365,0.6419430375099182,0.1973094791173935
1761132245440775200,2.595775146484375,-1.9781343936920166,0.5063309073448181,-0.007941247895359993
1761132245450775300,2.605775390625,-1.7942639589309692,0.4562399685382843,-0.11239920556545258
1761132245460775200,2.615775146484375,-1.5425875186920166,0.4709007441997528,-0.1368338167667389
1761132245470775300,2.625775390625,-1.0948232412338257,0.5515349507331848,-0.08735372871160507
1761132245480775200,2.635775146484375,-0.8266534209251404,0.6675993800163269,-0.01160643994808197
1761132245490775300,2.645775390625,-0.593913733959198,0.733572781085968,0.08491026610136032
1761132245500775200,2.655775146484375,-0.36300668120384216,0.7329619526863098,0.16982053220272064
1761132245510776000,2.665776123046875,-0.1235474944114685,0.7103599309921265,0.2376265823841095
1761132245520776200,2.675776123046875,0.11591167747974396,0.6840927004814148,0.27550023794174194
1761132245530776000,2.685776123046875,0.3602577745914459,0.6865361928939819,0.2926044464111328
1761132245540776200,2.695776123046875,0.641255795955658,0.6908122301101685,0.3078760802745819
1761132245550776000,2.705776123046875,0.9216429591178894,0.6474407911300659,0.2981022298336029
1761132245560776200,2.715776123046875,1.1244502067565918,0.5509241223335266,0.23029619455337524
1761132245570775300,2.725775390625,1.2136365175247192,0.3652210533618927,0.03420845419168472
1761132245580775200,2.735775146484375,1.2368494272232056,0.06039930135011673,-0.37568211555480957
1761132245590775300,2.745775390625,1.2234103679656982,-0.5608506798744202,-1.035416603088379
1761132245600775400,2.755775390625,1.193477988243103,-1.6255887746810913,-1.8496999740600586
1761132245610774500,2.7657744140625,1.1867583990097046,-2.9285643100738525,-2.6419920921325684
1761132245620774400,2.7757744140625,1.089020013809204,-3.8747947216033936,-3.1673362255096436
1761132245630774500,2.7857744140625,0.7664831876754761,-4.054388999938965,-3.3371567726135254
1761132245640774400,2.7957744140625,0.35659259557724,-3.2633185386657715,-3.154508113861084
1761132245650774500,2.8057744140625,0.21059578657150269,-1.6830101013183594,-2.772106409072876
1761132245660774400,2.8157744140625,0.38957929611206055,0.26198482513427734,-2.381152629852295
1761132245670774300,2.825774169921875,0.6357579827308655,1.84534752368927,-2.1264219284057617
1761132245680774400,2.8357744140625,0.650418758392334,2.8135690689086914,-2.1337523460388184
1761132245690774300,2.845774169921875,0.5881105065345764,2.8917596340179443,-2.431243658065796
1761132245700774400,2.8557744140625,0.528245747089386,0.9333257079124451,-2.917492389678955
1761132245710775300,2.865775390625,0.9387471675872803,-0.5339725613594055,-2.3884830474853516
1761132245720775200,2.875775146484375,1.6351335048675537,-1.6585755348205566,-1.302364706993103
1761132245730775300,2.885775390625,2.1281018257141113,-2.2388975620269775,0.06658431142568588
1761132245740775200,2.895775146484375,2.1537580490112305,-2.117946147918701,1.4581353664398193
1761132245750775300,2.905775390625,1.6913331747055054,-1.5357916355133057,2.5802948474884033
1761132245760775200,2.915775146484375,0.9088147878646851,-0.7648796439170837,3.2705724239349365
1761132245770775300,2.925775390625,0.09208793938159943,-0.08376489579677582,3.4654386043548584
1761132245780775200,2.935775146484375,-0.5419901609420776,0.35300374031066895,3.224146842956543
1761132245790775300,2.945775390625,-0.9805914163589478,0.5277112126350403,2.719572067260742
1761132245800775200,2.955775146484375,-1.1962268352508545,0.439746618270874,2.157576084136963
1761132245810774500,2.9657744140625,-1.1595749855041504,0.137979194521904,1.6591099500656128
1761132245820774400,2.9757744140625,-0.984867513179779,-0.2053270787000656,1.3292428255081177
1761132245830774500,2.9857744140625,-0.9158397316932678,-0.41546472907066345,1.2455542087554932
1761132245840774400,2.9957744140625,-1.0074695348739624,-0.5626832246780396,1.3445143699645996
1761132245850774500,3.0057744140625,-1.1491901874542236,-0.7147886753082275,1.4880677461624146
1761132245860774400,3.0157744140625,-1.2976305484771729,-0.8400160670280457,1.5790866613388062
1761132245870775300,3.025775390625,-1.4332425594329834,-0.9224829077720642,1.5693128108978271
1761132245880775200,3.035775146484375,-1.552361249923706,-0.976239025592804,1.4605787992477417
1761132245890775300,3.045775390625,-1.658041000366211,-0.9847911596298218,1.2901474237442017
1761132245900775200,3.055775146484375,-1.751503348350525,-0.9640217423439026,1.0983357429504395
1761132245910776000,3.065776123046875,-1.821752905845642,-0.9505826830863953,0.9046914577484131
1761132245920776200,3.075776123046875,-1.8596265316009521,-0.9285915493965149,0.7250970602035522
1761132245930776000,3.085776123046875,-1.9029979705810547,-0.8870527148246765,0.4856378734111786
1761132245940776200,3.095776123046875,-1.906663179397583,-0.8907178640365601,0.4453207552433014
1761132245950776000,3.105776123046875,-1.8162550926208496,-0.8094727993011475,0.5900958180427551
1761132245960776200,3.115776123046875,-1.621999979019165,-0.6866888999938965,0.8521569967269897
1761132245970776000,3.125776123046875,-1.372156023979187,-0.6378196477890015,1.094059705734253
1761132245980776200,3.135776123046875,-1.1595749855041504,-0.6940192580223083,1.2418889999389648
1761132245990776000,3.145776123046875,-1.0154107809066772,-0.8180249333381653,1.2864822149276733
1761132246000776200,3.155776123046875,-0.8700248003005981,-1.0385472774505615,1.2479976415634155
1761132246010775300,3.165775390625,-0.6348416805267334,-1.2279155254364014,1.2113457918167114
1761132246020775200,3.175775146484375,-0.28787025809288025,-1.4606552124023438,1.19912850856781
1761132246030775300,3.185775390625,0.12079860270023346,-1.7508161067962646,1.2235630750656128
1761132246040775200,3.195775146484375,0.4934264123439789,-2.0849595069885254,1.2803735733032227
1761132246050775300,3.205775390625,0.6669121384620667,-2.279825448989868,1.356731653213501
1761132246060775200,3.215775146484375,0.5062545537948608,-2.0886247158050537,1.3640620708465576
1761132246070775300,3.225775390625,0.04505131021142006,-1.650023341178894,1.0018190145492554
1761132246080775200,3.235775146484375,-0.5364924073219299,-0.9792933464050293,0.22418753802776337
1761132246090775300,3.245775390625,-0.9476047158241272,-0.41057780385017395,-0.8356636762619019
1761132246100775200,3.255775146484375,-1.023352026939392,-0.17234036326408386,-2.0140228271484375
1761132246110776000,3.265776123046875,-0.8724682927131653,-0.1301906555891037,-3.087312936782837
1761132246120776200,3.275776123046875,-0.6794348955154419,-0.07582364976406097,-3.80263614654541
1761132246130776000,3.285776123046875,-0.4827362596988678,0.11659890413284302,-3.8447859287261963
1761132246140776200,3.295776123046875,-0.2921462953090668,0.6456081867218018,-3.1276299953460693
1761132246150776000,3.305776123046875,-0.17241671681404114,1.2589168548583984,-2.1001546382904053
1761132246160776200,3.315776123046875,-0.12232576310634613,1.6785813570022583,-0.7006624341011047
1761132246170776000,3.325776123046875,-0.1595885455608368,1.3737596273422241,-0.16737708449363708
1761132246180776200,3.335776123046875,-0.26343563199043274,0.772668182849884,0.05192354694008827
1761132246190776000,3.345776123046875,-0.37522396445274353,0.21128301322460175,0.04886921867728233
1761132246200776200,3.355776123046875,-0.38011088967323303,-0.09292787313461304,-0.11301007121801376
1761132246210775300,3.365775390625,-0.2744311988353729,-0.11675161868333817,-0.36651915311813354
1761132246220775200,3.375775146484375,-0.13271047174930573,0.07994698733091354,-0.6120869517326355
1761132246230775300,3.385775390625,-0.08384125679731369,0.32246050238609314,-0.769690215587616
1761132246240775200,3.395775146484375,-0.15164729952812195,0.6529386043548584,-0.7287622094154358
1761132246250775300,3.405775390625,-0.3006984293460846,0.8722392320632935,-0.4801400899887085
1761132246260775200,3.415775146484375,-0.5041165351867676,0.9687559008598328,-0.02687807008624077
1761132246270775300,3.425775390625,-0.6989825367927551,0.8221482634544373,0.4795292317867279
1761132246280775200,3.435775146484375,-0.8535314798355103,0.4415792226791382,0.9456194043159485
1761132246290775300,3.445775390625,-0.9127854108810425,0.0188604649156332,1.3408491611480713
1761132246300775200,3.455775146484375,-0.8706356883049011,-0.34093916416168213,1.6206254959106445
1761132246310776000,3.465776123046875,-0.746630072593689,-0.6036112308502197,1.7623462677001953
1761132246320776000,3.47577587890625,-0.5633704662322998,-0.7318929433822632,1.788002610206604
1761132246330776000,3.485776123046875,-0.34284812211990356,-0.7037931084632874,1.7330247163772583
1761132246340776000,3.49577587890625,-0.13454307615756989,-0.6048329472541809,1.5968017578125
1761132246350776000,3.505776123046875,0.001679879380390048,-0.5083162188529968,1.4184291362762451
1761132246360776200,3.515776123046875,0.07192938029766083,-0.4350124001502991,1.2492194175720215
1761132246370776000,3.525776123046875,0.12996158003807068,-0.37087157368659973,1.1441506147384644
1761132246380776200,3.535776123046875,0.1592831164598465,-0.3763693571090698,1.084285855293274
1761132246390776000,3.545776123046875,0.05726861581206322,-0.5889504551887512,0.988990843296051
1761132246400776000,3.55577587890625,-0.03497203439474106,-0.7642687559127808,0.8912523984909058
1761132246410775000,3.565775146484375,-0.1235474944114685,-0.8516225218772888,0.7367035150527954
1761132246420775200,3.575775146484375,-0.1644754707813263,-0.681191086769104,0.6310238242149353
1761132246430775000,3.585775146484375,-0.09178250283002853,-0.25908321142196655,0.6377432942390442
1761132246440775200,3.595775146484375,0.10980302840471268,0.2833651304244995,0.7159340381622314
1761132246450775000,3.605775146484375,0.31871894001960754,0.6614906787872314,0.7458664774894714
1761132246460775200,3.615775146484375,0.39996400475502014,0.6810383796691895,0.6475171446800232
1761132246470775000,3.625775146484375,0.18188512325286865,0.3035236597061157,0.4288274049758911
1761132246480775200,3.635775146484375,-0.4027129113674164,-0.15645785629749298,0.18570303916931152
1761132246490775000,3.645775146484375,-1.1620184183120728,-0.5382486581802368,-0.04642575979232788
1761132246500775200,3.655775146484375,-1.8522961139678955,-0.681191086769104,-0.31581732630729675
1761132246510776000,3.665776123046875,-2.378251075744629,-0.5718462467193604,-0.7189884185791016
1761132246520776000,3.67577587890625,-2.6592490673065186,-0.37453675270080566,-1.3573426008224487
1761132246530776000,3.685776123046875,-2.7099509239196777,-0.2462550550699234,-2.284025192260742
1761132246540776000,3.69577587890625,-2.5663976669311523,-0.06604980677366257,-3.327993869781494
1761132246550776000,3.705776123046875,-2.213317394256592,0.3261256814002991,-4.117231845855713
1761132246560776000,3.71577587890625,-1.7942639589309692,0.7207446098327637,-4.47825288772583
1761132246570776000,3.725776123046875,-1.4546228647232056,1.0182360410690308,-4.318817138671875
1761132246580776000,3.73577587890625,-1.2255483865737915,1.2045499086380005,-3.7000107765197754
1761132246590776000,3.745776123046875,-1.0636690855026245,1.2680798768997192,-2.792264938354492
1761132246600776200,3.755776123046875,-0.9005680680274963,0.9974665641784668,-1.806328535079956
1761132246610775300,3.765775390625,-0.7179193496704102,0.49900054931640625,-0.8350527882575989
1761132246620775200,3.775775146484375,-0.35445454716682434,-0.36476290225982666,0.46242499351501465
1761132246630775300,3.785775390625,-0.09300423413515091,-0.8186357617378235,1.1233811378479004
1761132246640775200,3.795775146484375,0.1385136991739273,-1.0495429039001465,1.549154281616211
1761132246650775300,3.805775390625,0.33826664090156555,-1.0678688287734985,1.720807433128357
1761132246660775200,3.815775146484375,0.4836525619029999,-0.9059895277023315,1.7018705606460571
1761132246670775300,3.825775390625,0.5911648273468018,-0.6359871029853821,1.5680910348892212
1761132246680775200,3.835775146484375,0.6491970419883728,-0.34521523118019104,1.3921618461608887
1761132246690775300,3.845775390625,0.6553056836128235,-0.13324497640132904,1.2315043210983276
1761132246700775200,3.855775146484375,0.5997169613838196,-0.06727153807878494,1.1233811378479004
1761132246710776000,3.865776123046875,0.48976120352745056,-0.08193229883909225,1.0867292881011963
1761132246720776200,3.875776123046875,0.3627012372016907,-0.1552361249923706,1.0989465713500977
1761132246730776000,3.885776123046875,0.2545780837535858,-0.2260964959859848,1.1362093687057495
1761132246740776200,3.895776123046875,0.20082195103168488,-0.22243130207061768,1.19912850856781
1761132246750776000,3.905776123046875,0.18066339194774628,-0.1295797973871231,1.2773191928863525
1761132246760776200,3.915776123046875,0.11774427443742752,0.07567093521356583,1.3628404140472412
1761132246770776000,3.925776123046875,-0.008704829961061478,0.21433734893798828,1.4391984939575195
1761132246780776200,3.935776123046875,-0.1638645976781845,0.13675746321678162,1.490511178970337
1761132246790776000,3.945776123046875,-0.3306308090686798,-0.09842566400766373,1.4752395153045654
1761132246800776200,3.955776123046875,-0.46013423800468445,-0.3384957015514374,1.4019356966018677
1761132246810775300,3.965775390625,-0.483957976102829,-0.4722751975059509,1.3310753107070923
1761132246820775200,3.975775146484375,-0.3819434940814972,-0.5223661661148071,1.2712105512619019
1761132246830775300,3.985775390625,-0.21823160350322723,-0.5022075772285461,1.1691961288452148
1761132246840775200,3.995775146484375,-0.023976460099220276,-0.41118866205215454,1.0378600358963013
1761132246850775300,4.005775390625,0.16722436249256134,-0.32383492588996887,0.797789990901947
1761132246860775200,4.015775146484375,0.10797043144702911,-0.28901562094688416,0.6505714654922485
1761132246870775300,4.025775390625,-0.06001751124858856,-0.0849866271018982,0.5937610268592834
1761132246880775200,4.035775146484375,-0.21273382008075714,0.17218764126300812,0.6548475623130798
1761132246890775300,4.045775390625,-0.25854870676994324,0.3554472029209137,0.694553792476654
1761132246900775200,4.055775146484375,-0.2909245789051056,0.39393171668052673,0.45753806829452515
1761132246910776000,4.065776123046875,-0.4973970353603363,0.3346777856349945,-0.07941248267889023
1761132246920776000,4.07577587890625,-0.784503698348999,0.3090214431285858,-0.6334672570228577
1761132246930776000,4.085776123046875,-1.0306823253631592,0.2858085632324219,-1.0610729455947876
1761132246940776000,4.09577587890625,-1.1339186429977417,0.29130637645721436,-1.359175205230713
1761132246950776000,4.105776123046875,-1.1162035465240479,0.37743836641311646,-1.5900822877883911
1761132246960776000,4.11577587890625,-1.0062477588653564,0.40309470891952515,-1.8081611394882202
1761132246970776000,4.125776123046875,-0.7826710939407349,0.29802587628364563,-2.0341813564300537
1761132246980776000,4.13577587890625,-0.5542075037956238,0.07811439037322998,-2.113593816757202
1761132246990776000,4.145776123046875,-0.4369213581085205,-0.2309834212064743,-1.9352210760116577
1761132247000776000,4.15577587890625,-0.42470407485961914,-0.6207154393196106,-1.6102408170700073
1761132247010775300,4.165775390625,-0.4888449013233185,-1.0104475021362305,-1.2296717166900635
1761132247020775200,4.175775146484375,-0.5761986374855042,-1.34825599193573,-0.8943067193031311
1761132247030775300,4.185775390625,-0.6543893814086914,-1.5535067319869995,-0.7098253965377808
1761132247040775200,4.195775146484375,-0.697149932384491,-1.5473979711532593,-0.7391469478607178
1761132247050775300,4.205775390625,-0.6727153658866882,-1.3280973434448242,-0.9816604256629944
1761132247060775200,4.215775146484375,-0.5835290551185608,-0.9719629883766174,-1.36650550365448
1761132247070775300,4.225775390625,-0.4772384762763977,-0.6439283490180969,-1.797776460647583
1761132247080775200,4.235775146484375,-0.33857205510139465,-0.32566753029823303,-2.0775527954101562
1761132247090775300,4.245775390625,-0.1394299864768982,0.2888629138469696,-2.0054705142974854
1761132247100775200,4.255775146484375,-0.08567385375499725,0.5643631219863892,-1.728137731552124
1761132247110776000,4.265776123046875,-0.04841107130050659,0.5637522339820862,-1.3151928186416626
1761132247120776200,4.275776123046875,0.009010262787342072,0.2485457956790924,-0.8038986921310425
1761132247130776000,4.285776123046875,0.027947084978222847,-0.2572506368160248,-0.2571742534637451
1761132247140776200,4.295776123046875,-0.013591751456260681,-0.7783187031745911,0.23396138846874237
1761132247150776000,4.305776123046875,-0.07651086896657944,-1.1662181615829468,0.6004805564880371
1761132247160776200,4.315776123046875,-0.10644327104091644,-1.3360387086868286,0.8142833709716797
1761132247170776000,4.325776123046875,-0.11255192011594772,-1.3097714185714722,0.8936958312988281
1761132247180776200,4.335776123046875,-0.10644327104091644,-1.1326205730438232,0.8607091307640076
1761132247190776000,4.345776123046875,-0.07406741380691528,-0.8363508582115173,0.750142514705658
1761132247200776200,4.355776123046875,-0.04963280260562897,-0.5168683528900146,0.5870414972305298
1761132247210775300,4.365775390625,-0.06612616032361984,-0.24992024898529053,0.3982841372489929
1761132247220775200,4.375775146484375,-0.11621711403131485,-0.08559749275445938,0.21380282938480377
1761132247230775300,4.385775390625,-0.1944078654050827,-0.0544433668255806,0.06230825558304787
1761132247240775200,4.395775146484375,-0.2811507284641266,-0.11797334998846054,-0.03848451003432274
1761132247250775300,4.405775390625,-0.3507893681526184,-0.19738583266735077,-0.08185594528913498
1761132247260775200,4.415775146484375,-0.3880521357059479,-0.22365303337574005,-0.0708603709936142
1761132247270775300,4.425775390625,-0.40882155299186707,-0.22915083169937134,-0.07757988572120667
1761132247280775200,4.435775146484375,-0.4283692538738251,-0.1857793927192688,-0.13072516024112701
1761132247290775300,4.445775390625,-0.4124867618083954,-0.13385584950447083,-0.19547687470912933
1761132247300775200,4.455775146484375,-0.3251330256462097,-0.15645785629749298,-0.23884831368923187
1761132247310776000,4.465776123046875,-0.1485929638147354,-0.16195565462112427,-0.2021963894367218
1761132247320776000,4.47577587890625,0.24297164380550385,0.07017314434051514,0.14233160018920898
1761132247330776000,4.485776123046875,0.41340306401252747,0.18196149170398712,0.4056145250797272
1761132247340776000,4.49577587890625,0.417679101228714,0.17157678306102753,0.5485569834709167
1761132247350776000,4.505776123046875,0.2698497176170349,0.08544477820396423,0.578489363193512
1761132247360776000,4.51577587890625,0.057879481464624405,-0.08804095536470413,0.41722095012664795
1761132247370776000,4.525776123046875,-0.0832303911447525,-0.044058654457330704,0.05009094998240471
1761132247380776200,4.535776123046875,-0.13698652386665344,0.0817795842885971,-0.618195652961731
1761132247390776000,4.545776123046875,-0.14126259088516235,-0.004352414980530739,-1.6010777950286865
1761132247400776000,4.55577587890625,-0.22311852872371674,-0.6188828349113464,-2.84968638420105
1761132247410775300,4.565775390625,-0.4106541574001312,-1.302441120147705,-4.106235980987549
1761132247420775200,4.575775146484375,-0.6403394937515259,-1.2150872945785522,-4.895473957061768
1761132247430775300,4.585775390625,-0.8675813674926758,-0.3672063648700714,-5.0933942794799805
1761132247440775200,4.595775146484375,-0.9280570149421692,0.3536146283149719,-4.933958530426025
1761132247450775300,4.605775390625,-0.716697633266449,1.0304533243179321,-4.328591346740723
1761132247460775200,4.615775146484375,-0.39477166533470154,1.0585530996322632,-3.662137031555176
1761132247470775300,4.625775390625,-0.17180584371089935,0.5637522339820862,-3.062878370285034
1761132247480775200,4.635775146484375,0.004123340360820293,-0.1399645060300827,-2.56563401222229
1761132247490775000,4.645775146484375,0.12629638612270355,-0.7251734137535095,-2.2479841709136963
1761132247500775200,4.655775146484375,0.08231408894062042,-0.9096547365188599,-2.1502456665039062
1761132247510776000,4.665776123046875,-0.168751522898674,-0.6512587070465088,-2.1795670986175537
1761132247520776000,4.67577587890625,-0.48090365529060364,-0.10819950699806213,-2.222327709197998
1761132247530776000,4.685776123046875,-0.6989825367927551,0.5081635117530823,-2.2742512226104736
1761132247540776000,4.69577587890625,-0.7447974681854248,1.0616074800491333,-2.3066272735595703
1761132247550776000,4.705776123046875,-0.6708827614784241,1.6382641792297363,-2.1759018898010254
1761132247560776000,4.71577587890625,-0.6776022911071777,1.5502996444702148,-1.8887953758239746
1761132247570776000,4.725776123046875,-0.6837109327316284,1.1593458652496338,-1.3964380025863647
1761132247580776200,4.735776123046875,-0.6397286057472229,0.6651558876037598,-0.7324274182319641
1761132247590776000,4.745776123046875,-0.5786421298980713,0.15691600739955902,-0.021991148591041565
1761132247600776200,4.755776123046875,-0.5731443166732788,-0.3287218511104584,0.5534439086914062
1761132247610775300,4.765775390625,-0.6635523438453674,-0.720897376537323,0.8943067193031311
1761132247620775200,4.775775146484375,-0.8400924205780029,-1.0110583305358887,1.006095051765442
1761132247630775300,4.785775390625,-1.0997101068496704,-1.1857657432556152,0.9285151958465576
1761132247640775200,4.795775146484375,-1.3880385160446167,-1.1448378562927246,0.7360926270484924
1761132247650775300,4.805775390625,-1.658041000366211,-0.8681158423423767,0.45265114307403564
1761132247660775200,4.815775146484375,-1.8706220388412476,-0.4282929003238678,0.0959058403968811
1761132247670775300,4.825775390625,-2.001347303390503,0.03107776865363121,-0.2718350291252136
1761132247680775200,4.835775146484375,-2.037388324737549,0.4195880591869354,-0.5418374538421631
1761132247690775300,4.845775390625,-1.9555323123931885,0.6969208717346191,-0.6432411074638367
1761132247700775200,4.855775146484375,-1.7771596908569336,0.837419867515564,-0.5894849896430969
1761132247710776000,4.865776123046875,-1.5682437419891357,0.7867180705070496,-0.45753806829452515
1761132247720776200,4.875776123046875,-1.400255799293518,0.5173265337944031,-0.29993483424186707
1761132247730776000,4.885776123046875,-1.3513866662979126,0.15997034311294556,-0.152105450630188
1761132247740776200,4.895776123046875,-1.3574953079223633,-0.16806429624557495,-0.021380282938480377
1761132247750776000,4.905776123046875,-1.347110629081726,-0.36964982748031616,0.11239920556545258
1761132247760776200,4.915776123046875,-1.2939653396606445,-0.3360522389411926,0.2620611786842346
1761132247770776000,4.925776123046875,-1.195005178451538,-0.15645785629749298,0.3634648323059082
1761132247780776200,4.935776123046875,-0.9225592613220215,0.17646369338035583,0.34636059403419495
1761132247790776000,4.945776123046875,-0.6892086863517761,0.34200817346572876,0.28466320037841797
1761132247800776200,4.955776123046875,-0.47601673007011414,0.4971679449081421,0.32620203495025635
1761132247810775300,4.965775390625,-0.34284812211990356,0.6535494327545166,0.5180137157440186
1761132247820775200,4.975775146484375,-0.3459024429321289,0.782442033290863,0.8319984674453735
1761132247830775300,4.985775390625,-0.432645320892334,0.762283444404602,1.1844676733016968
1761132247840775200,4.995775146484375,-0.48090365529060364,0.5411502718925476,1.4306464195251465
1761132247850775300,5.005775390625,-0.5132794976234436,0.11293371021747589,1.4080443382263184
1761132247860775200,5.015775146484375,-0.5957463383674622,-0.3885866403579712,1.1496484279632568
1761132247870775300,5.025775390625,-0.7576256394386292,-0.8259661793708801,0.769079327583313
1761132247880775200,5.035775146484375,-1.0276280641555786,-1.230969786643982,0.2583959996700287
1761132247890775300,5.045775390625,-1.392925500869751,-1.5864933729171753,-0.46303585171699524
1761132247900775200,5.055775146484375,-1.724014401435852,-1.6823992729187012,-1.4025466442108154
1761132247910776000,5.065776123046875,-1.9115500450134277,-1.5583935976028442,-2.476447820663452
1761132247920776000,5.07577587890625,-1.8248071670532227,-1.299386739730835,-3.383582592010498
1761132247930776000,5.085776123046875,-1.3666582107543945,-0.814359724521637,-3.7702603340148926
1761132247940776000,5.09577587890625,-0.7313584089279175,-0.2621375620365143,-3.617543935775757
1761132247950776000,5.105776123046875,-0.15347988903522491,0.137979194521904,-3.1587841510772705
1761132247960776000,5.11577587890625,0.20815233886241913,0.3762166202068329,-2.5925121307373047
1761132247970776000,5.125776123046875,0.29733866453170776,0.40859249234199524,-2.1282544136047363
1761132247980776000,5.13577587890625,0.1647808998823166,0.2699260711669922,-1.7690657377243042
1761132247990776000,5.145776123046875,-0.09605856239795685,-0.0037415495608001947,-1.4666874408721924
1761132248000776000,5.15577587890625,-0.44852781295776367,-0.35926511883735657,-1.2040153741836548
1761132248010775300,5.165775390625,-0.6989825367927551,-0.5645158290863037,-0.9053022861480713
1761132248020775400,5.175775390625,-0.6495024561882019,-0.4026365578174591,-0.3182607889175415
1761132248030775300,5.185775390625,-0.4014911949634552,-0.0996473953127861,0.08735372871160507
1761132248040775200,5.195775146484375,-0.09666942805051804,0.1532508134841919,0.44654250144958496
1761132248050775300,5.205775390625,0.17516560852527618,0.27725645899772644,0.7641924023628235
1761132248060775200,5.215775146484375,0.36453384160995483,0.29313895106315613,1.017701506614685
1761132248070775300,5.225775390625,0.4384485185146332,0.29741501808166504,1.2192870378494263
1761132248080775200,5.235775146484375,0.3956879675388336,0.3139083683490753,1.4037683010101318
1761132248090775300,5.245775390625,0.2838996350765228,0.3090214431285858,1.568701982498169
1761132248100775400,5.255775390625,0.14706580340862274,0.2992476224899292,1.6988162994384766
1761132248110776000,5.265776123046875,-0.018478672951459885,0.3334560692310333,1.757459282875061
1761132248120776200,5.275776123046875,-0.22861631214618683,0.420809805393219,1.722640037536621
1761132248130776000,5.285776123046875,-0.4729624092578888,0.4971679449081421,1.5534303188323975
1761132248140776200,5.295776123046875,-0.70692378282547,0.5460371971130371,1.273043155670166
1761132248150776000,5.305776123046875,-0.9103419184684753,0.5796347856521606,0.9474520087242126
1761132248160776200,5.315776123046875,-1.04289972782135,0.6608798503875732,0.6548475623130798
1761132248170776000,5.325776123046875,-1.088714599609375,0.7952702045440674,0.4508185386657715
1761132248180776200,5.335776123046875,-1.059393048286438,0.8746826648712158,0.33597588539123535
1761132248190776000,5.345776123046875,-0.9665415287017822,0.8820130825042725,0.2987131178379059
1761132248200776200,5.355776123046875,-0.8388707041740417,0.847804605960846,0.3335324227809906
1761132248210775300,5.365775390625,-0.7111998796463013,0.7885506749153137,0.4447098970413208
1761132248220775400,5.375775390625,-0.5829181671142578,0.7299076318740845,0.6120869517326355
1761132248230775300,5.385775390625,-0.461355984210968,0.695088267326355,0.8051204085350037
1761132248240775400,5.395775390625,-0.3061962127685547,0.7066947221755981,1.06657075881958
1761132248250775300,5.405775390625,-0.20112738013267517,0.7415140271186829,1.1887437105178833
1761132248260775400,5.415775390625,-0.11316278576850891,0.724409818649292,1.197295904159546
1761132248270775300,5.425775390625,-0.056352317333221436,0.5802456140518188,1.0629055500030518
1761132248280775400,5.435775390625,-0.024587325751781464,0.37316229939460754,0.7819074988365173
1761132248290775300,5.445775390625,0.0022907445672899485,0.25526532530784607,0.3695734739303589
1761132248300775400,5.455775390625,0.0377209298312664,0.05734497308731079,-0.10201449692249298
1761132248310776000,5.465776123046875,0.10125091671943665,-0.22731822729110718,-0.45142942667007446
1761132248320776000,5.47577587890625,0.20387627184391022,-0.43012550473213196,-0.5436700582504272
1761132248330776000,5.485776123046875,0.24602597951889038,-0.33421963453292847,-0.33047810196876526
1761132248340776000,5.49577587890625,0.11530081182718277,0.06467536091804504,0.10812314599752426
1761132248350776000,5.505776123046875,-0.14187344908714294,0.6297256946563721,0.6017022728919983
1761132248360776200,5.515776123046875,-0.4381431043148041,1.0133490562438965,0.7971791625022888
1761132248370776000,5.525776123046875,-0.8608618378639221,0.9382126331329346,0.3378084897994995
1761132248380776200,5.535776123046875,-1.3923145532608032,0.724409818649292,-0.6310238242149353
1761132248390776000,5.545776123046875,-1.7667750120162964,0.5655848383903503,-1.742187738418579
1761132248400776000,5.55577587890625,-1.715462327003479,0.3291800022125244,-2.7763824462890625
1761132248410775300,5.565775390625,-1.2371548414230347,0.09277515858411789,-3.495370864868164
1761132248420775200,5.575775146484375,-0.49067750573158264,-0.20288361608982086,-3.649308919906616
1761132248430775300,5.585775390625,0.20265454053878784,-0.8833875060081482,-3.084258556365967
1761132248440775200,5.595775146484375,0.4970915913581848,-1.8271743059158325,-2.085494041442871
1761132248450775300,5.605775390625,0.3608686327934265,-2.71781587600708,-1.0574077367782593
1761132248460775200,5.615775146484375,0.024892758578062057,-3.046461343765259,-0.32681289315223694
1761132248470775300,5.625775390625,-0.33735033869743347,-2.3134231567382812,-0.11667526513338089
1761132248480775200,5.635775146484375,-0.6989825367927551,-1.2224177122116089,-0.5436700582504272
1761132248490775300,5.645775390625,-0.8920159935951233,-0.034895677119493484,-1.0580185651779175
1761132248500775200,5.655775146484375,-1.0154107809066772,0.9217193126678467,-1.567480206489563
1761132248510776000,5.665776123046875,-1.1217013597488403,1.532584547996521,-1.8503108024597168
1761132248520776000,5.67577587890625,-1.1662944555282593,1.9113210439682007,-1.6218472719192505
1761132248530776000,5.685776123046875,-1.072221279144287,1.988900899887085,-0.950506329536438
1761132248540776000,5.69577587890625,-0.8681922554969788,1.8190803527832031,-0.025656340643763542
1761132248550776000,5.705776123046875,-0.5786421298980713,1.4324026107788086,0.950506329536438
1761132248560776000,5.71577587890625,-0.23716843128204346,0.905836820602417,1.794722080230713
1761132248570776000,5.725776123046875,0.12690725922584534,0.42752930521965027,2.3909265995025635
1761132248580776000,5.73577587890625,0.4280638098716736,0.10987938940525055,2.6926939487457275
1761132248590776000,5.745776123046875,0.6400340795516968,-0.00862847175449133,2.766608715057373
1761132248600776000,5.75577587890625,0.7670940160751343,0.009697485715150833,2.7091872692108154
1761132248610775600,5.765775634765625,0.8294022679328918,0.08605564385652542,2.574186086654663
1761132248620775400,5.775775390625,0.8092437386512756,0.17402023077011108,2.4049763679504395
1761132248630775600,5.785775634765625,0.7530441284179688,0.2803107798099518,2.2204952239990234
1761132248640775400,5.795775390625,0.6650795340538025,0.4195880591869354,2.088548183441162
1761132248650775300,5.805775390625,0.48059824109077454,0.47273334860801697,2.0366246700286865
1761132248660775400,5.815775390625,0.20143280923366547,0.4244749844074249,2.0500638484954834
1761132248670775300,5.825775390625,-0.04963280260562897,0.26137396693229675,2.063502788543701
1761132248680775400,5.835775390625,-0.1846340149641037,0.08849909901618958,2.065946340560913
1761132248690775300,5.845775390625,-0.260992169380188,-0.08254316449165344,2.070833206176758
1761132248700775400,5.855775390625,-0.32330042123794556,-0.2010510265827179,2.0616703033447266
1761132248710776300,5.8657763671875,-0.4069889783859253,-0.25847235321998596,1.974927306175232
1761132248720776200,5.875776123046875,-0.4827362596988678,-0.22853995859622955,1.8790215253829956
1761132248730776300,5.8857763671875,-0.603687584400177,-0.15890131890773773,1.7275269031524658
1761132248740776200,5.895776123046875,-0.7490735054016113,-0.0391717329621315,1.5155566930770874
1761132248750776300,5.9057763671875,-0.8529205918312073,0.09521862119436264,1.2602150440216064
1761132248760776200,5.915776123046875,-0.8614727258682251,0.20578522980213165,0.9908234477043152
1761132248770776300,5.9257763671875,-0.7814493775367737,0.2858085632324219,0.7287622094154358
1761132248780776200,5.935776123046875,-0.6403394937515259,0.3139083683490753,0.48685958981513977
1761132248790776300,5.9457763671875,-0.42531493306159973,0.33712124824523926,0.31154128909111023
1761132248800776200,5.955776123046875,-0.15836681425571442,0.3389538526535034,0.1875356286764145
1761132248810775300,5.965775390625,0.12446379661560059,0.2546544373035431,0.11056660860776901
1761132248820775400,5.975775390625,0.4225660264492035,0.13920091092586517,0.06414084881544113
1761132248830775300,5.985775390625,0.7139487266540527,0.04268420860171318,-0.019547687843441963
1761132248840775400,5.995775390625,0.9454666972160339,0.0921642929315567,-0.13866640627384186
1761132248850775600,6.005775634765625,1.0798569917678833,0.3652210533618927,-0.23151792585849762
1761132248860775400,6.015775390625,1.1818715333938599,0.5008331537246704,-0.3640756905078888
1761132248870775600,6.025775634765625,1.286940336227417,-0.01840231567621231,-0.6133087277412415
1761132248880775400,6.035775390625,1.3364204168319702,-1.0959686040878296,-0.9004153609275818
1761132248890775600,6.045775634765625,1.2973250150680542,-2.4001657962799072,-1.3066407442092896
1761132248900775400,6.055775390625,1.078635334968567,-3.949320077896118,-2.026850938796997
1761132248910776000,6.065776123046875,0.6742424964904785,-5.137453079223633,-2.816699743270874
1761132248920776000,6.07577587890625,0.18310685455799103,-5.405622959136963,-3.2754595279693604
1761132248930776000,6.085776123046875,-0.0630718395113945,-4.626769542694092,-3.1282408237457275
1761132248940776000,6.09577587890625,0.4225660264492035,-2.0794615745544434,-2.046398639678955
1761132248950776000,6.105776123046875,1.0926852226257324,0.038408152759075165,-1.3878858089447021
1761132248960776000,6.11577587890625,1.4921910762786865,1.8887189626693726,-1.208902359008789
1761132248970776000,6.125776123046875,1.3498594760894775,3.4366514682769775,-1.4257594347000122
1761132248980776000,6.13577587890625,0.7463245987892151,4.470235347747803,-1.7873916625976562
1761132248990776000,6.145776123046875,-0.013591751456260681,4.859356880187988,-2.0775527954101562
1761132249000776000,6.15577587890625,-0.6537785530090332,4.476344108581543,-2.0818288326263428
1761132249010775300,6.165775390625,-1.0826059579849243,3.6651151180267334,-1.7776178121566772
1761132249020775200,6.175775146484375,-1.2066116333007812,2.636418104171753,-1.091616153717041
1761132249030775000,6.185775146484375,-1.0172433853149414,1.6883552074432373,-0.16004669666290283
1761132249040775200,6.195775146484375,-0.6256787180900574,1.01212739944458,0.8014551997184753
1761132249050775000,6.205775146484375,-0.1791362315416336,0.5173265337944031,1.6242907047271729
1761132249060775200,6.215775146484375,0.1837177276611328,0.19112446904182434,2.2064452171325684
1761132249070775300,6.225775390625,0.39385536313056946,0.023747386410832405,2.5173757076263428
1761132249080775200,6.235775146484375,0.4427245855331421,-0.022678371518850327,2.595566511154175
1761132249090775300,6.245775390625,0.337044894695282,-0.022678371518850327,2.5027148723602295
1761132249100775200,6.255775146484375,0.12996158003807068,-0.03000875562429428,2.3237314224243164
1761132249110776000,6.265776123046875,-0.1082758679986,-0.028787024319171906,2.1313087940216064
1761132249120776200,6.275776123046875,-0.3110831379890442,0.015806138515472412,1.995696783065796
1761132249130776000,6.285776123046875,-0.40393465757369995,0.21067215502262115,1.949881911277771
1761132249140776200,6.295776123046875,-0.3972151279449463,0.5038874745368958,1.9883663654327393
1761132249150776000,6.305776123046875,-0.3520110845565796,0.8313112258911133,2.057394027709961
1761132249160776000,6.31577587890625,-0.28848111629486084,1.0157924890518188,2.088548183441162
1761132249170776000,6.325776123046875,-0.18096883594989777,1.2980122566223145,2.0775527954101562
1761132249180776200,6.335776123046875,-0.0832303911447525,1.0695487260818481,2.094046115875244
1761132249190776000,6.345776123046875,-0.11255192011594772,0.6792057752609253,1.985922932624817
1761132249200776200,6.355776123046875,-0.29336804151535034,0.32795828580856323,1.7696765661239624
1761132249210775300,6.365775390625,-0.574976921081543,0.17402023077011108,1.4324790239334106
1761132249220775200,6.375775146484375,-0.9433286786079407,0.2577087879180908,0.9657779335975647
1761132249230775300,6.385775390625,-1.3251193761825562,0.48861584067344666,0.4105014503002167
1761132249240775200,6.395775146484375,-1.5822937488555908,0.8154287338256836,-0.19486601650714874
1761132249250775300,6.405775390625,-1.6140587329864502,1.1129201650619507,-0.8014551997184753
1761132249260775200,6.415775146484375,-1.4515684843063354,1.2320388555526733,-1.3225232362747192
1761132249270775300,6.425775390625,-1.214552879333496,0.9858601689338684,-1.6841554641723633
1761132249280775200,6.435775146484375,-0.8822421431541443,0.8526915311813354,-1.5564846992492676
1761132249290775300,6.445775390625,-0.6757696866989136,0.6468299627304077,-1.1832460165023804
1761132249300775200,6.455775146484375,-0.48456886410713196,0.1477530300617218,-0.5919284224510193
1761132249310776000,6.465776123046875,-0.15714508295059204,-0.3928627073764801,0.1918116807937622
1761132249320776000,6.47577587890625,0.16661348938941956,-1.0965794324874878,0.837496280670166
1761132249330776000,6.485776123046875,0.4072943925857544,-1.9621754884719849,1.0806206464767456
1761132249340776000,6.49577587890625,0.45921793580055237,-2.7282004356384277,0.8087855577468872
1761132249350776000,6.505776123046875,0.3309362530708313,-3.2584316730499268,0.01160643994808197
1761132249360776000,6.51577587890625,0.08597928285598755,-3.6823720932006836,-1.2467759847640991
1761132249370776000,6.525776123046875,-0.18585574626922607,-3.9309942722320557,-2.6786441802978516
1761132249380776200,6.535776123046875,-0.4576907753944397,-3.6658787727355957,-3.860668420791626
1761132249390776000,6.545776123046875,-0.8016079068183899,-3.1209869384765625,-4.630358695983887
1761132249400776000,6.55577587890625,-1.306182622909546,-2.427043914794922,-4.653571605682373
1761132249410775300,6.565775390625,-1.2921327352523804,-1.4441617727279663,-3.8704421520233154
1761132249420775200,6.575775146484375,-1.1137601137161255,-0.07154759019613266,-2.9779679775238037
1761132249430775300,6.585775390625,-1.0319041013717651,1.1129201650619507,-2.5558602809906006
1761132249440775200,6.595775146484375,-1.2078332901000977,2.0707569122314453,-2.627331495285034
1761132249450775300,6.605775390625,-1.5407549142837524,2.500195026397705,-2.869844913482666
1761132249460775200,6.615775146484375,-1.7380642890930176,2.5789966583251953,-2.785545587539673
1761132249470775000,6.625775146484375,-1.8327484130859375,2.184377670288086,-2.323120594024658
1761132249480775200,6.635775146484375,-1.6048957109451294,1.6003905534744263,-1.4135421514511108
1761132249490775000,6.645775146484375,-1.1241447925567627,1.0322859287261963,-0.3597996234893799
1761132249500775200,6.655775146484375,-0.5804746747016907,0.5380959510803223,0.5705481171607971
1761132249510776000,6.665776123046875,-0.07162395119667053,0.14103351533412933,1.312138557434082
1761132249520776000,6.67577587890625,0.3364340364933014,-0.09659306704998016,1.8564194440841675
1761132249530776000,6.685776123046875,0.6015495657920837,-0.20349448919296265,2.22171688079834
1761132249540776000,6.69577587890625,0.6858489513397217,-0.32933273911476135,2.364659309387207
1761132249550776000,6.705776123046875,0.5789475440979004,-0.51992267370224,2.2937989234924316
1761132249560776000,6.71577587890625,0.3962988257408142,-0.643317461013794,2.1447479724884033
1761132249570776000,6.725776123046875,0.24113905429840088,-0.6640868782997131,2.004248857498169
1761132249580776000,6.73577587890625,0.09758572280406952,-0.7270060181617737,1.8686367273330688
1761132249590776000,6.745776123046875,0.04688390716910362,-0.8510116338729858,1.8002198934555054
1761132249600776200,6.755776123046875,0.07987063378095627,-1.0367146730422974,1.793500304222107
1761132249610775300,6.765775390625,0.18616119027137756,-1.271897792816162,1.8020524978637695
1761132249620775200,6.775775146484375,0.30772337317466736,-1.3897948265075684,1.870469331741333
1761132249630775300,6.785775390625,0.0988074541091919,-1.3629167079925537,1.9517145156860352
1761132249640775200,6.795775146484375,-0.2396118938922882,-1.2248611450195312,1.9443840980529785
1761132249650775300,6.805775390625,-0.5865833759307861,-1.080696940422058,1.853365182876587
1761132249660775200,6.815775146484375,-0.8755226135253906,-0.9230937361717224,1.6774359941482544
1761132249670775300,6.825775390625,-1.059393048286438,-0.6885215044021606,1.4972307682037354
1761132249680775200,6.835775146484375,-1.0850493907928467,-0.4227951169013977,1.3347405195236206
1761132249690775300,6.845775390625,-1.0386236906051636,-0.296956866979599,1.1551461219787598
1761132249700775200,6.855775146484375,-0.9677632451057434,-0.3073415756225586,1.0109820365905762
1761132249710776000,6.865776123046875,-0.877966046333313,-0.45639270544052124,0.978606104850769
1761132249720776000,6.87577587890625,-0.7893906235694885,-0.653091311454773,1.1148290634155273
1761132249730776000,6.885776123046875,-0.7667886018753052,-0.8479573130607605,1.359786033630371
1761132249740776200,6.895776123046875,-0.8443684577941895,-1.0373255014419556,1.6194037199020386
1761132249750776000,6.905776123046875,-1.0276280641555786,-1.1992048025131226,1.8350391387939453
1761132249760776200,6.915776123046875,-1.268919825553894,-1.3623058795928955,1.9523253440856934
1761132249770776000,6.925776123046875,-1.4564554691314697,-1.602375864982605,1.9425514936447144
1761132249780776200,6.935776123046875,-1.553583025932312,-1.8864282369613647,1.8313740491867065
1761132249790776000,6.945776123046875,-1.5315918922424316,-2.0990092754364014,1.681712031364441
1761132249800776200,6.955776123046875,-1.3904820680618286,-2.18453049659729,1.5039502382278442
1761132249810775300,6.965775390625,-1.1394164562225342,-1.9780579805374146,1.350012183189392
1761132249820775200,6.975775146484375,-0.8248208165168762,-1.5168547630310059,1.19607412815094
1761132249830775300,6.985775390625,-0.5401576161384583,-1.1234575510025024,0.9633345007896423
1761132249840775200,6.995775146484375,-0.37522396445274353,-0.9047678112983704,0.6866125464439392
1761132249850775300,7.005775390625,-0.35262197256088257,-0.863228976726532,0.36713001132011414
1761132249860775400,7.015775390625,-0.4179845452308655,-0.8748353719711304,-0.15943582355976105
1761132249870775300,7.025775390625,-0.432034432888031,-0.85284423828125,-0.4807509481906891
1761132249880775400,7.035775390625,-0.34284812211990356,-0.852233350276947,-0.7489207983016968
1761132249890775300,7.045775390625,-0.13576480746269226,-0.8326857089996338,-0.9773843884468079
1761132249900775200,7.055775146484375,0.11224649101495743,-0.8491790294647217,-1.253495454788208
1761132249910776000,7.065776123046875,0.3058907687664032,-0.9114872813224792,-1.5125023126602173
1761132249920776200,7.075776123046875,0.46043968200683594,-0.8858309388160706,-1.6481144428253174
1761132249930776000,7.085776123046875,0.5648976564407349,-0.7990881204605103,-1.711033582687378
1761132249940776200,7.095776123046875,0.5392413139343262,-0.6298784017562866,-1.7415767908096313
1761132249950776000,7.105776123046875,0.29245173931121826,-0.3739258944988251,-1.7153096199035645
1761132249960776200,7.115776123046875,0.015118914656341076,-0.17967073619365692,-1.6603317260742188
1761132249970776000,7.125776123046875,-0.16508632898330688,-0.0006872233934700489,-1.5522085428237915
1761132249980776200,7.135776123046875,-0.25305092334747314,0.20517437160015106,-1.378722906112671
1761132249990776000,7.145776123046875,-0.28420504927635193,0.3383429944515228,-1.147204875946045
1761132250000776200,7.155776123046875,-0.18524488806724548,0.6657667756080627,-0.911410927772522
1761132250010775300,7.165775390625,-0.014813481830060482,0.9473756551742554,-0.685390830039978
1761132250020775200,7.175775146484375,0.1488984078168869,1.131856918334961,-0.4605923891067505
1761132250030775300,7.185775390625,0.2912299931049347,1.2497539520263672,-0.2064724564552307
1761132250040775200,7.195775146484375,0.427452951669693,1.3157273530960083,0.08124507963657379
1761132250050775300,7.205775390625,0.537408709526062,1.362153172492981,0.36713001132011414
1761132250060775200,7.215775146484375,0.5618433356285095,1.3933072090148926,0.6334672570228577
1761132250070775300,7.225775390625,0.5007568001747131,1.4036920070648193,0.8839219808578491
1761132250080775200,7.235775146484375,0.3700316250324249,1.4501177072525024,1.0903944969177246
1761132250090775300,7.245775390625,0.2399173229932785,1.4733306169509888,1.2785409688949585
1761132250100775200,7.255775146484375,0.19532416760921478,1.40980064868927,1.5595389604568481
1761132250110776000,7.265776123046875,0.23197607696056366,1.3615422248840332,1.7232508659362793
1761132250120776000,7.27577587890625,0.3309362530708313,1.199052095413208,1.832595705986023
1761132250130776000,7.285776123046875,0.4928155243396759,0.8807913064956665,1.8545868396759033
1761132250140776000,7.29577587890625,0.6846272349357605,0.715246856212616,1.8002198934555054
1761132250150776000,7.305776123046875,0.8544477820396423,0.7097490429878235,1.7788395881652832
1761132250170776000,7.325776123046875,0.88987797498703,0.7372379899024963,1.8216001987457275
1761132250180776000,7.33577587890625,0.7640396952629089,0.6462190747261047,1.794722080230713
1761132250190776000,7.345776123046875,0.6070473194122314,0.5197699666023254,1.748907208442688
1761132250200776000,7.35577587890625,0.3962988257408142,0.34628424048423767,1.7067575454711914
1761132250210775300,7.365775390625,0.16172657907009125,0.15019649267196655,1.6756033897399902
1761132250220775200,7.375775146484375,-0.07406741380691528,-0.03367394581437111,1.6297885179519653
1761132250230775300,7.385775390625,-0.29886582493782043,-0.15218180418014526,1.5473216772079468
1761132250240775200,7.395775146484375,-0.5407684445381165,-0.2914590835571289,1.474017858505249
1761132250250775300,7.405775390625,-0.7325801253318787,-0.28901562094688416,1.4892895221710205
1761132250260775200,7.415775146484375,-0.784503698348999,-0.11125383526086807,1.5821410417556763
1761132250270775300,7.425775390625,-0.6959282159805298,0.12209668755531311,1.6847662925720215
1761132250280775200,7.435775146484375,-0.47051894664764404,0.29741501808166504,1.757459282875061
1761132250290775300,7.445775390625,-0.1791362315416336,0.3560580909252167,1.7635679244995117
1761132250300775200,7.455775146484375,0.11713340878486633,0.4696790277957916,1.72935950756073
1761132250310776000,7.465776123046875,0.3773620128631592,0.7488444447517395,1.701259732246399
1761132250320776000,7.47577587890625,0.5642867684364319,1.0903180837631226,1.6792685985565186
1761132250330776000,7.485776123046875,0.6864598393440247,1.1660653352737427,1.613295078277588
1761132250340776000,7.49577587890625,0.5893322229385376,0.8105418086051941,1.5436564683914185
1761132250350776000,7.505776123046875,0.39385536313056946,0.36644279956817627,1.3854423761367798
1761132250360776200,7.515776123046875,0.17516560852527618,-0.05322163552045822,1.045190453529358
1761132250370776000,7.525776123046875,-0.05451972410082817,-0.7153995633125305,0.2840523421764374
1761132250380776200,7.535776123046875,-0.3672827184200287,-1.5034157037734985,-0.9040805697441101
1761132250390776000,7.545776123046875,-0.8730791807174683,-2.0800724029541016,-2.099543809890747
1761132250400776200,7.555776123046875,-1.4020884037017822,-2.020207643508911,-2.8515188694000244
1761132250410775300,7.565775390625,-1.6739234924316406,-0.9432523250579834,-3.040276288986206
1761132250420775400,7.575775390625,-1.5761851072311401,0.7470118403434753,-2.772717237472534
1761132250430775300,7.585775390625,-1.1479685306549072,2.5093581676483154,-2.3072381019592285
1761132250440775400,7.595775390625,-0.5798638463020325,3.6962692737579346,-1.968207836151123
1761132250450775300,7.605775390625,-0.07528914511203766,4.217947959899902,-1.825876235961914
1761132250460775400,7.615775390625,0.29917123913764954,4.225278377532959,-1.8179349899291992
1761132250470775300,7.625775390625,0.630871057510376,3.82088565826416,-1.8949040174484253
1761132250480775200,7.635775146484375,0.9485210180282593,3.1147255897521973,-1.9566013813018799
1761132250490775300,7.645775390625,1.1733194589614868,2.348700523376465,-1.8851301670074463
1761132250500775200,7.655775146484375,1.3187053203582764,1.6712509393692017,-1.6303993463516235
1761132250510776000,7.665776123046875,1.4372131824493408,1.1782827377319336,-1.2290608882904053
1761132250520776200,7.675776123046875,1.6198619604110718,0.7940484881401062,-0.788016140460968
1761132250530776000,7.685776123046875,1.9002490043640137,0.481896311044693,-0.39645153284072876
1761132250540776200,7.695776123046875,2.244776964187622,0.27786731719970703,-0.03420845419168472
1761132250550776000,7.705776123046875,2.5587618350982666,0.1172097697854042,0.31031954288482666
1761132250560776200,7.715776123046875,2.760347366333008,-0.061162881553173065,0.7996225953102112
1761132250570776000,7.725776123046875,2.6809349060058594,-0.0898735523223877,1.0677924156188965
1761132250580776200,7.735776123046875,2.4604125022888184,-0.037339139729738235,1.2767083644866943
1761132250590776000,7.745776123046875,2.141540765762329,0.0921642929315567,1.398881435394287
1761132250600776200,7.755776123046875,1.7945693731307983,0.2790890634059906,1.4172073602676392
1761132250610775300,7.765775390625,1.4341589212417603,0.5118287205696106,1.3439035415649414
1761132250620775400,7.775775390625,1.1812607049942017,0.7427358031272888,1.215621829032898
1761132250630775300,7.785775390625,0.915534257888794,0.8850674033164978,1.053742527961731
1761132250640775400,7.795775390625,0.5746715068817139,0.9229410290718079,0.8936958312988281
1761132250650775300,7.805775390625,0.23625212907791138,0.7977136373519897,0.7281513810157776
1761132250660775400,7.815775390625,-0.01542434748262167,0.5796347856521606,0.5491678714752197
1761132250670775300,7.825775390625,-0.2102903574705124,0.3401755690574646,0.3683517575263977
1761132250680775200,7.835775146484375,-0.3868304193019867,0.07933612167835236,0.20341812074184418
1761132250690775300,7.845775390625,-0.5597052574157715,-0.16684256494045258,0.060475658625364304
1761132250700775200,7.855775146484375,-0.7319692969322205,-0.35437819361686707,-0.04886921867728233
1761132250710776000,7.865776123046875,-0.8846855759620667,-0.40446916222572327,-0.09407325088977814
1761132250720776000,7.87577587890625,-1.0099129676818848,-0.41118866205215454,-0.10751228034496307
1761132250730776000,7.885776123046875,-1.1131491661071777,-0.47044259309768677,-0.11728613078594208
1761132250740776200,7.895776123046875,-1.1730140447616577,-0.5907830595970154,-0.11056660860776901
1761132250750776000,7.905776123046875,-1.1607966423034668,-0.7337254881858826,-0.08429940044879913
1761132250760776200,7.915776123046875,-1.0575604438781738,-0.8681158423423767,-0.03848451003432274
1761132250770776000,7.925776123046875,-0.8064948320388794,-0.994564950466156,-0.009773843921720982
1761132250780776000,7.93577587890625,-0.3776674270629883,-1.1729376316070557,-0.051312681287527084
1761132250790776000,7.945776123046875,0.46471574902534485,-1.1601094007492065,-0.1014036312699318
1761132250800776000,7.95577587890625,1.0181596279144287,-0.6390414237976074,0.08002334833145142
1761132250810775000,7.965775146484375,1.3987287282943726,0.038408152759075165,0.36163222789764404
1761132250820775200,7.975775146484375,1.561829686164856,0.3639993369579315,0.46853363513946533
1761132250830775000,7.985775146484375,1.52578866481781,0.15630514919757843,0.2125810980796814
1761132250840775200,7.995775146484375,1.342529058456421,-0.7569383978843689,-0.5418374538421631
1761132250850775300,8.005775390625,0.9430232048034668,-2.44964599609375,-1.8545868396759033
1761132250860775200,8.015775146484375,0.30711251497268677,-4.274300575256348,-3.349985122680664
1761132250870775000,8.025775146484374,-0.39843684434890747,-4.86683988571167,-4.460537910461426
1761132250880775200,8.035775146484376,-0.9439395070075989,-4.204661846160889,-5.209458827972412
1761132250890775000,8.045775146484376,-1.3324497938156128,-2.3922245502471924,-5.1770830154418945
1761132250910776000,8.065776123046875,-1.7496707439422607,2.9919416904449463,-3.9260308742523193
1761132250920776000,8.07577587890625,-1.8730655908584595,4.831256866455078,-3.584557294845581
1761132250930776000,8.085776123046875,-2.093587875366211,5.537416934967041,-3.5973854064941406
1761132250940776000,8.09577587890625,-2.286010503768921,4.928384304046631,-3.598607063293457
1761132250950776000,8.105776123046875,-2.2011001110076904,3.685884475708008,-3.043330669403076
1761132250960776000,8.11577587890625,-1.6977472305297852,2.567390203475952,-1.9932533502578735
1761132250970776000,8.125776123046874,-0.9158397316932678,1.6407077312469482,-0.7831292152404785
1761132250980776000,8.13577587890625,0.00045814894838258624,0.8001571297645569,0.33597588539123535
1761132250990776000,8.145776123046875,0.9033169746398926,0.168522447347641,1.2046263217926025
1761132251000776000,8.15577587890625,1.6614007949829102,-0.2157117873430252,1.7256942987442017
1761132251010775000,8.165775146484375,2.1763601303100586,-0.3977496325969696,1.9578231573104858
1761132251020775200,8.175775146484375,2.437199592590332,-0.36415204405784607,1.9675970077514648
1761132251030775000,8.185775146484374,2.3571763038635254,-0.1503492146730423,1.8332066535949707
1761132251040775200,8.195775146484374,2.1543691158294678,0.17035505175590515,1.616349458694458
1761132251050775000,8.205775146484376,1.962557315826416,0.46418121457099915,1.3310753107070923
1761132251060775200,8.215775146484376,1.895362138748169,0.7164685726165771,1.034194827079773
1761132251070775000,8.225775146484375,1.8403842449188232,1.0353401899337769,0.817948579788208
1761132251080775200,8.235775146484375,1.7194329500198364,1.2589168548583984,0.7086036801338196
1761132251090775000,8.245775146484375,1.5514450073242188,1.3407728672027588,0.7061602473258972
1761132251100775200,8.255775146484375,1.3523029088974,1.2302062511444092,0.7641924023628235
1761132251110776000,8.265776123046875,1.08718740940094,1.020068645477295,0.8546004891395569
1761132251120776000,8.27577587890625,0.7579310536384583,0.7793877124786377,0.9663888216018677
1761132251130776000,8.285776123046874,0.4231768846511841,0.48433977365493774,1.0134254693984985
1761132251140776000,8.29577587890625,0.1281289905309677,0.15386168658733368,0.9474520087242126
1761132251150776000,8.305776123046876,-0.09728029370307922,-0.17722727358341217,0.788627028465271
1761132251160776000,8.31577587890625,-0.2793181240558624,-0.4875468313694,0.5821545720100403
1761132251170776000,8.325776123046875,-0.4375322461128235,-0.794812023639679,0.3549126982688904
1761132251180776000,8.33577587890625,-0.5725334286689758,-1.0464885234832764,0.15882496535778046
1761132251190776000,8.345776123046875,-0.6849326491355896,-1.1973721981048584,0.04092797264456749
1761132251200776000,8.35577587890625,-0.7680103182792664,-1.2279155254364014,0.02687807008624077
1761132251210775300,8.365775390625,-0.8364272117614746,-1.2401328086853027,0.09957103431224823
1761132251220775200,8.375775146484376,-0.8248208165168762,-1.2566261291503906,0.304210901260376
1761132251230775300,8.385775390625,-0.7057020664215088,-1.3354277610778809,0.5943718552589417
1761132251240775200,8.395775146484375,-0.5028948187828064,-1.4050663709640503,0.8607091307640076
1761132251250775300,8.405775390625,-0.15836681425571442,-1.3415364027023315,1.0128145217895508
1761132251260775200,8.415775146484375,-0.0019853119738399982,-1.4258358478546143,0.8662069439888
1761132251270775300,8.425775390625,0.08720101416110992,-1.7893006801605225,0.4691445231437683
1761132251280775200,8.435775146484374,0.07376197725534439,-2.2584452629089355,-0.1007927656173706
1761132251290775300,8.445775390625,-0.0936150997877121,-2.7520241737365723,-0.7464773058891296
1761132251300775200,8.455775146484376,-0.37461310625076294,-2.921233892440796,-1.4043792486190796
1761132251310776000,8.465776123046876,-0.727082371711731,-2.4728589057922363,-2.0134117603302
1761132251320776000,8.47577587890625,-1.0404561758041382,-1.5767195224761963,-2.5705208778381348
1761132251330776000,8.485776123046875,-1.2353222370147705,-0.5351943373680115,-2.937040090560913
1761132251340776000,8.49577587890625,-1.2890783548355103,0.5600870847702026,-2.9877419471740723
1761132251350776000,8.505776123046875,-1.2206615209579468,1.4678328037261963,-2.737898111343384
1761132251360776000,8.51577587890625,-1.1131491661071777,1.980348825454712,-2.4049763679504395
1761132251370776000,8.525776123046874,-1.0355693101882935,2.0096702575683594,-2.1710150241851807
1761132251380776200,8.535776123046874,-1.0374019145965576,1.6517032384872437,-2.121535062789917
1761132251390776000,8.545776123046876,-1.1888965368270874,0.9406561255455017,-2.194838762283325
1761132251400776000,8.55577587890625,-1.429577350616455,0.07872525602579117,-2.0531179904937744
1761132251410775300,8.565775390625,-1.49738347530365,-0.3818671405315399,-1.5326608419418335
1761132251420775200,8.575775146484375,-1.3012956380844116,-0.47044259309768677,-0.8491026759147644
1761132251430775300,8.585775390625,-0.8846855759620667,-0.2908482253551483,-0.18325957655906677
1761132251440775200,8.595775146484375,-0.3019201457500458,0.01947133056819439,0.323147714138031
1761132251450775300,8.605775390625,0.34315356612205505,0.2289981096982956,0.6291912198066711
1761132251460775200,8.615775146484374,0.9259189963340759,0.23021984100341797,0.8051204085350037
1761132251470775000,8.625775146484376,1.3315335512161255,0.01947133056819439,0.9346238374710083
1761132251480775200,8.635775146484375,1.5575536489486694,-0.5755113959312439,1.1239920854568481
1761132251490775000,8.645775146484375,1.4659239053726196,-1.0104475021362305,1.2626584768295288
1761132251500775200,8.655775146484375,1.1898127794265747,-1.3366495370864868,1.3946053981781006
1761132251510776000,8.665776123046875,0.7841982841491699,-1.4490487575531006,1.50211763381958
1761132251520776000,8.67577587890625,0.35353827476501465,-1.243798017501831,1.5815300941467285
1761132251530776000,8.685776123046875,-0.06490442901849747,-0.8259661793708801,1.671938180923462
1761132251540776000,8.69577587890625,-0.44058656692504883,-0.2761874496936798,1.806328535079956
1761132251550776000,8.705776123046874,-0.7851145267486572,0.23021984100341797,1.9914207458496094
1761132251560776000,8.71577587890625,-0.9891435503959656,0.44768786430358887,2.1838431358337402
1761132251570776300,8.7257763671875,-1.0832167863845825,0.48372891545295715,2.3890938758850098
1761132251580776200,8.735776123046875,-1.1571314334869385,0.2699260711669922,2.4275784492492676
1761132251590776300,8.7457763671875,-1.212720274925232,0.12331841886043549,2.406198263168335
1761132251600776400,8.7557763671875,-1.2524265050888062,0.05062545835971832,2.302962064743042
1761132251610775600,8.765775634765625,-1.3110694885253906,-0.06849326193332672,2.0335702896118164
1761132251620775400,8.775775390625,-1.3672691583633423,-0.48571422696113586,1.703092336654663
1761132251630775600,8.785775634765624,-1.5175420045852661,-0.891328752040863,1.2583824396133423
1761132251640775400,8.795775390625,-1.6708691120147705,-1.2486848831176758,0.8338310718536377
1761132251650775300,8.805775390625,-1.6940820217132568,-1.1857657432556152,0.47769662737846375
1761132251660775400,8.815775390625,-1.4857770204544067,-0.8296313881874084,0.17898350954055786
1761132251670775300,8.825775390625,-1.1131491661071777,-0.9127090573310852,-0.11362093687057495
1761132251680775400,8.835775390625,-0.6940956115722656,-1.0929142236709595,-0.34513887763023376
1761132251690775300,8.845775390625,-0.27259862422943115,-1.3030519485473633,-0.394008070230484
1761132251700775400,8.855775390625,0.09086620807647705,-1.4588226079940796,-0.2474004179239273
1761132251710776300,8.8657763671875,0.26374107599258423,-1.4075099229812622,-0.01160643994808197
1761132251720776200,8.875776123046874,-0.02886338345706463,-1.363527536392212,0.012217304669320583
1761132251730776300,8.8857763671875,-0.4980078935623169,-1.2706760168075562,-0.31459560990333557
1761132251740776200,8.895776123046875,-0.9133962392807007,-0.6701955199241638,-0.7538077235221863
1761132251750776300,8.9057763671875,-1.108262300491333,0.006032294128090143,-1.3280210494995117
1761132251760776200,8.915776123046875,-1.0160216093063354,0.2900846302509308,-2.0024163722991943
1761132251770776300,8.9257763671875,-0.7545713186264038,0.27053695917129517,-2.557081937789917
1761132251780776200,8.935776123046875,-0.5377141237258911,-0.12469286471605301,-2.933985710144043
1761132251790776300,8.9457763671875,-0.35445454716682434,-0.7386124134063721,-3.089756488800049
1761132251800776200,8.955776123046874,-0.14065171778202057,-1.2187525033950806,-2.855794906616211
1761132251810775300,8.965775390625,0.048716504126787186,-1.4032338857650757,-2.2479841709136963
1761132251820775400,8.975775390625,0.1843285858631134,-1.3800209760665894,-1.5210545063018799
1761132251830775300,8.985775390625,0.2099849283695221,-1.414229393005371,-0.940121591091156
1761132251840775400,8.995775390625,0.11652254313230515,-1.2156982421875,-0.53328537940979
1761132251850775600,9.005775634765625,-0.06185010448098183,-0.7538840770721436,-0.3646865487098694
1761132251860775400,9.015775390625,-0.3043636083602905,-0.3922518491744995,-0.44776421785354614
1761132251870775300,9.025775390625,-0.5438227653503418,-0.18944458663463593,-0.5772676467895508
1761132251880775200,9.035775146484376,-0.8181012868881226,0.12454015016555786,-0.5051855444908142
1761132251890775300,9.045775390625,-0.8614727258682251,0.09827294945716858,-0.2828305959701538
1761132251900775200,9.055775146484375,-0.6458373069763184,-0.2853504419326782,-0.02321287989616394
1761132251910776000,9.065776123046875,-0.2958115041255951,-0.9004917144775391,0.19547687470912933
1761132251920776000,9.07577587890625,0.10491610318422318,-1.5064700841903687,0.3897320330142975
1761132251930776000,9.085776123046875,0.14340060949325562,-1.4264466762542725,0.5564982295036316
1761132251940776200,9.095776123046875,0.12507465481758118,-1.3904056549072266,0.960280179977417
1761132251950776000,9.105776123046875,-0.01664607785642147,-0.9817367792129517,1.4715744256973267
1761132251960776200,9.115776123046874,-0.29764407873153687,-0.397138774394989,1.5430456399917603
1761132251970776000,9.125776123046874,-0.593913733959198,0.23510676622390747,1.5809192657470703
1761132251980776200,9.135776123046876,-0.7851145267486572,0.6834818720817566,1.633453607559204
1761132251990776000,9.145776123046875,-0.8474228382110596,0.8972846865653992,1.642616629600525
1761132252000776200,9.155776123046875,-0.7759515643119812,0.8655197024345398,1.6212363243103027
1761132252010775300,9.165775390625,-0.5951354503631592,0.6504951119422913,1.5827518701553345
1761132252020775400,9.175775390625,-0.36850446462631226,0.30230194330215454,1.511891484260559
1761132252030775300,9.185775390625,-0.11682797968387604,0.10621419548988342,1.4141530990600586
1761132252040775400,9.195775390625,0.08597928285598755,0.07872525602579117,1.3029755353927612
1761132252050775300,9.205775390625,0.19837848842144012,0.3187952935695648,1.160033106803894
1761132252060775400,9.215775390625,0.2142609804868698,0.6596581339836121,0.9578366875648499
1761132252070775300,9.225775390625,0.16844609379768372,0.8184830546379089,0.7134906053543091
1761132252080775400,9.235775390625,0.13484850525856018,0.5576435923576355,0.5002986192703247
1761132252090775300,9.245775390625,0.15256360173225403,0.14042264223098755,0.43249258399009705
1761132252110776300,9.2657763671875,0.1696678251028061,0.19234620034694672,0.8301658630371094
1761132252120776200,9.275776123046874,0.13973543047904968,0.6840927004814148,1.084285855293274
1761132252130776000,9.285776123046874,0.21853704750537872,1.3572661876678467,1.2724323272705078
1761132252140776200,9.295776123046876,0.43478333950042725,1.9992855787277222,1.3634512424468994
1761132252150776000,9.305776123046876,0.7322747111320496,2.4311673641204834,1.2712105512619019
1761132252160776200,9.315776123046875,1.0346530675888062,2.4427738189697266,0.9547823667526245
1761132252170776000,9.325776123046875,1.1782063245773315,1.7836501598358154,0.39217549562454224
1761132252180776200,9.335776123046875,0.9527970552444458,-1.0293842554092407,-1.0512990951538086
1761132252190776000,9.345776123046875,0.5117523670196533,-3.445967197418213,-2.2736403942108154
1761132252200776200,9.355776123046875,-0.06551529467105865,-5.030551433563232,-3.249803066253662
1761132252210775300,9.365775390625,-0.5371032953262329,-5.061705589294434,-3.5833356380462646
1761132252220775400,9.375775390625,-0.7283040881156921,-3.2908074855804443,-3.204599142074585
1761132252230775300,9.385775390625,-0.6116288304328918,-0.7569383978843689,-2.462397813796997
1761132252240775200,9.395775146484375,-0.24205535650253296,1.6278795003890991,-1.7043139934539795
1761132252250775300,9.405775390625,0.1788308024406433,3.1678707599639893,-1.19912850856781
1761132252260775200,9.415775146484375,0.42012256383895874,3.4867424964904785,-1.0445796251296997
1761132252270775300,9.425775390625,0.44455718994140625,2.87404465675354,-1.0848966836929321
1761132252280775200,9.435775146484374,0.35659259557724,1.920483946800232,-1.1191051006317139
1761132252290775300,9.445775390625,0.24236078560352325,1.0182360410690308,-1.0812314748764038
1761132252300775200,9.455775146484376,0.18799377977848053,0.4214206635951996,-0.9553932547569275
1761132252310776000,9.465776123046876,0.22647829353809357,0.21494820713996887,-0.7629706859588623
1761132252320776000,9.47577587890625,0.3211624026298523,0.34200817346572876,-0.5296201705932617
1761132252330776000,9.485776123046875,0.41890084743499756,0.725020706653595,-0.3072652220726013
1761132252340776000,9.49577587890625,0.5331326723098755,1.2363148927688599,-0.09957103431224823
1761132252350776000,9.505776123046875,0.6669121384620667,1.6132187843322754,0.08491026610136032
1761132252360776000,9.51577587890625,0.7780895829200745,1.75066339969635,0.32009339332580566
1761132252370776000,9.525776123046874,0.7255551815032959,1.5252541303634644,0.6719517707824707
1761132252380776000,9.53577587890625,0.6290385127067566,0.5991824269294739,0.7776314616203308
1761132252390776000,9.545776123046876,0.5893322229385376,-0.2767983078956604,0.7037167549133301
1761132252400776000,9.55577587890625,0.5227479338645935,-0.548633337020874,0.6511823534965515
1761132252410775000,9.565775146484375,0.2790127098560333,0.002367102773860097,0.6786713004112244
1761132252420775200,9.575775146484375,0.16294831037521362,0.666377604007721,0.826500654220581
