time,seconds_elapsed,z,y,x
1761130829634829000,0.1138291015625,0.00012020859867334366,0.0004826360382139683,0.00046885572373867035
1761130829654675000,0.133675048828125,-0.0011069760657846928,0.00033136853016912937,0.0013498296029865742
1761130829674521000,0.15352099609375,0.001565458020195365,-0.0013401644537225366,-0.0017155972309410572
1761130829694367000,0.173366943359375,-0.00015945418272167444,0.0008200982119888067,0.0015907064080238342
1761130829714212900,0.193212890625,0.001101949019357562,0.003178386716172099,0.0005685421638190746
1761130829734060000,0.21306005859375,-0.000251486140768975,0.0007890933193266392,0.0005813376046717167
1761130829753906000,0.232906005859375,-0.0013306776527315378,-0.00017730006948113441,-0.0005905493162572384
1761130829773752000,0.252751953125,0.00011889426968991756,0.0006031745579093695,-0.0014952411875128746
1761130829793598000,0.272597900390625,-0.0020094807259738445,-0.0013792295940220356,-0.000679441262036562
1761130829813443800,0.29244384765625,0.000048250192776322365,-0.0010478945914655924,-0.0007902323268353939
1761130829833290000,0.3122900390625,0.001781365484930575,-0.0024885740131139755,0.00011238362640142441
1761130829853136100,0.33213623046875,0.0008236371213570237,0.00009974651038646698,-0.004276183433830738
1761130829872982000,0.35198193359375,0.000246411538682878,-0.0018316112691536546,-0.00012463564053177834
1761130829892828000,0.371827880859375,0.0011554199736565351,0.0001859101466834545,-0.0007015452720224857
1761130829912674000,0.391674072265625,0.0014162801671773195,-0.0013838161248713732,-0.0005342564545571804
1761130829932520000,0.41152001953125,-0.0012090178206562996,-0.0005629081279039383,-0.0017221705056726933
1761130829952365800,0.43136572265625,-0.00045926106395199895,-0.000428362051025033,-0.000021460000425577164
1761130829972213000,0.451212890625,-0.00019268476171419024,-0.0007126678247004747,0.0011071022599935532
1761130829992059000,0.471058837890625,-0.0007834447314962745,0.0017543081194162369,0.00030902307480573654
1761130830011905000,0.490905029296875,-0.00020064739510416985,0.0012618564069271088,-0.0012949914671480656
1761130830031751000,0.5107509765625,-0.0035056627821177244,-0.0013213463826104999,0.0003927578218281269
1761130830051596800,0.5305966796875,0.0002674572169780731,-0.000767797464504838,0.0024563190527260303
1761130830071443200,0.550443115234375,0.00045795238111168146,-0.0020239518489688635,0.00043739425018429756
1761130830091289000,0.5702890625,-0.0013577680801972747,-0.0017138906987383962,0.0006827204488217831
1761130830111135000,0.590135009765625,-0.0009593244176357985,0.001341898925602436,-0.000839566346257925
1761130830130980900,0.60998095703125,-0.0007614056812599301,0.00014972384087741375,-0.001495380885899067
1761130830150827000,0.629826904296875,-0.0007142025278881192,-0.00037249200977385044,0.001229411456733942
1761130830170674200,0.649674072265625,-0.0009774586651474237,-0.0007455409504473209,-0.00026200106367468834
1761130830190520000,0.66952001953125,0.0019677632953971624,0.0006685338448733091,0.001085186842828989
1761130830210366000,0.689365966796875,-0.003037914400920272,0.0015351264737546444,0.0015626917593181133
1761130830230212000,0.709212158203125,0.0007021642522886395,-0.00012831389904022217,-0.00017273565754294395
1761130830250058000,0.72905810546875,-0.003413895145058632,0.0016127561684697866,0.0005715992301702499
1761130830269904000,0.74890380859375,-0.0014491791371256113,0.0009907872881740332,0.0006928844377398491
1761130830289749800,0.768749755859375,-0.0010024267248809338,-0.000651136040687561,-0.00008658831939101219
1761130830309596200,0.78859619140625,-0.0011990873608738184,-0.0033991930540651083,-0.0018115402199327946
1761130830329442000,0.808442138671875,0.0017333467258140445,0.0003374130465090275,-0.0006580576300621033
1761130830349289000,0.8282890625,-0.0007987725548446178,0.0012632233556360006,-0.0019441135227680206
1761130830369134800,0.848134765625,-0.000738343398552388,-0.000003961147740483284,-0.00001112883910536766
1761130830388981000,0.86798095703125,0.000048308284021914005,0.0034130860585719347,-0.00041300151497125626
1761130830408827100,0.8878271484375,-0.00028670794563367963,0.0006189490668475628,0.0011119483970105648
1761130830428673000,0.907673095703125,0.0021141143515706062,0.000771570485085249,0.00009914254769682884
1761130830448519000,0.927518798828125,-0.0003289806772954762,0.0007447293028235435,0.00011897645890712738
1761130830468365000,0.947364990234375,-0.0015593022108078003,0.0020609793718904257,0.0010403464548289776
1761130830488211000,0.9672109375,0.0008155149407684803,-0.00019960617646574974,-0.0015140906907618046
1761130830508056800,0.987056884765625,-0.0012326359283179045,-0.00020747212693095207,0.0007768860086798668
1761130830527903000,1.006903076171875,-0.00014463101979345083,-0.0022802252788096666,0.0008677816949784756
1761130830547749600,1.02674951171875,-0.003489823080599308,0.0005991156212985516,0.00036998093128204346
1761130830567595500,1.046595458984375,-0.00010141485836356878,-0.0011739968322217464,0.00132784154266119
1761130830587441400,1.06644140625,0.00023756164591759443,-0.002199845854192972,-0.002219228073954582
1761130830607287300,1.086287353515625,-0.0017923812847584486,0.002688465639948845,-0.0013679033145308495
1761130830627133700,1.1061337890625,0.0009469103533774614,-0.0009960944298654795,-0.000012698117643594742
1761130830646979600,1.1259794921875,-0.00013943359954282641,0.0011771915014833212,-0.0021353736519813538
1761130830666825500,1.145825439453125,0.0009608883410692215,-0.0014173659728839993,0.0005566268227994442
1761130830686671600,1.165671630859375,0.002650568261742592,0.0003983087372034788,0.001194726675748825
1761130830706517500,1.185517578125,0.0009602938080206513,-0.0003906965721398592,0.0031275739893317223
1761130830726363400,1.20536328125,0.0013409694656729698,-0.0010151304304599762,-0.0007235039956867695
1761130830746210600,1.22521044921875,-0.0008303713984787464,0.0008763319347053766,-0.000980546697974205
1761130830766056400,1.245056396484375,-0.0001277197734452784,-0.0020872720051556826,-0.0005565332248806953
1761130830785902600,1.264902587890625,0.0013767570490017533,-0.00035955500788986683,-0.00027444493025541306
1761130830805748500,1.28474853515625,0.0005779983475804329,0.00017516710795462132,0.00024704495444893837
1761130830825594400,1.304594482421875,0.0015520843444392085,-0.0013127720449119806,0.0018629543483257294
1761130830845440500,1.3244404296875,0.0009239173959940672,0.0009664413519203663,-0.0020275460556149483
1761130830865286700,1.34428662109375,0.0020681223832070827,0.0009123622439801693,0.00036377087235450745
1761130830885132500,1.364132568359375,-0.00018204067600890994,-0.0014336376916617155,-0.0009367968887090683
1761130830904978400,1.383978515625,-0.0017300116596743464,0.00017020618543028831,0.0019995439797639847
1761130830924825300,1.403825439453125,0.0001279298448935151,0.0013459394685924053,-0.0006953952834010124
1761130830944671700,1.423671630859375,0.0010452743154019117,0.002712602261453867,-0.001102435402572155
1761130830964517600,1.443517578125,-0.0009235668112523854,-0.0011294414289295673,0.00037799403071403503
1761130830984363500,1.463363525390625,0.0015642992220818996,-0.0011948833707720041,0.0012755515053868294
1761130831004209400,1.48320947265625,-0.0006293532205745578,0.0012628876138478518,0.0008016843348741531
1761130831024055600,1.5030556640625,-0.001819427008740604,-0.0012430716305971146,-0.00014865025877952576
1761130831043901400,1.5229013671875,-0.0009741032845340669,-0.00006765243597328663,-0.00016033975407481194
1761130831063747300,1.542747314453125,-0.000612742907833308,-0.0009758658707141876,0.0015638479962944984
1761130831083593700,1.56259375,-0.0017769928090274334,-0.0008837638888508081,0.00031644292175769806
1761130831103439600,1.582439697265625,0.0010496225440874696,0.0011389104183763266,0.0012761945836246014
1761130831123286500,1.60228662109375,-0.0014406999107450247,0.00015032803639769554,0.000758578535169363
1761130831143132400,1.62213232421875,0.0028478328604251146,0.0011106505990028381,0.0009960089810192585
1761130831162978300,1.641978271484375,-0.0012418486876413226,-0.0012874082894995809,-0.0014353534206748009
1761130831182824700,1.66182470703125,-0.000419477466493845,0.00017636711709201336,-0.002201759722083807
1761130831202670600,1.681670654296875,0.0016253804787993431,-0.0013310813810676336,-0.0022811568342149258
1761130831222516500,1.7015166015625,0.0011962264543399215,0.0021255838219076395,-0.00017535686492919922
1761130831242362600,1.721362548828125,-0.0033441237173974514,-0.0025347890332341194,-0.0010427036322653294
1761130831262208500,1.74120849609375,0.0011460032546892762,-0.0011112997308373451,-0.0007013985887169838
1761130831282054400,1.761054443359375,0.0013757249107584357,-0.0013029490364715457,0.0003414941020309925
1761130831301900500,1.780900634765625,-0.0005592962261289358,-0.0011622412130236626,-0.0007474767044186592
1761130831321747500,1.80074755859375,0.000013219541870057583,-0.002464120741933584,0.0016833711415529251
1761130831341593600,1.820593505859375,0.0004958120407536626,-0.001147564733400941,-0.00037371646612882614
1761130831361439500,1.840439453125,-0.0019271778874099255,0.00023704394698143005,-0.002156744245439768
1761130831381285400,1.860285400390625,-0.00016500480705872178,-0.0022137246560305357,0.0014947489835321903
1761130831401131500,1.880131591796875,0.0022040624171495438,0.001942688599228859,0.0008343597874045372
1761130831420977700,1.899977783203125,-0.001303262310102582,-0.0004892831202596426,0.00015656324103474617
1761130831440823600,1.919823486328125,0.00022498727776110172,0.0011447945144027472,0.00472745206207037
1761130831460669400,1.93966943359375,-0.0014393619494512677,0.0015027869958430529,-0.001097206026315689
1761130831480515600,1.959515625,-0.0007152341422624886,0.0010366267524659634,-0.0011613029055297375
1761130831500361500,1.979361572265625,0.0009620693745091558,0.00031356606632471085,0.00001529790461063385
1761130831520208600,1.999208740234375,-0.0009926363127306104,-0.0013771948870271444,-0.0013118386268615723
1761130831540054500,2.019054443359375,0.0008699407335370779,-0.00046983547508716583,0.0012662475928664207
1761130831559900400,2.038900390625,-0.002254384569823742,-0.0000024922192096710205,-0.0018507083877921104
1761130831579746600,2.05874658203125,0.0014220711309462786,-0.0022163433022797108,0.0003832033835351467
1761130831599592700,2.0785927734375,-0.00011561362771317363,0.0003995262086391449,-0.002940674312412739
1761130831619438600,2.0984384765625,0.0007898308103904128,0.00033216364681720734,0.0004446543753147125
1761130831639284700,2.11828466796875,-0.00028557173209264874,-0.0032550201285630465,-0.0010278867557644844
1761130831659130600,2.138130615234375,-0.000636523705907166,0.0026850204449146986,-0.000046022702008485794
1761130831678976500,2.1579765625,0.00003293540794402361,0.0023499615490436554,-0.0017399159260094166
1761130831698822400,2.177822509765625,0.0019232489867135882,-0.0014351016143336892,-0.0010837400332093239
1761130831718669600,2.197669677734375,0.0023036678321659565,-0.0004712832160294056,0.001224203035235405
1761130831738515700,2.217515625,0.0011588202323764563,-0.00037867017090320587,0.0016977381892502308
1761130831758361600,2.237361572265625,0.0004377691075205803,-0.00044999527744948864,0.0026581333950161934
1761130831778207500,2.25720751953125,0.0003698562504723668,0.0008371206931769848,0.00047245947644114494
1761130831798053400,2.277053466796875,-0.0012286017881706357,-0.002314245793968439,-0.00014870800077915192
1761130831817899800,2.296899658203125,-0.00022354978136718273,-0.0002918951213359833,-0.0005077705718576908
1761130831837745700,2.31674560546875,0.0013929442502558231,-0.0005099684931337833,-0.004634223412722349
1761130831857591600,2.336591552734375,-0.0002535580424591899,-0.00038939155638217926,-0.0014232904650270939
1761130831877437700,2.356437744140625,-0.0008938577375374734,-0.0012295672204345465,0.00013921502977609634
1761130831897284600,2.37628466796875,0.001231026602908969,-0.0012194529408589005,0.000057991594076156616
1761130831917130800,2.396130859375,0.001107589341700077,0.0009534659329801798,-0.0012911884114146233
1761130831936976600,2.4159765625,-0.0003286932478658855,0.00024973880499601364,0.0037810271605849266
1761130831956822500,2.435822509765625,0.0018398140091449022,-0.000997921684756875,0.00032961415126919746
1761130831976668700,2.455668701171875,0.00019475468434393406,-0.0008930489420890808,-0.003004651516675949
1761130831996514600,2.4755146484375,0.0018555880524218082,0.0002299644984304905,-0.0014050500467419624
1761130832016360400,2.4953603515625,-0.0007041257340461016,0.0006297756917774677,-0.002309701405465603
1761130832036206600,2.51520654296875,0.00036241463385522366,-0.000792001374065876,0.0027165201026946306
1761130832056052700,2.535052734375,-0.0009791197953745723,0.0008227669168263674,-0.0025981971994042397
1761130832075898600,2.554898681640625,0.000035119825042784214,-0.0002022602129727602,-0.00022113323211669922
1761130832095744500,2.57474462890625,-0.0007785189081914723,0.0010869917459785938,0.0021968577057123184
1761130832115591400,2.59459130859375,0.0018538855947554111,0.00014000083319842815,-0.0011783037334680557
1761130832135437600,2.6144375,-0.00023460655938833952,-0.00017236918210983276,-0.00033292779698967934
1761130832155283700,2.63428369140625,-0.0019385481718927622,0.0015647620894014835,-0.00021105119958519936
1761130832175129600,2.654129638671875,-0.0010108854621648788,-0.003798217047005892,0.001987962517887354
1761130832194975500,2.6739755859375,0.0018839796539396048,-0.0003896830603480339,-0.0014763460494577885
1761130832214821600,2.693821533203125,-0.0004288158961571753,0.0005753422155976295,0.0009328015148639679
1761130832234667500,2.71366748046875,0.00013152731116861105,-0.0015848410548642278,-0.003466287162154913
1761130832254513400,2.733513427734375,-0.0005613489774987102,-0.00046856049448251724,0.0013989312574267387
1761130832274359800,2.75335986328125,-0.0012126920046284795,0.003701933193951845,-0.0025398917496204376
1761130832294205700,2.773205810546875,0.00002221635077148676,0.0011534688528627157,-0.002552025020122528
1761130832314052600,2.793052490234375,-0.0006485960329882801,0.0009902846068143845,0.00001786835491657257
1761130832333898500,2.8128984375,-0.001036418485455215,-0.001134240534156561,0.0005360571667551994
1761130832353744400,2.832744384765625,0.0014260176103562117,-0.0004352182149887085,-0.0023811571300029755
1761130832373590800,2.8525908203125,-0.0018885196186602116,0.0006114998832345009,0.0005699335597455502
1761130832393436700,2.872436767578125,-0.0002536986139602959,-0.0007212494965642691,-0.0008051237091422081
1761130832413282600,2.892282470703125,-0.0007444306975230575,0.0003824655432254076,0.0020745107904076576
1761130832433128700,2.912128662109375,0.001160328509286046,-0.0022653862833976746,0.0008561997674405575
1761130832452974600,2.931974609375,0.002019136678427458,0.0006076123099774122,0.0023613153025507927
1761130832472820500,2.951820556640625,-0.0012072070967406034,0.0012155568692833185,0.0007885023951530457
1761130832492666400,2.971666259765625,-0.0013667314779013395,-0.0014271315885707736,0.0015545687638223171
1761130832512513500,2.991513427734375,0.00022953760344535112,-0.0011637929128482938,-0.0011675739660859108
1761130832532359700,3.011359619140625,0.0021341084502637386,0.0008705845102667809,-0.001187820453196764
1761130832552206300,3.031206298828125,0.0005684999050572515,-0.0008616899140179157,-0.0026627848856151104
1761130832572052200,3.05105224609375,0.002190909581258893,0.00020865770056843758,-0.002192978747189045
1761130832591898000,3.070898193359375,-0.0004730120999738574,0.00015555322170257568,-0.002446895930916071
1761130832611744300,3.090744140625,-0.0008652204414829612,0.000383179634809494,-0.0018476946279406548
1761130832631590100,3.110590087890625,0.00033360905945301056,-0.0017173419473692775,-0.0009821024723351002
1761130832651436300,3.130436279296875,0.0015676395269110799,0.000720420153811574,0.003596346592530608
1761130832671282200,3.1502822265625,0.0006260209484025836,-0.0008531233761459589,0.0001657763496041298
1761130832691128300,3.17012841796875,0.0010160621022805572,0.0014158801641315222,-0.0017111641354858875
1761130832710974200,3.18997412109375,0.002065239939838648,0.0012430017814040184,-0.0012127896770834923
1761130832730821000,3.209821044921875,0.001919715665280819,0.00024284631945192814,-0.0024310420267283916
1761130832750667300,3.229667236328125,-0.0003170733107253909,-0.0005715484730899334,0.00030801910907030106
1761130832770513400,3.249513427734375,0.0006562162889167666,0.0007887913379818201,0.0005226433277130127
1761130832790359300,3.269359375,-0.0028963005170226097,0.0008185117039829493,-0.0024995673447847366
1761130832810205200,3.289205078125,0.0013806807110086083,-0.000055047450587153435,0.0014708610251545906
1761130832830051000,3.309051025390625,-0.001380779198370874,-0.0019915751181542873,0.002898302162066102
1761130832849897200,3.328897216796875,-0.0005827213171869516,0.00020607863552868366,0.00024782493710517883
1761130832869743000,3.3487431640625,-0.00019399134907871485,0.0014877959620207548,0.0016006850637495518
1761130832889589200,3.36858935546875,0.0002309620613232255,-0.002095752628520131,-0.001032885629683733
1761130832909435400,3.388435302734375,0.00036140065640211105,-4.400499165058136e-8,-0.00008765095844864845
1761130832929282300,3.4082822265625,-0.0016855864087119699,-0.00030686170794069767,0.0008695540018379688
1761130832949128200,3.428128173828125,-0.0012410054914653301,0.0015611224807798862,0.0004126778803765774
1761130832968974000,3.44797412109375,0.00007845205254852772,0.0015842393040657043,-0.0025227894075214863
1761130832988820200,3.4678203125,-0.0006498771253973246,-0.0004447775427252054,0.001298918854445219
1761130833008666400,3.487666259765625,-0.0005204348708502948,-0.001242937403731048,-0.0021533463150262833
1761130833028512300,3.50751220703125,-0.0005160109139978886,-0.0021878662519156933,0.0020694532431662083
1761130833048358100,3.527358154296875,0.0003159568877890706,-0.0012654013698920608,0.0006243325769901276
1761130833068204300,3.547204345703125,0.000658747274428606,-0.0015062743332237005,-0.0010364577174186707
1761130833088050200,3.56705029296875,-0.00004409509710967541,0.001049100887030363,0.0004384256899356842
1761130833107896300,3.586896240234375,-0.001344873453490436,0.0005000582896173,0.0005601230077445507
1761130833127742200,3.6067421875,-0.000316945428494364,0.0025822026655077934,-0.0007804818451404572
1761130833147589000,3.626589111328125,0.0014697433216497302,-0.001344857388176024,-0.00021205609664320946
1761130833167435300,3.646435302734375,-0.00023331615375354886,0.0016268198378384113,0.0024541979655623436
1761130833187281200,3.66628125,0.0005199003499001265,-0.0007841882761567831,-0.000905563123524189
1761130833207127300,3.686127197265625,0.0013768167700618505,0.0008107183966785669,-0.0012592007406055927
1761130833226973200,3.70597314453125,-0.00017646723426878452,0.001047129975631833,-0.00344523461535573
1761130833246819300,3.7258193359375,-0.00044073991011828184,0.00046674557961523533,-0.0002697422169148922
1761130833266665200,3.745665283203125,0.0017472200561314821,-0.0005290848203003407,0.00011861324310302734
1761130833286511000,3.765510986328125,0.0005626301281154156,-0.0002398889046162367,-0.0015146625228226185
1761130833306357200,3.785357177734375,-0.00125407287850976,0.0007656838279217482,-0.0015533012337982655
1761130833326203100,3.805203125,0.00221832562237978,-0.0010871004778891802,-0.002533955965191126
1761130833346050300,3.82505029296875,0.00035070779267698526,-0.0007736715488135815,0.00029784347862005234
1761130833365896200,3.844896240234375,0.001350299920886755,0.003480684943497181,0.002399852965027094
1761130833385742000,3.8647421875,0.00003088568337261677,-0.0008370904251933098,-0.00029201898723840714
1761130833405588200,3.884588134765625,-0.0014918810920789838,0.0014861652161926031,-0.00038430187851190567
1761130833425434000,3.90443408203125,-0.0011215355480089784,-0.0031934878788888454,0.0016597937792539597
1761130833445280300,3.9242802734375,-0.0023702718317508698,-0.00036323489621281624,-0.0031894203275442123
1761130833465126400,3.94412646484375,0.001236005569808185,-0.0005458258092403412,0.0005282596684992313
1761130833484972300,3.96397216796875,-0.0011798546183854342,-0.0003220674116164446,0.002740302588790655
1761130833504818200,3.983818115234375,-0.0010512397857382894,0.0002645000349730253,0.00025246385484933853
1761130833524664000,4.0036640625,0.002191863488405943,0.0005105861928313971,-0.0010627438314259052
1761130833544510700,4.0235107421875,0.0008234763517975807,0.000780406640842557,-0.003301451914012432
1761130833564356600,4.043356689453125,0.00012507569044828415,-0.00008089258335530758,-0.0010861735790967941
1761130833584202500,4.063202392578125,-0.0021927496418356895,-0.00040175742469727993,-0.0005297651514410973
1761130833604048600,4.083048583984375,-0.0006470215739682317,0.0007777069695293903,0.00032999785616993904
1761130833623894800,4.102894775390625,0.001431687967851758,0.0021378195378929377,-0.00013312418013811111
1761130833643740700,4.12274072265625,0.0016207618173211813,-0.0014762640930712223,0.0030032640788704157
1761130833663586600,4.142586669921875,0.0015951534733176231,0.00016466411761939526,0.0005972906947135925
1761130833683432700,4.1624326171875,-0.0017046083230525255,-0.0010151974856853485,-0.00015087798237800598
1761130833703278600,4.182278564453125,0.000495821819640696,-0.0003398472908884287,-0.0023372992873191833
1761130833723124700,4.202124755859375,-0.00016124884132295847,0.00043932744301855564,0.00003574928268790245
1761130833742970600,4.221970703125,0.0005076690576970577,-0.00012919027358293533,-0.0011509531177580357
1761130833762817500,4.241817626953125,0.001328879501670599,-0.0011304209474474192,-0.0012467051856219769
1761130833782663700,4.26166357421875,-0.00047168188029900193,-0.0014229390071704984,0.001207450870424509
1761130833802509600,4.281509521484375,-0.0011216409038752317,-0.0023769845720380545,-0.0013147289864718914
1761130833822355700,4.301355712890625,-0.001728167524561286,0.00028986576944589615,-0.00030421046540141106
1761130833842201600,4.32120166015625,-0.00011579669080674648,-0.000375538133084774,0.0019726469181478024
1761130833862047700,4.3410478515625,0.00044635613448917866,0.002683446742594242,-0.001299598254263401
1761130833881893600,4.3608935546875,-0.0018019007984548807,-0.00038879108615219593,0.0005833716131746769
1761130833901739500,4.380739501953125,0.00043186056427657604,0.002289007417857647,-0.0012947511859238148
1761130833921585700,4.400585693359375,0.0005138268461450934,-0.00039178342558443546,0.00044432003051042557
1761130833941431800,4.420431884765625,-0.0010296645341441035,-0.00085836136713624,-0.0026056021451950073
1761130833961278700,4.44027880859375,-0.0010220834519714117,0.0008921585977077484,-0.0003429790958762169
1761130833981124600,4.46012451171875,0.0012175862211734056,0.0007281920406967402,0.0007078689523041248
1761130834000970500,4.479970458984375,0.0014771964633837342,0.00043683312833309174,0.0005570109933614731
1761130834020817700,4.499817626953125,-0.00040527828969061375,-0.0002496249508112669,-0.0015224362723529339
1761130834040663800,4.519663818359375,-0.003218228928744793,-0.0037800450809299946,0.001572214998304844
1761130834060509700,4.539509765625,0.002725363941863179,-0.0003245717380195856,0.0016413917765021324
1761130834080355600,4.55935546875,0.00046253297477960587,-0.0011723197530955076,0.0002027680166065693
1761130834100201700,4.57920166015625,-0.0014041162794455886,-0.0013378221774473786,0.00040039559826254845
1761130834120047600,4.599047607421875,0.0000843914458528161,0.0017115168739110231,0.002554041799157858
1761130834139893500,4.6188935546875,-0.00043542555067688227,-0.0002799937501549721,0.00002327514812350273
1761130834159739600,4.63873974609375,-0.0006819366244599223,0.000265955226495862,0.00017092283815145493
1761130834179585800,4.658585693359375,-0.0011164841707795858,0.0003027052152901888,0.0016087349504232407
1761130834199431700,4.678431640625,-0.0009198907064273953,-0.000402393052354455,0.0014752773568034172
1761130834219278600,4.698278564453125,-0.0017428137362003326,0.001992990728467703,-0.0022709444165229797
1761130834239124500,4.71812451171875,-0.0010633718920871615,-0.001846339087933302,0.00046094460412859917
1761130834258970600,4.737970703125,0.0011507822200655937,-0.001469068811275065,-0.0007894481532275677
1761130834278816800,4.757816650390625,-0.00243044039234519,-0.0005852028261870146,0.00037337979301810265
1761130834298662700,4.77766259765625,-0.0009770545875653625,-0.0013085177633911371,-0.0009697484783828259
1761130834318508500,4.797508544921875,0.0003914032131433487,-0.0017834027530625463,-0.000338671263307333
1761130834338354700,4.817354736328125,0.00027138181030750275,-0.0009868789929896593,0.0008383952081203461
1761130834358200600,4.83720068359375,-0.0020361635833978653,0.00043344288133084774,-0.00004010181874036789
1761130834378046700,4.857046630859375,-0.0016908692196011543,0.00024526449851691723,0.0012978320010006428
1761130834397892600,4.876892578125,-0.0005681263864971697,0.00037126243114471436,-0.00014039687812328339
1761130834417738800,4.89673876953125,-0.00006944086635485291,-0.0019876547157764435,0.0002969312481582165
1761130834437585700,4.916585693359375,0.0009002218721434474,0.0004193054046481848,0.0018405243754386902
1761130834457431600,4.936431640625,-0.0012407830217853189,0.000045179156586527824,-0.0015145852230489254
1761130834477277700,4.956277587890625,0.00019477400928735733,0.0013108071871101856,-0.0002290443517267704
1761130834497123800,4.976123779296875,-0.0017421869561076164,-0.0014372467994689941,0.00013488857075572014
1761130834516969700,4.9959697265625,-0.000569976051338017,0.0007318828720599413,0.000856772530823946
1761130834536815900,5.01581591796875,-0.0013175802305340767,-0.0009271851740777493,0.00031189480796456337
1761130834556661800,5.035661865234375,-0.00022107711993157864,0.0009448488708585501,-0.0002577011473476887
1761130834576508000,5.0555078125,0.0013991112355142832,0.0015556537546217442,0.0008492185734212399
1761130834596353800,5.075353759765625,-0.00021013390505686402,-0.0000790709163993597,-0.0030078799463808537
1761130834616199700,5.09519970703125,-0.001501486636698246,0.0005287029780447483,0.003415970131754875
1761130834636046800,5.115046875,0.0013233684003353119,-0.0013295419048517942,0.0009413803927600384
1761130834655892700,5.134892822265625,-0.0009648654377087951,-0.0036177656147629023,-0.0029894509352743626
1761130834675739000,5.15473876953125,-0.000025928777176886797,-0.002118139062076807,0.00392642617225647
