time,seconds_elapsed,z,y,x
1761132214439633000,0.1336328125,-0.07101308554410934,-0.10147999227046967,-0.08124507963657379
1761132214452834300,0.146834228515625,-0.07101308554410934,-0.10147999227046967,-0.08124507963657379
1761132214462833400,0.15683349609375,-0.07101308554410934,-0.10147999227046967,-0.08124507963657379
1761132214472832800,0.166832763671875,-0.07101308554410934,-0.10147999227046967,-0.08124507963657379
1761132214482832400,0.176832275390625,-0.009926560334861279,-0.07704538106918335,-0.29565876722335815
1761132214492832300,0.186832275390625,0.03649919852614403,-0.1851685345172882,-0.2571742534637451
1761132214502832000,0.19683203125,0.10980302840471268,-0.33483052253723145,-0.18997909128665924
1761132214512831700,0.206831787109375,0.15745051205158234,-0.39469531178474426,-0.14416420459747314
1761132214522831600,0.21683154296875,0.1843285858631134,-0.2981785833835602,-0.10384709388017654
1761132214532831500,0.22683154296875,0.22159136831760406,-0.3427717685699463,-0.08368854224681854
1761132214542831400,0.236831298828125,0.21181751787662506,-0.3360522389411926,-0.04886921867728233
1761132214552831500,0.24683154296875,0.17272214591503143,-0.2963460087776184,0.006108652334660292
1761132214562831400,0.256831298828125,0.1085812970995903,-0.2364812046289444,0.11728613078594208
1761132214572831200,0.266831298828125,-0.035582900047302246,-0.14362968504428864,0.31154128909111023
1761132214582831000,0.2768310546875,-0.12171489745378494,-0.16256651282310486,0.40683624148368835
1761132214592831200,0.286831298828125,-0.1644754707813263,-0.2212095707654953,0.4795292317867279
1761132214602831000,0.2968310546875,-0.17730364203453064,-0.27863091230392456,0.5338962078094482
1761132214612829400,0.306829345703125,-0.17302757501602173,-0.27496573328971863,0.5607742667198181
1761132214622829300,0.316829345703125,-0.14798210561275482,-0.23770293593406677,0.5406157374382019
1761132214632829200,0.3268291015625,-0.08689557760953903,-0.10636691004037857,0.4801400899887085
1761132214642829000,0.3368291015625,-0.005039638374000788,-0.008017606101930141,0.3842342495918274
1761132214652829200,0.3468291015625,0.009621127508580685,0.05062545835971832,0.2816088795661926
1761132214662829000,0.3568291015625,0.02122756652534008,0.027412578463554382,0.19425514340400696
1761132214672829200,0.3668291015625,0.04749477282166481,-0.0794888436794281,0.1319468915462494
1761132214682829000,0.3768291015625,0.07681630551815033,-0.17661641538143158,0.10690141469240189
1761132214692829000,0.386828857421875,0.09697485715150833,-0.24930937588214874,0.07147123664617538
1761132214702829000,0.3968291015625,0.11835514008998871,-0.21815524995326996,0.031154127791523933
1761132214712829000,0.406828857421875,0.1635591685771942,-0.12286027520895004,-0.024434609338641167
1761132214722828800,0.416828857421875,0.19226983189582825,-0.03611740842461586,-0.09651670604944229
1761132214732829000,0.426828857421875,0.1898263692855835,0.058566704392433167,-0.1264491081237793
1761132214742828800,0.436828857421875,0.19654589891433716,0.22288945317268372,-0.08552113175392151
1761132214752828700,0.44682861328125,0.17211128771305084,0.2393828183412552,-0.07757988572120667
1761132214762828800,0.456828857421875,0.15134187042713165,0.1978439837694168,-0.09224065393209457
1761132214772828700,0.46682861328125,0.11468994617462158,0.06772968173027039,-0.15760323405265808
1761132214782828800,0.476828857421875,0.07681630551815033,0.05429064854979515,-0.2076941877603531
1761132214792828700,0.48682861328125,0.04077525436878204,-0.012293662875890732,-0.28099802136421204
1761132214802828800,0.496828857421875,-0.10094548016786575,-0.03306308016180992,-0.4153883755207062
1761132214812828000,0.506827880859375,-0.20173825323581696,0.20578522980213165,-0.48319441080093384
1761132214822827800,0.516827880859375,-0.24266621470451355,0.3102431893348694,-0.6249151229858398
1761132214832828000,0.526827880859375,-0.23839016258716583,0.4018729627132416,-0.7611380815505981
1761132214842827800,0.536827880859375,-0.23777928948402405,0.46845728158950806,-0.911410927772522
1761132214852828000,0.546827880859375,-0.24205535650253296,0.5099961161613464,-1.072068452835083
1761132214862827800,0.556827880859375,-0.23716843128204346,0.5203808546066284,-1.2260065078735352
1761132214872828000,0.566827880859375,-0.21212296187877655,0.4672355651855469,-1.3494013547897339
1761132214882827800,0.576827880859375,-0.1748601794242859,0.37194058299064636,-1.4343116283416748
1761132214892828000,0.586827880859375,-0.16325373947620392,0.23632849752902985,-1.4782938957214355
1761132214902827800,0.596827880859375,-0.17302757501602173,0.07872525602579117,-1.4886785745620728
1761132214912828700,0.60682861328125,-0.18585574626922607,-0.07338018715381622,-1.4795156717300415
1761132214922828800,0.616828857421875,-0.1846340149641037,-0.2059379518032074,-1.4373658895492554
1761132214932829000,0.626828857421875,-0.16569720208644867,-0.2713005244731903,-1.32863187789917
1761132214942828800,0.636828857421875,-0.12660181522369385,-0.28473955392837524,-1.1759155988693237
1761132214952829000,0.646828857421875,-0.06979135423898697,-0.2621375620365143,-0.9975429177284241
1761132214962828800,0.656828857421875,0.001679879380390048,-0.20777054131031036,-0.817948579788208
1761132214972828700,0.66682861328125,0.05971207842230797,-0.14424055814743042,-0.6640105247497559
1761132214982828800,0.676828857421875,0.08903361111879349,-0.14118622243404388,-0.5442809462547302
1761132214992828700,0.68682861328125,0.10125091671943665,-0.18822285532951355,-0.4147774875164032
1761132215002828800,0.696828857421875,0.10491610318422318,-0.24381159245967865,-0.27611109614372253
1761132215012828000,0.706827880859375,0.1189660057425499,-0.27924177050590515,-0.13805554807186127
1761132215022828000,0.716828125,0.1385136991739273,-0.2859613001346588,-0.00427605677396059
1761132215032828000,0.726827880859375,0.14523321390151978,-0.23892466723918915,0.13561208546161652
1761132215042828000,0.736828125,0.154396191239357,-0.0006872233934700489,0.34697145223617554
1761132215052828000,0.746827880859375,0.16233743727207184,0.09827294945716858,0.44287729263305664
1761132215062828000,0.756828125,0.1336267739534378,-0.00618501054123044,0.47280970215797424
1761132215072828000,0.766827880859375,0.060322944074869156,-0.3177262842655182,0.43127086758613586
1761132215082828000,0.776828125,0.007177666760981083,-0.6891323328018188,0.37201693654060364
1761132215092828000,0.786827880859375,0.09025534242391586,-0.8613963723182678,0.44165557622909546
1761132215102828000,0.796828125,0.35842517018318176,-0.6372088193893433,0.7672467231750488
1761132215112828700,0.80682861328125,0.7444919943809509,-0.15829046070575714,1.2907582521438599
1761132215122828800,0.816828857421875,1.1183415651321411,0.22472205758094788,1.9034560918807983
1761132215132828700,0.82682861328125,1.315040111541748,0.3487277030944824,2.501493215560913
1761132215142828800,0.836828857421875,1.2936599254608154,0.3340669274330139,3.00118088722229
1761132215152828700,0.84682861328125,1.1989758014678955,0.15997034311294556,3.1722233295440674
1761132215162828800,0.856828857421875,1.1409435272216797,0.06223189830780029,3.0243937969207764
1761132215172829000,0.866828857421875,1.1549934148788452,0.22716552019119263,2.66337251663208
1761132215182828800,0.876828857421875,1.1397218704223633,0.4519639313220978,2.168571710586548
1761132215192829000,0.886828857421875,1.0004445314407349,0.5735260844230652,1.6560556888580322
1761132215202828800,0.896828857421875,0.7200574278831482,0.5588653683662415,1.19912850856781
1761132215212828000,0.906827880859375,0.38408151268959045,0.49411362409591675,0.7904596328735352
1761132215222828000,0.916828125,0.10430523753166199,0.5154939293861389,0.3897320330142975
1761132215232828000,0.926827880859375,-0.15836681425571442,0.610788881778717,-0.0507018156349659
1761132215242827800,0.936827880859375,-0.43447789549827576,0.6865361928939819,-0.5082398653030396
1761132215252828000,0.946827880859375,-0.6195700764656067,0.7873289585113525,-0.856433093547821
1761132215262827800,0.956827880859375,-0.6611089110374451,0.9321039915084839,-1.0445796251296997
1761132215272828000,0.966827880859375,-0.48456886410713196,1.0909289121627808,-0.9321803450584412
1761132215282827800,0.976827880859375,-0.2402227520942688,1.0438923835754395,-0.5766568183898926
1761132215292828000,0.986827880859375,-0.062460970133543015,0.7836637496948242,-0.07269296050071716
1761132215302827800,0.996827880859375,0.11652254313230515,0.4605160355567932,0.626747727394104
1761132215312828700,1.00682861328125,0.42500948905944824,0.041462477296590805,1.436144232749939
1761132215322828800,1.016828857421875,0.4983133375644684,-0.4948772192001343,2.0384573936462402
1761132215332828700,1.02682861328125,0.4628831446170807,-0.8644506931304932,2.4110851287841797
1761132215342828800,1.036828857421875,0.4360050559043884,-1.0416016578674316,2.574186086654663
1761132215352828700,1.04682861328125,0.385303258895874,-1.0214430093765259,2.5699100494384766
1761132215362828500,1.05682861328125,0.2704605758190155,-0.8369617462158203,2.4495697021484375
1761132215372828700,1.06682861328125,0.1189660057425499,-0.6109415888786316,2.241264581680298
1761132215382828800,1.076828857421875,-0.02275473065674305,-0.40141481161117554,1.99752938747406
1761132215392828700,1.08682861328125,-0.17547103762626648,-0.28412869572639465,1.740355134010315
1761132215402828800,1.096828857421875,-0.3562871515750885,-0.2767983078956604,1.4770721197128296
1761132215412828000,1.106827880859375,-0.5474879741668701,-0.3513238728046417,1.1966849565505981
1761132215422827800,1.116827880859375,-0.7533495426177979,-0.4991532564163208,0.9046914577484131
1761132215432828000,1.126827880859375,-0.9427177906036377,-0.6549239158630371,0.637132465839386
1761132215442827800,1.136827880859375,-1.107040524482727,-0.7434993386268616,0.4147774875164032
1761132215452828000,1.146827880859375,-1.2450960874557495,-0.7361689805984497,0.2125810980796814
1761132215462827800,1.156827880859375,-1.3281737565994263,-0.5730679631233215,0.019547687843441963
1761132215472828000,1.166827880859375,-1.3410019874572754,-0.3421608805656433,-0.15393804013729095
1761132215482827800,1.176827880859375,-1.2878566980361938,-0.1405753642320633,-0.27550023794174194
1761132215492828000,1.186827880859375,-1.1882855892181396,-0.02451096847653389,-0.31520646810531616
1761132215502827800,1.196827880859375,-1.0031934976577759,-0.037339139729738235,-0.18509216606616974
1761132215512828700,1.20682861328125,-0.8926268219947815,-0.13935363292694092,0.005497787147760391
1761132215522828800,1.216828857421875,-0.8376489877700806,-0.2725222706794739,0.18936823308467865
1761132215532828700,1.22682861328125,-0.8315402865409851,-0.38553231954574585,0.2932153046131134
1761132215542828800,1.236828857421875,-0.8449793457984924,-0.3830888569355011,0.30543261766433716
1761132215552828700,1.24682861328125,-0.8455902338027954,-0.216322660446167,0.2370157092809677
1761132215562828800,1.256828857421875,-0.8431467413902283,0.10499246418476105,0.16920967400074005
1761132215572828700,1.26682861328125,-0.8498662710189819,0.46357035636901855,0.09957103431224823
1761132215582828500,1.27682861328125,-0.8339837789535522,0.7415140271186829,0.004886921960860491
1761132215592828700,1.28682861328125,-0.7979426980018616,0.8997281193733215,-0.10567969083786011
1761132215602828500,1.29682861328125,-0.7564038634300232,1.1562916040420532,-0.22602014243602753
1761132215612827600,1.30682763671875,-0.60429847240448,1.5753451585769653,-0.49724429845809937
1761132215622827500,1.31682763671875,-0.38927388191223145,1.6920204162597656,-1.1398745775222778
1761132215632827600,1.32682763671875,-0.19624045491218567,0.9449321627616882,-2.295020818710327
1761132215642827500,1.33682763671875,-0.14737124741077423,-0.7355580925941467,-3.8484511375427246
1761132215652827600,1.34682763671875,-0.2054034322500229,-2.338468551635742,-4.8502702713012695
1761132215662827800,1.356827880859375,-0.14065171778202057,-3.2297208309173584,-4.903415203094482
1761132215672827600,1.36682763671875,0.09269879758358002,-3.2071189880371094,-4.283387184143066
1761132215682827800,1.376827880859375,0.44394633173942566,-1.7893006801605225,-3.109304189682007
1761132215692827600,1.38682763671875,0.7108944058418274,0.23632849752902985,-2.082439661026001
1761132215702827800,1.396827880859375,0.7695375084877014,1.6785813570022583,-1.7171422243118286
1761132215712828700,1.40682861328125,0.6473644375801086,2.3089942932128906,-1.8723019361495972
1761132215722828500,1.41682861328125,0.42012256383895874,2.2338578701019287,-2.1960606575012207
1761132215732828700,1.42682861328125,0.043218716979026794,1.2008846998214722,-2.5192081928253174
1761132215742828500,1.43682861328125,-0.13148874044418335,0.3792709708213806,-2.5088236331939697
1761132215752828700,1.44682861328125,-0.22678372263908386,-0.20471622049808502,-2.378709316253662
1761132215762828500,1.45682861328125,-0.280539870262146,-0.47105345129966736,-2.177734613418579
1761132215772828700,1.46682861328125,-0.18768835067749023,-0.36476290225982666,-1.874745488166809
1761132215782828500,1.47682861328125,0.02672535367310047,-0.12774719297885895,-1.5851953029632568
1761132215792828700,1.48682861328125,0.22708915174007416,0.02863430790603161,-1.3078625202178955
1761132215802828500,1.49682861328125,0.4127921760082245,-0.01412625890225172,-0.9663888216018677
1761132215812827600,1.50682763671875,0.5679519772529602,-0.23281601071357727,-0.5577199459075928
1761132215822827800,1.516827880859375,0.4983133375644684,-0.5950590968132019,-0.25045475363731384
1761132215832828000,1.526827880859375,0.556345522403717,-0.8540659546852112,0.10262536257505417
1761132215842827800,1.536827880859375,0.7762570381164551,-1.0587058067321777,0.4856378734111786
1761132215852827600,1.54682763671875,0.9363036751747131,-1.0165561437606812,0.8087855577468872
1761132215862827800,1.556827880859375,1.049924612045288,-0.8461247086524963,1.0525208711624146
1761132215872828000,1.566827880859375,1.059698462486267,-0.7147886753082275,1.254717230796814
1761132215882828000,1.576828125,0.9204211831092834,-0.6671411991119385,1.4330898523330688
1761132215892828000,1.586827880859375,0.6614143252372742,-0.643317461013794,1.5625933408737183
1761132215902882800,1.5968828125,0.3358231782913208,-0.5559637546539307,1.6108516454696655
1761132215912883700,1.6068837890625,-0.014813481830060482,-0.4673882722854614,1.5247195959091187
1761132215922883800,1.6168837890625,-0.35750889778137207,-0.38980838656425476,1.292590856552124
1761132215932883700,1.6268837890625,-0.6635523438453674,-0.33421963453292847,0.9517280459403992
1761132215942883800,1.6368837890625,-0.8767443299293518,-0.28718301653862,0.5925393104553223
1761132215952883700,1.6468837890625,-0.9647089242935181,-0.23281601071357727,0.323147714138031
1761132215962883800,1.6568837890625,-0.9708175659179688,-0.15890131890773773,0.12278391420841217
1761132215972883700,1.6668837890625,-0.9622654914855957,-0.20471622049808502,0.10690141469240189
1761132215982883800,1.6768837890625,-0.9494373202323914,-0.316504567861557,0.18081611394882202
1761132215992883700,1.6868837890625,-0.9347765445709229,-0.4191299080848694,0.3182607889175415
1761132216002883300,1.69688330078125,-0.9115636348724365,-0.5187009572982788,0.44165557622909546
1761132216012882400,1.70688232421875,-0.8571966290473938,-0.6280458569526672,0.5363397002220154
1761132216022882600,1.716882568359375,-0.755182147026062,-0.7532731890678406,0.6200281977653503
1761132216032882400,1.72688232421875,-0.6067419052124023,-0.9322566986083984,0.6444628238677979
1761132216042882600,1.736882568359375,-0.42348232865333557,-1.0403798818588257,0.6395758986473083
1761132216052882400,1.74688232421875,-0.23900102078914642,-0.9902889132499695,0.6194173693656921
1761132216062882600,1.756882568359375,-0.09422596544027328,-0.7935903072357178,0.5473352670669556
1761132216072882400,1.76688232421875,0.00045814894838258624,-0.5034292936325073,0.4642575979232788
1761132216082882600,1.776882568359375,0.07620543986558914,-0.12652546167373657,0.47280970215797424
1761132216092882400,1.78688232421875,0.15012013912200928,0.20761781930923462,0.4599815309047699
1761132216102882600,1.796882568359375,0.1238529309630394,0.10682506114244461,0.09957103431224823
1761132216112883200,1.80688330078125,-0.0019853119738399982,-0.538859486579895,-0.6499606370925903
1761132216122883300,1.81688330078125,-0.1235474944114685,-1.5431219339370728,-1.680490255355835
1761132216132883200,1.82688330078125,-0.2292271852493286,-2.4979043006896973,-2.7513370513916016
1761132216142883300,1.83688330078125,-0.1992947906255722,-2.748359203338623,-3.3957998752593994
1761132216152883200,1.84688330078125,-0.06123924255371094,-2.1778109073638916,-3.447112560272217
1761132216162883300,1.85688330078125,0.18616119027137756,-1.091692566871643,-2.869234085083008
1761132216172883200,1.86688330078125,0.45982882380485535,0.05367978289723396,-1.940108060836792
1761132216182883300,1.87688330078125,0.7903069257736206,0.7842746376991272,-1.1325441598892212
1761132216192883500,1.886883544921875,1.2063060998916626,1.0640509128570557,-0.6328563690185547
1761132216202883300,1.89688330078125,1.326035737991333,0.8923977613449097,-0.7275404930114746
1761132216212882400,1.90688232421875,1.315040111541748,0.6040693521499634,-0.9663888216018677
1761132216222882600,1.916882568359375,1.2221885919570923,0.330401748418808,-1.177748203277588
1761132216232882400,1.92688232421875,1.1036807298660278,0.11415544152259827,-1.2712105512619019
1761132216242882300,1.93688232421875,0.9442449808120728,0.1227075532078743,-1.179580807685852
1761132216252882400,1.94688232421875,0.7414376735687256,0.3743840456008911,-0.8918632864952087
1761132216262882300,1.95688232421875,0.5612324476242065,0.8258134722709656,-0.40194934606552124
1761132216272882400,1.96688232421875,0.5068654417991638,1.1562916040420532,0.1612684279680252
1761132216282882300,1.97688232421875,0.566119372844696,1.1764501333236694,0.7440338730812073
1761132216292882400,1.98688232421875,0.6962336897850037,0.875904381275177,1.3518447875976562
1761132216302882800,1.9968828125,0.8721628785133362,0.2900846302509308,1.9535470008850098
1761132216312883700,2.0068837890625,0.9460775256156921,-0.45639270544052124,2.506990909576416
1761132216322883600,2.016883544921875,0.9900598526000977,-1.073366641998291,3.009732961654663
1761132216332883700,2.0268837890625,0.9876163601875305,-1.3934600353240967,3.375030517578125
1761132216342883600,2.036883544921875,0.8733845949172974,-1.384907841682434,3.5460727214813232
1761132216352883700,2.0468837890625,0.6320928335189819,-1.1454486846923828,3.506366491317749
1761132216362883600,2.056883544921875,0.30222558975219727,-0.7801512479782104,3.271183490753174
1761132216372883700,2.0668837890625,-0.032528575509786606,-0.4038582742214203,2.883283853530884
1761132216382883600,2.076883544921875,-0.32268956303596497,-0.061162881553173065,2.3915374279022217
1761132216392883700,2.0868837890625,-0.5798638463020325,0.2528218626976013,1.884519338607788
1761132216402883600,2.096883544921875,-0.8260425329208374,0.5570327639579773,1.4300355911254883
1761132216412883000,2.106883056640625,-1.0477865934371948,0.8013788461685181,1.0207557678222656
1761132216422882800,2.1168828125,-1.2261592149734497,0.9718102216720581,0.6823364496231079
1761132216432883000,2.126883056640625,-1.3880385160446167,1.1245265007019043,0.39584067463874817
1761132216442882800,2.1368828125,-1.4595097303390503,1.0884854793548584,0.3127630054950714
1761132216452883000,2.146883056640625,-1.468061923980713,0.9632581472396851,0.33475416898727417
1761132216462882800,2.1568828125,-1.4350751638412476,0.8600218892097473,0.4807509481906891
1761132216472883000,2.166883056640625,-1.3752104043960571,0.7421249151229858,0.6805039048194885
1761132216482882800,2.1768828125,-1.2909109592437744,0.6529386043548584,0.8698720932006836
1761132216492883000,2.186883056640625,-1.2066116333007812,0.5863542556762695,0.979216992855072
1761132216502882800,2.1968828125,-1.13758385181427,0.5118287205696106,1.004873275756836
1761132216512883700,2.2068837890625,-1.0367910861968994,0.5020548701286316,1.004873275756836
1761132216522883600,2.216883544921875,-0.8743008971214294,0.591852068901062,1.036027431488037
1761132216532883700,2.2268837890625,-0.6012440919876099,0.7659486532211304,1.112385630607605
1761132216542883600,2.236883544921875,-0.25671613216400146,0.9559277296066284,1.1832460165023804
1761132216552883700,2.2468837890625,0.07192938029766083,1.2027173042297363,1.2040153741836548
1761132216562883600,2.256883544921875,0.36942076683044434,1.3731486797332764,1.091616153717041
1761132216572883700,2.2668837890625,0.6339253783226013,1.1031463146209717,0.694553792476654
1761132216582883800,2.2768837890625,0.9124799370765686,0.3084105849266052,0.07269296050071716
1761132216592883700,2.2868837890625,1.145830512046814,-1.3317625522613525,-0.789237916469574
1761132216602883800,2.2968837890625,1.098793864250183,-3.3635003566741943,-1.5851953029632568
1761132216612883000,2.306883056640625,0.8617781400680542,-4.910821914672852,-2.0219640731811523
1761132216622883000,2.316883056640625,0.7707592248916626,-5.387907981872559,-2.1252002716064453
1761132216632883000,2.326883056640625,0.7512115240097046,-4.9774065017700195,-2.1728477478027344
1761132216642883000,2.336883056640625,0.6369797587394714,-3.4142022132873535,-2.057394027709961
1761132216652883000,2.346883056640625,0.5899431109428406,-1.5315154790878296,-2.0231857299804688
1761132216662883000,2.356883056640625,0.6455318331718445,0.9834166765213013,-2.068389654159546
1761132216672883000,2.366883056640625,0.7964155673980713,1.7622698545455933,-2.0775527954101562
1761132216682883000,2.376883056640625,0.9393580555915833,1.930257797241211,-2.0140228271484375
1761132216692883000,2.386883056640625,1.0841331481933594,1.5441910028457642,-1.8466455936431885
1761132216702883000,2.396883056640625,1.1293370723724365,0.7292967438697815,-1.5369369983673096
1761132216712883700,2.4068837890625,0.9949467778205872,0.024358252063393593,-1.037249207496643
1761132216722883800,2.4168837890625,0.8006916046142578,-0.39408445358276367,-0.47769662737846375
1761132216732883700,2.4268837890625,0.7005097270011902,-0.44539710879325867,0.059864792972803116
1761132216742883800,2.4368837890625,0.7108944058418274,-0.26885706186294556,0.5461135506629944
1761132216752883700,2.4468837890625,0.7768678665161133,-0.10453431308269501,0.9535606503486633
1761132216762883800,2.4568837890625,0.8428413271903992,-0.0746019184589386,1.284038782119751
1761132216772884200,2.46688427734375,0.860556423664093,-0.2157117873430252,1.511891484260559
1761132216782884400,2.47688427734375,0.8330674767494202,-0.4398993253707886,1.626123309135437
1761132216792884200,2.48688427734375,0.7683157324790955,-0.6457608938217163,1.6120734214782715
1761132216802884400,2.49688427734375,0.6143777370452881,-0.7935903072357178,1.5344934463500977
1761132216812883500,2.506883544921875,0.35781431198120117,-0.7758752107620239,1.50211763381958
1761132216822883300,2.51688330078125,0.08109235763549805,-0.672639012336731,1.5387696027755737
1761132216832883500,2.526883544921875,-0.15103642642498016,-0.5761222839355469,1.624901533126831
1761132216842883300,2.53688330078125,-0.3349068760871887,-0.5070945024490356,1.6975945234298706
1761132216852883500,2.546883544921875,-0.46379944682121277,-0.4722751975059509,1.693318486213684
1761132216862883300,2.55688330078125,-0.5566509366035461,-0.3788128197193146,1.587027907371521
1761132216872883500,2.566883544921875,-0.6409503817558289,-0.2572506368160248,1.3628404140472412
1761132216882883300,2.57688330078125,-0.7276932001113892,-0.17783814668655396,1.0677924156188965
1761132216892883500,2.586883544921875,-0.8944594264030457,-0.03306308016180992,0.6664539575576782
1761132216902883300,2.59688330078125,-1.0245736837387085,0.0970512181520462,0.4434881806373596
1761132216912884200,2.60688427734375,-1.136362075805664,0.2393828183412552,0.2535090744495392
1761132216922884000,2.616884033203125,-1.2078332901000977,0.39332085847854614,0.1007927656173706
1761132216932884200,2.62688427734375,-1.2389874458312988,0.47884199023246765,-0.0555887371301651
1761132216942884000,2.636884033203125,-1.2328788042068481,0.5118287205696106,-0.1973094791173935
1761132216952884200,2.64688427734375,-1.222494125366211,0.5857434272766113,-0.2535090744495392
1761132216962884000,2.656884033203125,-1.2169963121414185,0.7671703696250916,-0.19853121042251587
1761132216972884200,2.66688427734375,-1.1809552907943726,0.9131671786308289,-0.1270599663257599
1761132216982884000,2.676884033203125,-1.0844385623931885,1.0781008005142212,-0.012828170321881771
1761132216992884200,2.68688427734375,-0.9543242454528809,1.1013137102127075,0.14294247329235077
1761132217002884000,2.696884033203125,-0.7661777138710022,0.9333257079124451,0.31093040108680725
1761132217012883200,2.70688330078125,-0.4607451260089874,0.772057294845581,0.5516113042831421
1761132217022883300,2.71688330078125,-0.10277807712554932,0.74395751953125,0.8142833709716797
1761132217032883200,2.72688330078125,0.2857322096824646,0.6187301278114319,0.8558222055435181
1761132217042883300,2.73688330078125,0.6534730792045593,-0.12469286471605301,0.4508185386657715
1761132217052883200,2.74688330078125,0.8141306638717651,-1.5620588064193726,-0.21930062770843506
1761132217062883300,2.75688330078125,0.670577347278595,-3.1790192127227783,-0.7678576111793518
1761132217072883000,2.766883056640625,0.33948835730552673,-4.507650852203369,-1.0855075120925903
1761132217082882800,2.7768828125,0.1238529309630394,-4.6756391525268555,-1.3115277290344238
1761132217092883000,2.786883056640625,-0.24633140861988068,-3.8137080669403076,-1.6303993463516235
1761132217102882800,2.7968828125,-0.5523748993873596,-1.9004781246185303,-1.9004018306732178
1761132217112883700,2.8068837890625,-0.5303837656974792,-0.016569720581173897,-2.381152629852295
1761132217142883600,2.836883544921875,0.07559457421302795,2.550286054611206,-3.9706242084503174
1761132217152883700,2.8468837890625,-0.13759739696979523,2.3138811588287354,-4.144109725952148
1761132217162883800,2.8568837890625,-0.4607451260089874,1.9577467441558838,-3.9547414779663086
1761132217172883700,2.8668837890625,-0.6708827614784241,1.568625569343567,-3.395189046859741
1761132217182883800,2.8768837890625,-0.6177374720573425,1.4507286548614502,-2.528982162475586
1761132217192883700,2.8868837890625,-0.40515637397766113,1.4354569911956787,-1.5900822877883911
1761132217202883800,2.8968837890625,-0.13454307615756989,1.4018594026565552,-0.656069278717041
1761132217212883000,2.906883056640625,0.14217889308929443,1.2094367742538452,0.23090706765651703
1761132217222882800,2.9168828125,0.33460143208503723,0.8386416435241699,0.9914342761039734
1761132217232882700,2.926882568359375,0.44944411516189575,0.4269184470176697,1.6041321754455566
1761132217242882800,2.9368828125,0.4818199574947357,-0.05627596005797386,1.9993619918823242
1761132217252882700,2.946882568359375,0.44516804814338684,-0.4435645341873169,2.1991147994995117
1761132217262882800,2.9568828125,0.37430769205093384,-0.5724570751190186,2.2773056030273438
1761132217272882700,2.966882568359375,0.25213462114334106,-0.5364160537719727,2.2711970806121826
1761132217282882800,2.9768828125,0.11041389405727386,-0.397138774394989,2.1991147994995117
1761132217292882700,2.986882568359375,-0.02825251780450344,-0.1454622894525528,2.054950714111328
1761132217302882800,2.9968828125,-0.1693623960018158,0.10865765810012817,1.834428310394287
1761132217312883700,3.0068837890625,-0.3165809214115143,0.2851977050304413,1.5650367736816406
1761132217322883600,3.016883544921875,-0.4619668424129486,0.4000403881072998,1.3017538785934448
1761132217332883700,3.0268837890625,-0.5908594131469727,0.4006512463092804,1.0403034687042236
1761132217342883600,3.036883544921875,-0.7026477456092834,0.2906954884529114,0.8045095205307007
1761132217352883700,3.0468837890625,-0.8168795704841614,0.07567093521356583,0.5742133259773254
1761132217362883600,3.056883544921875,-0.8321511745452881,-0.04711298272013664,0.5125159621238708
1761132217372883700,3.0668837890625,-0.8217664957046509,-0.06788240373134613,0.5186246037483215
1761132217382883600,3.076883544921875,-0.8199338912963867,-0.013515393249690533,0.5467243790626526
1761132217392883700,3.0868837890625,-0.8309294581413269,0.05245805159211159,0.5839871764183044
1761132217402883600,3.096883544921875,-0.8578075170516968,0.1483639031648636,0.6572909951210022
1761132217412883000,3.106883056640625,-0.8822421431541443,0.2027309089899063,0.7617489695549011
1761132217422882800,3.1168828125,-0.8736900091171265,0.1575268805027008,0.8802568316459656
1761132217432883000,3.126883056640625,-0.7991644740104675,0.09338602423667908,1.0299187898635864
1761132217442882800,3.1368828125,-0.6568328738212585,-0.01412625890225172,1.1575896739959717
1761132217452883000,3.146883056640625,-0.46990808844566345,-0.24381159245967865,1.2052371501922607
1761132217462882800,3.1568828125,-0.21273382008075714,-0.37514761090278625,1.2559388875961304
1761132217472882700,3.166882568359375,0.09269879758358002,-0.43012550473213196,1.2724323272705078
1761132217482882800,3.1768828125,0.39874228835105896,-0.47044259309768677,1.214400053024292
1761132217492882700,3.186882568359375,0.6620252132415771,-0.5852852463722229,0.9853256344795227
1761132217502882800,3.1968828125,0.7414376735687256,-1.2413545846939087,0.34147366881370544
1761132217512883700,3.2068837890625,0.5728389024734497,-2.2633321285247803,-0.598647952079773
1761132217522883600,3.216883544921875,0.23869559168815613,-3.1185433864593506,-1.5338826179504395
1761132217532883700,3.2268837890625,-0.022143865004181862,-3.392822027206421,-2.470339059829712
1761132217542883600,3.236883544921875,-0.1235474944114685,-3.016528844833374,-3.428786516189575
1761132217552883700,3.2468837890625,-0.1082758679986,-1.9792797565460205,-4.345695495605469
1761132217562883600,3.256883544921875,-0.19196440279483795,-0.24992024898529053,-4.927238941192627
1761132217572883700,3.2668837890625,-0.1736384481191635,1.7182875871658325,-5.309030055999756
1761132217582883600,3.276883544921875,-0.12476922571659088,3.3132567405700684,-6.349944114685059
1761132217592883700,3.2868837890625,-0.25366178154945374,3.557602882385254,-7.106195449829102
1761132217602883600,3.296883544921875,-0.4356996417045593,3.167259931564331,-7.5753397941589355
1761132217612883000,3.306883056640625,-0.6427829265594482,2.510579824447632,-7.571674823760986
1761132217622882800,3.3168828125,-0.8724682927131653,1.9449186325073242,-7.051217555999756
1761132217632883000,3.326883056640625,-1.0141890048980713,1.31511652469635,-6.157521724700928
1761132217642882800,3.3368828125,-0.9451612234115601,0.38232529163360596,-5.053688049316406
1761132217652883000,3.346883056640625,-0.661719799041748,-0.5413029789924622,-3.662137031555176
1761132217662882800,3.3568828125,-0.30741792917251587,-0.9524152874946594,-2.001194477081299
1761132217672883000,3.366883056640625,0.10491610318422318,-1.3720797300338745,-0.43799036741256714
1761132217682882800,3.3768828125,0.5899431109428406,-1.7373771667480469,0.8900306820869446
1761132217692883000,3.386883056640625,1.040150761604309,-2.0373120307922363,1.9504927396774292
1761132217702882800,3.3968828125,1.399950385093689,-2.190639019012451,2.797762870788574
1761132217712883700,3.4068837890625,1.6467399597167969,-2.070298671722412,3.419623613357544
1761132217722883800,3.4168837890625,1.7988454103469849,-1.7679203748703003,3.72994327545166
1761132217732883700,3.4268837890625,1.8904752731323242,-1.4569900035858154,3.7085628509521484
1761132217742883800,3.4368837890625,1.88864266872406,-1.0312168598175049,3.5185837745666504
1761132217752883700,3.4468837890625,1.7719674110412598,-0.813748836517334,3.2424726486206055
1761132217762883800,3.4568837890625,1.5447255373001099,-0.6500369906425476,2.9138271808624268
1761132217772883700,3.4668837890625,1.3144292831420898,-0.25969409942626953,2.5723536014556885
1761132217782883800,3.4768837890625,1.1678216457366943,0.26076310873031616,2.1985039710998535
1761132217792883700,3.4868837890625,1.0462594032287598,0.7598400115966797,1.7873916625976562
1761132217802883800,3.4968837890625,0.8684976696968079,1.169730544090271,1.4043792486190796
1761132217812883000,3.506883056640625,0.6174320578575134,1.2845731973648071,1.0977247953414917
1761132217822882800,3.5168828125,0.20815233886241913,1.0732139348983765,0.8539896011352539
1761132217832883000,3.526883056640625,-0.036193765699863434,0.8227591514587402,0.8295549750328064
1761132217842882800,3.5368828125,-0.2292271852493286,0.6449973583221436,0.9248499870300293
1761132217852883000,3.546883056640625,-0.34162637591362,0.5216025710105896,1.0965031385421753
1761132217862882800,3.5568828125,-0.36361753940582275,0.45868343114852905,1.289536476135254
1761132217872883000,3.566883056640625,-0.3006984293460846,0.47884199023246765,1.4850133657455444
1761132217882882800,3.5768828125,-0.15653422474861145,0.6480516791343689,1.7134770154953003
1761132217892883000,3.586883056640625,0.051770828664302826,0.8911760449409485,1.9449949264526367
1761132217902882800,3.5968828125,0.31383201479911804,0.9791406393051147,2.0891592502593994
1761132217912883700,3.6068837890625,0.556345522403717,0.7983245253562927,2.101376533508301
1761132217922883800,3.6168837890625,0.6638578176498413,0.5863542556762695,2.090380907058716
1761132217932883700,3.6268837890625,0.5539020895957947,0.38415786623954773,2.032959461212158
1761132217942883800,3.6368837890625,0.31749722361564636,-0.004963280167430639,1.8002198934555054
1761132217952883700,3.6468837890625,0.0981965884566307,-0.8229118585586548,1.19607412815094
1761132217962883800,3.6568837890625,-0.01237002108246088,-1.937130093574524,0.17776179313659668
1761132217972883700,3.6668837890625,-0.08384125679731369,-2.9652161598205566,-1.0030407905578613
1761132217982883600,3.676883544921875,-0.24388794600963593,-3.3647220134735107,-1.7904460430145264
1761132217992883700,3.6868837890625,-0.32330042123794556,-2.9756009578704834,-2.0812180042266846
1761132218002883600,3.696883544921875,-0.21578814089298248,-1.705612063407898,-1.9523253440856934
1761132218012882700,3.706882568359375,-0.12110403180122375,0.012140946462750435,-1.6670511960983276
1761132218022882800,3.7168828125,0.04138612002134323,1.6217708587646484,-1.4208725690841675
1761132218032882700,3.726882568359375,0.19532416760921478,2.505082130432129,-1.3127493858337402
1761132218042882800,3.7368828125,0.19654589891433716,2.7445411682128906,-1.263269305229187
1761132218052882700,3.746882568359375,-0.06123924255371094,2.044489622116089,-1.0989465713500977
1761132218062882800,3.7568828125,-0.13271047174930573,1.1575132608413696,-0.7654141783714294
1761132218072882700,3.766882568359375,-0.011759156361222267,0.34139731526374817,-0.1820378452539444
1761132218082882800,3.7768828125,0.25702154636383057,-0.13752104341983795,0.5595525503158569
1761132218092882700,3.786882568359375,0.6101016402244568,-0.3464369475841522,1.3115277290344238
1761132218102882800,3.7968828125,0.9497427344322205,-0.44112107157707214,1.9547687768936157
1761132218112883500,3.806883544921875,1.1812607049942017,-0.5810092091560364,2.387261390686035
1761132218122883600,3.816883544921875,1.2753338813781738,-0.7190647721290588,2.646268129348755
1761132218132883500,3.826883544921875,1.2527319192886353,-0.843681275844574,2.777604341506958
1761132218142883600,3.836883544921875,1.1482739448547363,-0.9151524901390076,2.8289170265197754
1761132218152883500,3.846883544921875,0.973566472530365,-0.8937721848487854,2.7739391326904297
1761132218162883600,3.856883544921875,0.7451028823852539,-0.7752643823623657,2.616335868835449
1761132218172883700,3.8668837890625,0.4885394871234894,-0.607276439666748,2.3573288917541504
1761132218182883600,3.876883544921875,0.2344195395708084,-0.3281109929084778,2.0109684467315674
1761132218192883700,3.8868837890625,-0.005650503560900688,0.006643159314990044,1.5919147729873657
1761132218202883600,3.896883544921875,-0.21762074530124664,0.32673653960227966,1.147204875946045
1761132218212882700,3.906882568359375,-0.3966042697429657,0.544204592704773,0.7373143434524536
1761132218222882800,3.9168828125,-0.5884159207344055,0.5900194644927979,0.3885102868080139
1761132218232882700,3.926882568359375,-0.8016079068183899,0.44280093908309937,0.1258382350206375
1761132218242882600,3.936882568359375,-1.0227410793304443,0.13859005272388458,-0.07696902006864548
1761132218252882700,3.946882568359375,-1.201724648475647,-0.22487476468086243,-0.23090706765651703
1761132218262882600,3.956882568359375,-1.2915217876434326,-0.540081262588501,-0.3182607889175415
1761132218272882700,3.966882568359375,-1.2848023176193237,-0.7483862638473511,-0.3335324227809906
1761132218282882800,3.9768828125,-1.127810001373291,-0.7147886753082275,-0.17959438264369965
1761132218292882700,3.986882568359375,-0.9879218339920044,-0.5095379948616028,-0.0012217304902151227
1761132218302882800,3.9968828125,-0.8755226135253906,-0.24014639854431152,0.19120082259178162
1761132218312883700,4.0068837890625,-0.7759515643119812,-0.006795875728130341,0.3323107063770294
1761132218322883600,4.016883544921875,-0.697760820388794,0.12454015016555786,0.4245513379573822
1761132218332883700,4.0268837890625,-0.6433938145637512,0.16485725343227386,0.5112941861152649
1761132218342883600,4.036883544921875,-0.6055201888084412,0.09094256162643433,0.5913175344467163
1761132218352883700,4.0468837890625,-0.5175555944442749,-0.05749769136309624,0.6481280326843262
1761132218362883600,4.056883544921875,-0.289702832698822,-0.21510092914104462,0.6279694437980652
1761132218372883700,4.0668837890625,0.08781187981367111,-0.33055445551872253,0.4966334402561188
1761132218382883600,4.076883544921875,0.4634940028190613,-0.38003453612327576,0.2932153046131134
1761132218392883700,4.0868837890625,0.727998673915863,-0.5535202622413635,0.02871066704392433
1761132218402883600,4.096883544921875,0.8361217975616455,-0.9499717950820923,-0.2620611786842346
1761132218412883000,4.106883056640625,0.7518224120140076,-1.5657240152359009,-0.6035348773002625
1761132218422882800,4.1168828125,0.517861008644104,-2.2743277549743652,-0.8301658630371094
1761132218432883000,4.126883056640625,0.26251932978630066,-2.4264330863952637,-0.8197811841964722
1761132218442882800,4.1368828125,0.06643159687519073,-1.7532596588134766,-0.7941248416900635
1761132218452883000,4.146883056640625,0.020616702735424042,-0.4398993253707886,-1.0384708642959595
1761132218462882800,4.1568828125,0.22708915174007416,0.9473756551742554,-1.539380431175232
1761132218472882700,4.166882568359375,0.39874228835105896,1.9070448875427246,-2.0140228271484375
1761132218482882800,4.1768828125,0.3199406862258911,2.3957371711730957,-2.2156083583831787
1761132218492882700,4.186882568359375,0.10491610318422318,2.560670852661133,-2.191173553466797
1761132218502882800,4.1968828125,-0.20662516355514526,2.491032123565674,-2.121535062789917
1761132218512883700,4.2068837890625,-0.8229882121086121,2.4177281856536865,-2.0592267513275146
1761132218522883600,4.216883544921875,-1.1100949048995972,2.307161569595337,-1.9547687768936157
1761132218532883700,4.2268837890625,-1.0441213846206665,2.2692880630493164,-1.5632041692733765
1761132218542883600,4.236883544921875,-0.7185302376747131,2.15139102935791,-0.9590584635734558
1761132218552883700,4.2468837890625,-0.3306308090686798,1.7195093631744385,-0.23457226157188416
1761132218562883600,4.256883544921875,0.05543602257966995,0.9632581472396851,0.5357288122177124
1761132218572883700,4.2668837890625,0.37369680404663086,0.06589708477258682,1.2571606636047363
1761132218582883600,4.276883544921875,0.6113234162330627,-0.720897376537323,1.8820757865905762
1761132218592883700,4.2868837890625,0.7835873961448669,-1.300608515739441,2.3878722190856934
1761132218602883600,4.296883544921875,0.879493236541748,-1.6292539834976196,2.7452285289764404
1761132218612882700,4.306882568359375,0.8746063113212585,-1.6671276092529297,2.950479030609131
1761132218622882800,4.3168828125,0.7518224120140076,-1.4551573991775513,2.986520290374756
1761132218632882700,4.326882568359375,0.5581781268119812,-1.0348820686340332,2.867401361465454
1761132218642882800,4.3368828125,0.31444287300109863,-0.5266422033309937,2.604729413986206
1761132218652882700,4.346882568359375,0.02977968007326126,-0.04528038576245308,2.2351558208465576
1761132218662882800,4.3568828125,-0.2701551616191864,0.3652210533618927,1.7861700057983398
1761132218672882700,4.366882568359375,-0.5053382515907288,0.6596581339836121,1.2907582521438599
1761132218682882800,4.3768828125,-0.7386888265609741,0.8221482634544373,0.8087855577468872
1761132218692882700,4.386882568359375,-0.9909761548042297,0.8410850763320923,0.394618958234787
1761132218702882800,4.3968828125,-1.1711814403533936,0.7653377652168274,0.05864306539297104
1761132218712883500,4.406883544921875,-1.2805262804031372,0.6144540905952454,-0.1765400618314743
1761132218722883600,4.416883544921875,-1.352608323097229,0.3969860374927521,-0.2932153046131134
1761132218732883500,4.426883544921875,-1.3483322858810425,0.13125966489315033,-0.29077184200286865
1761132218742883600,4.436883544921875,-1.1888965368270874,-0.2554180324077606,-0.07391469180583954
1761132218752883500,4.446883544921875,-1.04289972782135,-0.45517095923423767,0.13255776464939117
1761132218762883600,4.456883544921875,-0.8999572396278381,-0.5535202622413635,0.3390302062034607
1761132218772883700,4.4668837890625,-0.8052731156349182,-0.4875468313694,0.5057964324951172
1761132218782883600,4.476883544921875,-0.7423539757728577,-0.31955888867378235,0.588874101638794
1761132218792883700,4.4868837890625,-0.6611089110374451,-0.1760055422782898,0.5607742667198181
1761132218802883600,4.496883544921875,-0.5071708559989929,-0.15462526679039001,0.41661009192466736
1761132218812883000,4.506883056640625,-0.25793784856796265,-0.2627484202384949,0.20952677726745605
1761132218822882800,4.5168828125,0.009621127508580685,-0.4179081916809082,-0.0024434609804302454
1761132218832883000,4.526883056640625,0.1996002197265625,-0.5376377701759338,-0.24862214922904968
1761132218842882800,4.5368828125,0.2997821271419525,-0.6836345791816711,-0.6798930168151855
1761132218852883000,4.546883056640625,0.35781431198120117,-0.9218720197677612,-1.3347405195236206
1761132218862882800,4.5568828125,0.31749722361564636,-1.3048845529556274,-2.1117610931396484
1761132218872883000,4.566883056640625,0.12140946835279465,-1.705612063407898,-2.8270843029022217
1761132218882882800,4.5768828125,-0.07528914511203766,-2.013488292694092,-3.3628132343292236
1761132218892883000,4.586883056640625,-0.22311852872371674,-1.9731711149215698,-3.6444220542907715
1761132218902882800,4.5968828125,-0.24694228172302246,-1.3042736053466797,-3.6193766593933105
1761132218912883700,4.6068837890625,-0.16325373947620392,0.0567341111600399,-3.271183490753174
1761132218922883800,4.6168837890625,-0.09239336848258972,1.4226287603378296,-2.9046642780303955
1761132218932883700,4.6268837890625,-0.18524488806724548,2.3786330223083496,-2.674368143081665
1761132218942883800,4.6368837890625,-0.3776674270629883,2.938796281814575,-2.5699100494384766
1761132218952883700,4.6468837890625,-0.5737552046775818,3.032869577407837,-2.498438835144043
1761132218962883800,4.6568837890625,-0.661719799041748,2.759812831878662,-2.252260208129883
1761132218972883700,4.6668837890625,-0.35262197256088257,2.075032949447632,-1.274264931678772
1761132218982883800,4.6768837890625,0.06520986557006836,1.5747342109680176,-0.40133845806121826
1761132218992883700,4.6868837890625,0.5960517525672913,1.0530552864074707,0.49235737323760986
1761132219002883800,4.6968837890625,1.1476631164550781,0.5368741750717163,1.3310753107070923
1761132219012883000,4.706883056640625,1.5575536489486694,0.02557998150587082,2.074498414993286
1761132219022882800,4.7168828125,1.7799086570739746,-0.4796055853366852,2.688417911529541
1761132219032883000,4.726883056640625,1.8086192607879639,-0.9548587203025818,3.11785626411438
1761132219042882800,4.7368828125,1.665065884590149,-1.2890020608901978,3.3267722129821777
1761132219052883000,4.746883056640625,1.4384349584579468,-1.3335951566696167,3.3035593032836914
1761132219062882800,4.7568828125,1.2466232776641846,-1.0923033952713013,3.0549371242523193
1761132219072883000,4.766883056640625,1.1146763563156128,-0.6927975416183472,2.6841418743133545
1761132219082882800,4.7768828125,0.9094256162643433,-0.28351783752441406,2.244929790496826
1761132219092883000,4.786883056640625,0.7469354867935181,0.053068917244672775,1.8771889209747314
1761132219102882800,4.7968828125,0.6766859889030457,0.2796999216079712,1.6646077632904053
1761132219112883700,4.8068837890625,0.5752823352813721,0.4006512463092804,1.5558737516403198
1761132219122883600,4.816883544921875,0.3962988257408142,0.4250858426094055,1.4721852540969849
1761132219132883700,4.8268837890625,0.19715675711631775,0.3701079785823822,1.3555099964141846
1761132219142883600,4.836883544921875,0.005955935921519995,0.25587618350982666,1.1832460165023804
1761132219152883700,4.8468837890625,-0.1791362315416336,0.13492485880851746,0.9529497623443604
1761132219162883600,4.856883544921875,-0.34406983852386475,0.06101016700267792,0.6701191663742065
1761132219182883600,4.876883544921875,-0.5474879741668701,-0.00862847175449133,0.09957103431224823
1761132219192883700,4.8868837890625,-0.6262896060943604,0.0164170041680336,-0.07819075137376785
1761132219202883600,4.896883544921875,-0.6757696866989136,0.020082194358110428,-0.16554448008537292
1761132219212883000,4.906883056640625,-0.6696610450744629,-0.09292787313461304,-0.08429940044879913
1761132219222882800,4.9168828125,-0.613461434841156,-0.16928602755069733,0.1472185254096985
1761132219232883000,4.926883056640625,-0.5248859524726868,-0.18333593010902405,0.48197266459465027
1761132219242882800,4.9368828125,-0.4210388660430908,-0.15218180418014526,0.8032878041267395
1761132219252883000,4.946883056640625,-0.31352660059928894,-0.1308015137910843,1.0140362977981567
1761132219262882800,4.9568828125,-0.17119498550891876,-0.2364812046289444,1.1136072874069214
1761132219272883000,4.966883056640625,0.04688390716910362,-0.3885866403579712,1.1129964590072632
1761132219282882800,4.9768828125,0.34437528252601624,-0.6023895144462585,0.8717046976089478
1761132219292883000,4.986883056640625,0.6944010853767395,-0.9432523250579834,0.37079519033432007
1761132219302882800,4.9968828125,1.0126618146896362,-1.3671927452087402,-0.18570303916931152
1761132219312883700,5.0068837890625,1.0877982378005981,-1.8571066856384277,-0.6395758986473083
1761132219322883600,5.016883544921875,0.782976508140564,-1.9731711149215698,-0.8723155856132507
1761132219332883700,5.0268837890625,0.244804248213768,-1.7373771667480469,-1.0610729455947876
1761132219342883600,5.036883544921875,-0.25793784856796265,-1.281060814857483,-1.4703526496887207
1761132219352883700,5.0468837890625,-0.6415612101554871,-0.7276168465614319,-2.149634838104248
1761132219362883600,5.056883544921875,-0.8822421431541443,0.16730071604251862,-2.8368582725524902
1761132219372883700,5.0668837890625,-0.9482156038284302,1.3212251663208008,-3.308446168899536
1761132219382883800,5.0768837890625,-0.8962920308113098,2.3670265674591064,-3.4403929710388184
1761132219392883700,5.0868837890625,-0.7783950567245483,3.0145435333251953,-3.288898468017578
1761132219402883600,5.096883544921875,-0.6079636216163635,3.1544318199157715,-2.986520290374756
1761132219412883000,5.106883056640625,-0.40515637397766113,2.8917596340179443,-2.56563401222229
1761132219422882800,5.1168828125,-0.16569720208644867,2.3865742683410645,-2.0250182151794434
1761132219432883000,5.126883056640625,0.1440114825963974,1.768378496170044,-1.3946053981781006
1761132219442882800,5.1368828125,0.6302602291107178,0.8557458519935608,-0.44715335965156555
1761132219452883000,5.146883056640625,0.9027060866355896,0.45807257294654846,0.11239920556545258
1761132219462882800,5.1568828125,1.1232284307479858,0.2485457956790924,0.5613851547241211
1761132219472883000,5.166883056640625,1.296714186668396,0.14958561956882477,0.9138544201850891
1761132219482882800,5.1768828125,1.4353805780410767,0.07811439037322998,1.1704177856445312
1761132219492883000,5.186883056640625,1.4952454566955566,-0.00618501054123044,1.350012183189392
1761132219502882800,5.1968828125,1.4885258674621582,-0.10086912661790848,1.4636331796646118
1761132219512883700,5.2068837890625,1.4555391073226929,-0.19860756397247314,1.5338826179504395
1761132219522883600,5.216883544921875,1.404226541519165,-0.3110067546367645,1.576032280921936
1761132219532883700,5.2268837890625,1.3180944919586182,-0.4246276915073395,1.5839735269546509
1761132219542883600,5.236883544921875,1.1983648538589478,-0.4093560576438904,1.5601497888565063
1761132219552883700,5.2468837890625,1.1024590730667114,-0.397138774394989,1.519832730293274
1761132219562883600,5.256883544921875,0.9790642857551575,-0.3916409909725189,1.4654656648635864
1761132219572883700,5.2668837890625,0.7878634333610535,-0.3323870599269867,1.3365731239318848
1761132219582883600,5.276883544921875,0.5826127529144287,-0.23892466723918915,1.141707181930542
1761132219592883700,5.2868837890625,0.3761402666568756,-0.1509600728750229,0.9511171579360962
1761132219602883600,5.296883544921875,0.14828753471374512,-0.05871942266821861,0.8246681094169617
1761132219612882700,5.306882568359375,-0.11988230794668198,-0.010461067780852318,0.7446447610855103
1761132219622882800,5.3168828125,-0.44425174593925476,-0.06788240373134613,0.6572909951210022
1761132219632882700,5.326882568359375,-0.7820602059364319,-0.18211419880390167,0.6304129362106323
1761132219642882800,5.3368828125,-1.0545061826705933,-0.4899902939796448,0.7018841505050659
1761132219652882700,5.346882568359375,-1.3232868909835815,-0.5443572998046875,0.7874053120613098
1761132219662882800,5.3568828125,-1.40269935131073,-0.8113054037094116,1.0531316995620728
1761132219672882700,5.366882568359375,-1.5065463781356812,-1.2737303972244263,1.3555099964141846
1761132219682882800,5.3768828125,-1.621999979019165,-1.4832571744918823,1.55892813205719
1761132219692883000,5.386883056640625,-1.811979055404663,-2.136883020401001,1.7079792022705078
1761132219702882800,5.3968828125,-2.080148935317993,-3.4636824131011963,1.7733417749404907
1761132219712883700,5.4068837890625,-2.275014877319336,-4.77826452255249,1.8460347652435303
1761132219722883600,5.416883544921875,-2.419790029525757,-5.288947582244873,2.0323486328125
1761132219732883700,5.4268837890625,-2.618932008743286,-5.199761390686035,2.2742512226104736
1761132219742883600,5.436883544921875,-2.6946792602539062,-4.299956798553467,2.41413950920105
1761132219752883700,5.4468837890625,-2.0636556148529053,-2.762408971786499,1.9083430767059326
1761132219762883600,5.456883544921875,-1.0404561758041382,-2.000049114227295,1.0030407905578613
1761132219772883700,5.4668837890625,-0.21578814089298248,-1.2676217555999756,-0.34636059403419495
1761132219782883600,5.476883544921875,0.11468994617462158,-1.270065188407898,-1.7519614696502686
1761132219792883700,5.4868837890625,0.05604688450694084,-1.6561319828033447,-2.9975156784057617
1761132219802883600,5.496883544921875,-0.15531249344348907,-2.0580813884735107,-4.027434349060059
1761132219812883000,5.506883056640625,-0.33246341347694397,-2.1991913318634033,-4.687169075012207
1761132219822882800,5.5168828125,-0.493731826543808,-1.9200258255004883,-4.867985248565674
1761132219832883000,5.526883056640625,-0.6855435371398926,-1.2676217555999756,-4.696331977844238
1761132219842882800,5.5368828125,-0.9695958495140076,-0.3262783885002136,-4.233907222747803
1761132219852883000,5.546883056640625,-1.1913399696350098,0.4904484450817108,-3.5949418544769287
1761132219862882800,5.5568828125,-1.1015427112579346,0.8239808678627014,-2.9162707328796387
1761132219872883000,5.566883056640625,-0.6800457239151001,0.5674174427986145,-2.3133466243743896
1761132219882882800,5.5768828125,-0.08506298810243607,-0.11552988737821579,-1.8154915571212769
1761132219892883000,5.586883056640625,0.4934264123439789,-0.7612144351005554,-1.368949055671692
1761132219902882800,5.5968828125,0.8776606321334839,-0.9505826830863953,-0.6475171446800232
1761132219912883700,5.6068837890625,0.8629998564720154,-0.539470374584198,-0.13316862285137177
1761132219922883800,5.6168837890625,0.7958046793937683,0.23632849752902985,0.32131510972976685
1761132219932883700,5.6268837890625,0.8904888033866882,0.867352306842804,0.513126790523529
1761132219942883800,5.6368837890625,0.9564622640609741,1.3517683744430542,0.6224716901779175
1761132219952883700,5.6468837890625,0.982729434967041,1.5820646286010742,0.646906316280365
1761132219962883800,5.6568837890625,0.9130908250808716,1.586951494216919,0.5583308339118958
1761132219972883700,5.6668837890625,0.7603744864463806,1.3383294343948364,0.4691445231437683
1761132219982883800,5.6768837890625,0.5655084848403931,0.9938014149665833,0.42210787534713745
1761132219992883700,5.6868837890625,0.3761402666568756,0.9540951251983643,0.45204028487205505
1761132220002883800,5.6968837890625,0.275958389043808,1.2161563634872437,0.5571091175079346
1761132220012883000,5.706883056640625,0.24358251690864563,1.6700291633605957,0.6536257863044739
1761132220022882800,5.7168828125,0.29184088110923767,2.195984125137329,0.6530149579048157
1761132220032883000,5.726883056640625,0.4335615932941437,2.6626851558685303,0.5283984541893005
1761132220042882800,5.7368828125,0.6113234162330627,2.9198594093322754,0.3378084897994995
1761132220052883000,5.746883056640625,0.7402159571647644,2.8367817401885986,0.12950342893600464
1761132220062882800,5.7568828125,0.7939720749855042,2.360306978225708,-0.07208210229873657
1761132220072883000,5.766883056640625,0.7634288668632507,1.6559792757034302,-0.24923302233219147
1761132220082882800,5.7768828125,0.6498079299926758,0.8917868733406067,-0.3597996234893799
1761132220092883000,5.786883056640625,0.44455718994140625,0.25648704171180725,-0.39584067463874817
1761132220102882800,5.7968828125,0.22098049521446228,-0.0746019184589386,-0.34513887763023376
1761132220112883700,5.8068837890625,0.03222314268350601,-0.1497383415699005,-0.1875356286764145
1761132220122883600,5.816883544921875,-0.09056077152490616,0.01702786795794964,0.06475171446800232
1761132220132883700,5.8268837890625,-0.1547016203403473,0.5301546454429626,0.4386012554168701
1761132220142883600,5.836883544921875,-0.11255192011594772,0.7683921456336975,0.5937610268592834
1761132220152883700,5.8468837890625,-0.0025961773935705423,0.9253844618797302,0.6249151229858398
1761132220162883600,5.856883544921875,0.12018773704767227,1.0109056234359741,0.5613851547241211
1761132220172849400,5.866849365234375,0.16783522069454193,1.0139600038528442,0.5064072608947754
1761132220182816300,5.876816162109375,0.23747386038303375,0.9663124680519104,0.3274237811565399
1761132220192782800,5.886782958984375,0.2509129047393799,0.9082802534103394,0.2223549485206604
1761132220202749400,5.89674951171875,0.2588541507720947,0.8001571297645569,0.1569923609495163
1761132220212715300,5.90671533203125,0.27351492643356323,0.6572146415710449,0.13500121235847473
1761132220222681900,5.916681884765625,0.3101668357849121,0.5503132343292236,0.15027284622192383
1761132220232648700,5.926648681640625,0.346818745136261,0.4721224904060364,0.19303341209888458
1761132220242615300,5.936615234375,0.3718642294406891,0.4195880591869354,0.22663100063800812
1761132220252582000,5.946581787109375,0.39996400475502014,0.37682750821113586,0.24495697021484375
1761132220262548500,5.956548583984375,0.4280638098716736,0.33773213624954224,0.27611109614372253
1761132220272515300,5.966515380859375,0.45066583156585693,0.3084105849266052,0.32131510972976685
1761132220282482000,5.97648193359375,0.45433104038238525,0.2803107798099518,0.3591887652873993
1761132220292448500,5.986448486328125,0.42928555607795715,0.26198482513427734,0.3640756905078888
1761132220302415400,5.996415283203125,0.36453384160995483,0.2644282877445221,0.3237585723400116
1761132220312382700,6.0063828125,0.275958389043808,0.2540435791015625,0.24129177629947662
1761132220322349300,6.016349365234375,0.18249599635601044,0.23266330361366272,0.13805554807186127
1761132220332316200,6.026316162109375,0.10674870014190674,0.2027309089899063,0.05925392732024193
1761132220342282800,6.03628271484375,0.0731511116027832,0.22288945317268372,0.03237585723400116
1761132220352249300,6.046249267578125,0.08903361111879349,0.27114781737327576,0.02687807008624077
1761132220362216200,6.05621630859375,0.14095716178417206,0.31635183095932007,0.029932396486401558
1761132220372182800,6.066182861328125,0.21365012228488922,0.3450624942779541,0.036041051149368286
1761132220382149600,6.076149658203125,0.27290403842926025,0.3132975101470947,0.04886921867728233
1761132220392116200,6.0861162109375,0.2814561724662781,0.18073976039886475,0.08002334833145142
1761132220402082800,6.096082763671875,0.2539672255516052,0.02557998150587082,0.1417207419872284
1761132220412048600,6.106048583984375,0.2099849283695221,-0.05627596005797386,0.2272418737411499
1761132220422015200,6.11601513671875,0.12324206531047821,-0.061162881553173065,0.323147714138031
1761132220431981800,6.12598193359375,0.06459899991750717,-0.03550654277205467,0.33047810196876526
1761132220441948700,6.13594873046875,0.015118914656341076,-0.02695442922413349,0.3023782968521118
1761132220451915300,6.145915283203125,-0.019089538604021072,-0.05016730725765228,0.24862214922904968
1761132220461881900,6.1558818359375,-0.032528575509786606,-0.09353873878717422,0.18509216606616974
1761132220471882800,6.1658828125,-0.023365596309304237,-0.12286027520895004,0.12767083942890167
1761132220481882600,6.175882568359375,-0.01237002108246088,-0.11858421564102173,0.10751228034496307
1761132220491882800,6.1858828125,-0.026419922709465027,-0.11919508129358292,0.11911872029304504
1761132220501882600,6.195882568359375,-0.047800205647945404,-0.11858421564102173,0.14966198801994324
1761132220511883500,6.205883544921875,-0.06979135423898697,-0.13263411819934845,0.19364428520202637
1761132220521883600,6.215883544921875,-0.09056077152490616,-0.14301882684230804,0.2278527319431305
1761132220531883500,6.225883544921875,-0.11194105446338654,-0.1460731476545334,0.23884831368923187
1761132220541883600,6.235883544921875,-0.14126259088516235,-0.1503492146730423,0.22479841113090515
1761132220551883500,6.245883544921875,-0.17302757501602173,-0.11736248433589935,0.21441370248794556
1761132220561883600,6.255883544921875,-0.1889100819826126,-0.031841352581977844,0.22479841113090515
1761132220571883800,6.2658837890625,-0.17791450023651123,0.05367978289723396,0.23029619455337524
1761132220581883600,6.275883544921875,-0.14126259088516235,0.08055785298347473,0.2174680233001709
1761132220591883800,6.2858837890625,-0.11194105446338654,0.032910365611314774,0.18936823308467865
1761132220601883600,6.295883544921875,-0.10522153973579407,-0.0391717329621315,0.1661553531885147
1761132220611882800,6.3058828125,-0.11438451707363129,-0.09720393270254135,0.16065755486488342
1761132220621883000,6.3158828125,-0.13148874044418335,-0.14118622243404388,0.17287486791610718
1761132220631882800,6.3258828125,-0.1388191282749176,-0.16439910233020782,0.19425514340400696
1761132220641883000,6.3358828125,-0.13698652386665344,-0.15462526679039001,0.2015855312347412
1761132220651882800,6.3458828125,-0.14309518039226532,-0.14729487895965576,0.18448130786418915
1761132220661883000,6.3558828125,-0.15103642642498016,-0.15829046070575714,0.1563815027475357
1761132220671882800,6.3658828125,-0.1638645976781845,-0.1509600728750229,0.11301007121801376
1761132220681882600,6.375882568359375,-0.19013181328773499,-0.14851661026477814,0.05253441259264946
1761132220691882800,6.3858828125,-0.2047925740480423,-0.15218180418014526,-0.00855211354792118
1761132220701882600,6.395882568359375,-0.20662516355514526,-0.15340353548526764,-0.05253441259264946
1761132220711883500,6.405883544921875,-0.19746218621730804,-0.13874277472496033,-0.0708603709936142
1761132220721883600,6.415883544921875,-0.18829920887947083,-0.13691017031669617,-0.06780604273080826
1761132220731883500,6.425883544921875,-0.1693623960018158,-0.1295797973871231,-0.06352998316287994
1761132220741883600,6.435883544921875,-0.1388191282749176,-0.09842566400766373,-0.05497787147760391
1761132220751883500,6.445883544921875,-0.11438451707363129,-0.08315403014421463,-0.051312681287527084
1761132220761883600,6.455883544921875,-0.11071932315826416,-0.09842566400766373,-0.05619960278272629
1761132220771883500,6.465883544921875,-0.13026700913906097,-0.1149190217256546,-0.06291911751031876
1761132220781883600,6.475883544921875,-0.1540907621383667,-0.10025826096534729,-0.060475658625364304
1761132220791883500,6.485883544921875,-0.1644754707813263,-0.08376489579677582,-0.05803219974040985
1761132220801883600,6.495883544921875,-0.14248432219028473,-0.0794888436794281,-0.05925392732024193
1761132220811882800,6.5058828125,-0.10461067408323288,-0.07826711237430573,-0.07024950534105301
1761132220821883000,6.5158828125,-0.06490442901849747,-0.07704538106918335,-0.09468411654233932
1761132220831882800,6.5258828125,-0.027641652151942253,-0.064217209815979,-0.13377949595451355
1761132220841882600,6.535882568359375,0.014508049935102463,-0.06604980677366257,-0.18875735998153687
1761132220851882800,6.5458828125,0.06154467165470123,-0.09659306704998016,-0.23884831368923187
1761132220861882600,6.555882568359375,0.10430523753166199,-0.12224940955638885,-0.2626720666885376
1761132220871882800,6.5658828125,0.15256360173225403,-0.12835806608200073,-0.24862214922904968
1761132220881882600,6.575882568359375,0.17577648162841797,-0.084375761449337,-0.23029619455337524
1761132220891882800,6.5858828125,0.20082195103168488,-0.02756529487669468,-0.2382374405860901
1761132220901882600,6.595882568359375,0.23625212907791138,0.006643159314990044,-0.3017674386501312
1761132220911883500,6.605883544921875,0.2710714638233185,-0.011071932502090931,-0.4092797040939331
1761132220921883600,6.615883544921875,0.30711251497268677,-0.07154759019613266,-0.5216789245605469
1761132220931883500,6.625883544921875,0.35414913296699524,-0.12224940955638885,-0.6120869517326355
1761132220941883600,6.635883544921875,0.40912699699401855,-0.27374398708343506,-0.6896668672561646
1761132220951883500,6.645883544921875,0.46410486102104187,-0.26885706186294556,-0.7446447610855103
1761132220961883600,6.655883544921875,0.5148066878318787,-0.2651918828487396,-0.7922922372817993
1761132220971883500,6.665883544921875,0.5648976564407349,-0.37087157368659973,-0.8796459436416626
1761132220981883600,6.675883544921875,0.6351471543312073,-0.46677741408348083,-0.9468411207199097
1761132220991883500,6.685883544921875,0.6956228017807007,-0.4942663311958313,-0.9822713136672974
1761132221001883600,6.695883544921875,0.7567093372344971,-0.4496731758117676,-1.0109820365905762
1761132221031882800,6.7258828125,1.0016663074493408,-0.48204904794692993,-1.0971139669418335
1761132221041883000,6.7358828125,1.0651962757110596,-0.6201046109199524,-1.1301007270812988
1761132221051882800,6.7458828125,1.0823005437850952,-0.7599927186965942,-1.1325441598892212
1761132221061883000,6.7558828125,1.0468703508377075,-0.7966446280479431,-1.0965031385421753
1761132221071882800,6.7658828125,0.983951210975647,-0.720897376537323,-1.0042624473571777
1761132221081883000,6.7758828125,0.8959866166114807,-0.5712353587150574,-0.8674286603927612
1761132221091882800,6.7858828125,0.802524209022522,-0.3580434024333954,-0.7031059265136719
1761132221101883000,6.7958828125,0.7121161818504333,-0.0996473953127861,-0.5326744914054871
1761132221111883500,6.805883544921875,0.6149885654449463,0.39820778369903564,-0.2993239760398865
1761132221121883600,6.815883544921875,0.6052147150039673,0.6999751925468445,-0.19303341209888458
1761132221131883500,6.825883544921875,0.6443101167678833,0.9595929384231567,-0.10751228034496307
1761132221141883600,6.835883544921875,0.7218900322914124,1.1190288066864014,-0.022602014243602753
1761132221151883500,6.845883544921875,0.8532260060310364,1.1324677467346191,0.05619960278272629
1761132221161883600,6.855883544921875,1.0590876340866089,0.9504299759864807,0.10323622822761536
1761132221171883500,6.865883544921875,1.3297009468078613,0.5203808546066284,0.12828169763088226
1761132221181883600,6.875883544921875,1.6003142595291138,-0.16867516934871674,0.10873401165008545
1761132221191883500,6.885883544921875,1.82877779006958,-0.8852201104164124,0.0757472887635231
1761132221201883600,6.895883544921875,1.9741637706756592,-1.3592514991760254,0.1508837193250656
1761132221211882800,6.9058828125,1.9937114715576172,-1.377577543258667,0.4184426963329315
1761132221221882600,6.915882568359375,1.9142990112304688,-1.0550405979156494,0.8436049222946167
1761132221231882800,6.9258828125,1.733482837677002,-0.5461899042129517,1.3347405195236206
1761132221241882600,6.935882568359375,1.4622586965560913,-0.084375761449337,1.6780468225479126
1761132221251882800,6.9458828125,1.1330022811889648,0.12881620228290558,1.7037031650543213
1761132221261882600,6.955882568359375,0.8391761183738708,0.2790890634059906,1.4850133657455444
1761132221271882800,6.9658828125,0.6382014751434326,0.591241180896759,1.091616153717041
1761132221281882600,6.975882568359375,0.5239696502685547,0.9333257079124451,0.5931501388549805
1761132221291882800,6.9858828125,0.5337435007095337,1.1483503580093384,0.13072516024112701
1761132221301882600,6.995882568359375,0.669355571269989,1.2558625936508179,-0.17043140530586243
1761132221311883500,7.005883544921875,0.8813258409500122,1.3939181566238403,-0.2687807083129883
1761132221321883600,7.015883544921875,1.0572550296783447,1.648648977279663,-0.20586158335208893
1761132221331883500,7.025883544921875,1.106735110282898,1.884442925453186,-0.0354301854968071
1761132221341883600,7.035883544921875,0.8819366693496704,1.998674750328064,0.35246923565864563
1761132221351883500,7.045883544921875,0.650418758392334,1.6449837684631348,0.7409795522689819
1761132221361883600,7.055883544921875,0.4127921760082245,1.0909289121627808,1.2376129627227783
1761132221371883500,7.065883544921875,0.11041389405727386,0.26259568333625793,1.884519338607788
1761132221391883500,7.085883544921875,-0.37827831506729126,-1.5968780517578125,3.1190779209136963
1761132221401883600,7.095883544921875,-0.5187773108482361,-1.5516741275787354,3.428786516189575
1761132221411882800,7.1058828125,-0.5322163701057434,-0.061162881553173065,3.4019086360931396
1761132221421883000,7.1158828125,-0.1736384481191635,0.5264894962310791,2.7036895751953125
1761132221431882800,7.1258828125,0.05604688450694084,0.6773731708526611,1.8784105777740479
1761132221441883000,7.1358828125,0.057879481464624405,0.924162745475769,1.3671164512634277
1761132221451882800,7.1458828125,-0.128434419631958,0.9510408043861389,1.1093312501907349
1761132221461883000,7.1558828125,-0.3721696436405182,0.6810383796691895,1.0134254693984985
1761132221471882800,7.1658828125,-0.622624397277832,0.31146490573883057,1.0299187898635864
1761132221481883000,7.1758828125,-0.9243918061256409,-0.08681922405958176,1.1093312501907349
1761132221491882800,7.1858828125,-1.1644618511199951,-0.35498905181884766,1.1557570695877075
1761132221501883000,7.1958828125,-1.2695306539535522,-0.4234059751033783,1.1068878173828125
1761132221511883500,7.205883544921875,-1.2188289165496826,-0.2853504419326782,0.9676105380058289
1761132221521883600,7.215883544921875,-1.097266674041748,-0.09292787313461304,0.7452555894851685
1761132221531883800,7.2258837890625,-0.9518807530403137,0.06895141303539276,0.5198463201522827
1761132221541883600,7.235883544921875,-0.813825249671936,0.18073976039886475,0.35063666105270386
1761132221551883800,7.2458837890625,-0.7081455588340759,0.2283872365951538,0.24190263450145721
1761132221561883600,7.255883544921875,-0.5865833759307861,0.17585283517837524,0.16798794269561768
1761132221571883800,7.2658837890625,-0.41493022441864014,0.05978843569755554,0.12950342893600464
1761132221581883600,7.275883544921875,-0.2719877362251282,-0.03550654277205467,0.16798794269561768
1761132221591883800,7.2858837890625,-0.09789115190505981,-0.03611740842461586,0.252287358045578
1761132221601883600,7.295883544921875,0.06520986557006836,0.09277515858411789,0.3640756905078888
1761132221611882800,7.3058828125,0.14706580340862274,0.40431642532348633,0.5186246037483215
1761132221621883000,7.3158828125,0.19654589891433716,0.924773633480072,0.7092145681381226
1761132221631883000,7.325883056640625,0.46532660722732544,1.2613604068756104,0.750142514705658
1761132221641883000,7.3358828125,0.8856018781661987,0.8545241355895996,0.485027015209198
1761132221651883000,7.345883056640625,1.2563971281051636,-0.22304217517375946,-0.031154127791523933
1761132221661883000,7.3558828125,1.5202908515930176,-1.4423291683197021,-0.484416127204895
1761132221671882800,7.3658828125,1.640020489692688,-2.4814109802246094,-0.7128797173500061
1761132221681883000,7.3758828125,1.6528486013412476,-3.111212968826294,-0.7757988572120667
1761132221691882800,7.3858828125,1.6180293560028076,-2.985374927520752,-0.8802568316459656
1761132221701883000,7.3958828125,1.553277611732483,-2.215684652328491,-1.2040153741836548
1761132221711883800,7.4058837890625,1.3608551025390625,-1.0599275827407837,-1.6853772401809692
1761132221721883600,7.415883544921875,0.973566472530365,0.25037840008735657,-2.034792184829712
1761132221731883800,7.4258837890625,0.5343543887138367,1.324279546737671,-2.1954495906829834
1761132221741883600,7.435883544921875,0.08231408894062042,2.062204599380493,-2.247373342514038
1761132221751883800,7.4458837890625,-0.422871470451355,2.229581832885742,-2.381152629852295
1761132221761883600,7.455883544921875,-0.7405213713645935,1.8349628448486328,-2.532036542892456
1761132221771883800,7.4658837890625,-0.90728759765625,1.1116983890533447,-2.6334400177001953
1761132221781883600,7.475883544921875,-0.9298896193504333,0.2577087879180908,-2.5277602672576904
1761132221791883800,7.4858837890625,-0.8474228382110596,-0.568791925907135,-2.1795670986175537
1761132221801883600,7.495883544921875,-0.5035057067871094,-1.6445256471633911,-1.415374755859375
1761132221811882800,7.5058828125,-0.3208569586277008,-2.0373120307922363,-0.8576548099517822
1761132221821883000,7.5158828125,-0.20173825323581696,-2.195526123046875,-0.27977627515792847
1761132221831882800,7.5258828125,-0.050854530185461044,-2.0373120307922363,0.2620611786842346
1761132221841883000,7.5358828125,0.08414668589830399,-1.6995034217834473,0.6927211880683899
1761132221851882800,7.5458828125,0.15256360173225403,-1.377577543258667,1.0195341110229492
1761132221861883000,7.5558828125,0.07376197725534439,-1.130787968635559,1.2424999475479126
1761132221871882800,7.5658828125,-0.11133018881082535,-0.9041569232940674,1.3616186380386353
1761132221881883000,7.5758828125,-0.3251330256462097,-0.6653085947036743,1.389107584953308
1761132221891882800,7.5858828125,-0.5309945940971375,-0.4472297132015228,1.3396275043487549
1761132221901883000,7.5958828125,-0.7252497673034668,-0.2719113826751709,1.2400563955307007
1761132221911883500,7.605883544921875,-0.8987354636192322,-0.10636691004037857,1.103833556175232
1761132221921883600,7.615883544921875,-1.0343475341796875,0.05245805159211159,0.9615018963813782
1761132221931883500,7.625883544921875,-1.1412489414215088,0.1776854246854782,0.8326093554496765
1761132221941883600,7.635883544921875,-1.2359330654144287,0.2546544373035431,0.7122688889503479
1761132221951883500,7.645883544921875,-1.3202325105667114,0.2650391459465027,0.5931501388549805
1761132221961883600,7.655883544921875,-1.392925500869751,0.14347697794437408,0.48869219422340393
1761132221971883500,7.665883544921875,-1.4155274629592896,-0.07704538106918335,0.4196644127368927
1761132221981883600,7.675883544921875,-1.3666582107543945,-0.29329168796539307,0.41111230850219727
1761132221991883500,7.685883544921875,-1.2457069158554077,-0.3220023512840271,0.5149593949317932
1761132222001883600,7.695883544921875,-1.1284208297729492,-0.3030655086040497,0.6261368989944458
1761132222011882800,7.7058828125,-0.9873109459877014,-0.2920699417591095,0.7086036801338196
1761132222021883000,7.7158828125,-0.8217664957046509,-0.21998783946037292,0.7935139536857605
1761132222031882800,7.7258828125,-0.5145012736320496,0.038408152759075165,1.0604621171951294
1761132222041883000,7.7358828125,-0.25671613216400146,0.4953353703022003,1.3536773920059204
1761132222051882800,7.7458828125,-0.05696318298578262,0.9278279542922974,1.5723671913146973
1761132222061883000,7.7558828125,0.046273041516542435,1.2418127059936523,1.6090190410614014
1761132222071882800,7.7658828125,0.04505131021142006,1.3389402627944946,1.3720033168792725
1761132222081883000,7.7758828125,-0.08994990587234497,1.1660653352737427,0.788016140460968
1761132222091882800,7.7858828125,-0.2701551616191864,0.763505220413208,-0.1014036312699318
1761132222101883000,7.7958828125,-0.3966042697429657,0.23021984100341797,-1.1105530261993408
1761132222111883800,7.8058837890625,-0.38438695669174194,-0.2981785833835602,-1.974927306175232
1761132222121883600,7.815883544921875,-0.2799290120601654,-0.6744716167449951,-2.436741352081299
1761132222131883800,7.8258837890625,-0.18035796284675598,-0.7832056283950806,-2.451402187347412
1761132222141883600,7.835883544921875,-0.10705413669347763,-0.51992267370224,-2.2742512226104736
1761132222151883800,7.8458837890625,-0.06490442901849747,-0.04283692687749863,-2.1539108753204346
1761132222161883600,7.855883544921875,-0.02886338345706463,0.5228242874145508,-2.121535062789917
1761132222171883800,7.8658837890625,-0.06612616032361984,1.1013137102127075,-2.1679606437683105
1761132222181883600,7.875883544921875,-0.2444988191127777,1.5197563171386719,-2.3658812046051025
1761132222191883800,7.8858837890625,-0.5224425196647644,1.5857298374176025,-2.6975808143615723
1761132222201883600,7.895883544921875,-0.8663596510887146,1.2802971601486206,-3.0616567134857178
1761132222211882800,7.9058828125,-1.1510227918624878,0.7928267121315002,-3.227200984954834
1761132222221883000,7.9158828125,-1.1937834024429321,0.5350415706634521,-3.051882743835449
1761132222231882800,7.9258828125,-1.0319041013717651,0.4599051773548126,-2.6316075325012207
1761132222241883000,7.9358828125,-0.7399105429649353,0.4709007441997528,-2.048841953277588
1761132222251882800,7.9458828125,-0.3972151279449463,0.42936190962791443,-1.3921618461608887
1761132222261883000,7.9558828125,0.09086620807647705,0.1734093725681305,-0.455705463886261
1761132222271882800,7.9658828125,0.375529408454895,-0.0391717329621315,0.06902777403593063
1761132222281883000,7.9758828125,0.6015495657920837,-0.23831380903720856,0.46853363513946533
1761132222291882800,7.9858828125,0.7622070908546448,-0.3733150362968445,0.7684684991836548
1761132222301882600,7.995882568359375,0.8739954233169556,-0.4020256996154785,1.0067058801651
1761132222311883500,8.005883544921875,0.9472993016242981,-0.2865721583366394,1.2247848510742188
1761132222321883600,8.015883544921875,1.0169379711151123,-0.07887797802686691,1.4141530990600586
1761132222331883500,8.025883544921875,1.0658071041107178,0.08544477820396423,1.5497651100158691
1761132222341883400,8.03588330078125,1.0670288801193237,0.17707456648349762,1.6658295392990112
1761132222351883500,8.045883544921875,1.0291552543640137,0.26626089215278625,1.8099937438964844
1761132222361883600,8.055883544921874,0.9558513760566711,0.3291800022125244,1.955379605293274
1761132222371883500,8.065883544921874,0.8239045143127441,0.37132972478866577,2.0231857299804688
1761132222381883600,8.075883544921876,0.660192608833313,0.4153120219707489,2.0732767581939697
1761132222391883500,8.085883544921876,0.49098294973373413,0.3084105849266052,2.0916025638580322
1761132222401883600,8.095883544921875,0.30711251497268677,0.058566704392433167,2.034792184829712
1761132222411882800,8.1058828125,0.13607023656368256,-0.28351783752441406,1.9040669202804565
1761132222421883000,8.1158828125,-0.005039638374000788,-0.5724570751190186,1.7189748287200928
1761132222431882800,8.1258828125,-0.13454307615756989,-0.7685448527336121,1.538158655166626
1761132222441883000,8.1358828125,-0.28787025809288025,-1.1124619245529175,1.235169529914856
1761132222451882800,8.1458828125,-0.42470407485961914,-1.3586406707763672,0.7782423496246338
1761132222461883000,8.1558828125,-0.5542075037956238,-1.270065188407898,0.2431243658065796
1761132222471882800,8.1658828125,-0.6171266436576843,-0.9481391906738281,-0.3445279896259308
1761132222481883000,8.1758828125,-0.5529857873916626,-0.23525947332382202,-0.9443976879119873
1761132222491882800,8.1858828125,-0.5163338780403137,0.37377315759658813,-1.6988162994384766
1761132222501883000,8.1958828125,-0.8547531962394714,-0.7184538841247559,-1.7171422243118286
1761132222511883800,8.2058837890625,-0.898124635219574,0.7745007872581482,-0.44654250144958496
1761132222521883600,8.215883544921875,-0.775340735912323,1.3499358892440796,0.8222246170043945
1761132222531883800,8.2258837890625,-0.8156577944755554,-0.3287218511104584,1.1349875926971436
1761132222541883600,8.235883544921874,-0.9115636348724365,-2.5034022331237793,0.8472700715065002
1761132222551883800,8.2458837890625,-0.8284859657287598,-3.8137080669403076,0.44715335965156555
1761132222561883600,8.255883544921875,-0.6543893814086914,-4.06233024597168,0.1319468915462494
1761132222571883800,8.2658837890625,-0.4363104999065399,-3.499723434448242,-0.006719517521560192
1761132222581883600,8.275883544921875,-0.3355177342891693,-2.421546220779419,-0.14294247329235077
1761132222591883800,8.2858837890625,-0.34345898032188416,-1.2676217555999756,-0.3933972120285034
1761132222601883600,8.295883544921875,-0.4283692538738251,-0.29390254616737366,-0.7141014933586121
1761132222611882800,8.3058828125,-0.5615378618240356,0.40798163414001465,-1.0836749076843262
1761132222621883000,8.3158828125,-0.6983717083930969,0.7066947221755981,-1.4422528743743896
1761132222631883000,8.325883056640626,-0.7478517889976501,0.6737080216407776,-1.6578882932662964
1761132222641883000,8.3358828125,-0.6684392690658569,0.439746618270874,-1.6713273525238037
1761132222651883000,8.345883056640625,-0.46868637204170227,0.18135061860084534,-1.5167783498764038
1761132222661883000,8.3558828125,-0.22128593921661377,0.0970512181520462,-1.2345587015151978
1761132222671883000,8.365883056640625,-0.00015271631127689034,0.15630514919757843,-0.8998045325279236
1761132222681883000,8.3758828125,0.17272214591503143,0.30108019709587097,-0.5375614166259766
1761132222691882800,8.3858828125,0.27840182185173035,0.42325326800346375,-0.14416420459747314
1761132222701883000,8.3958828125,0.3223841190338135,0.48311805725097656,0.2590068578720093
1761132222711883500,8.405883544921876,0.3003929853439331,0.5075526833534241,0.618195652961731
1761132222721883600,8.415883544921876,0.24236078560352325,0.44768786430358887,0.8723155856132507
1761132222731883500,8.425883544921875,0.14340060949325562,0.16424639523029327,1.0042624473571777
1761132222741883600,8.435883544921875,0.11041389405727386,-0.0794888436794281,0.9615018963813782
1761132222751883500,8.445883544921875,0.1189660057425499,-0.2658027410507202,0.8839219808578491
1761132222761883600,8.455883544921875,0.16600263118743896,-0.3232240676879883,0.817337691783905
1761132222771883500,8.465883544921875,0.25213462114334106,-0.19310978055000305,0.807563841342926
1761132222781883600,8.475883544921874,0.3620903789997101,0.14164437353610992,0.8423831462860107
1761132222791883500,8.485883544921874,0.42928555607795715,0.6150649189949036,0.8875871896743774
1761132222801883600,8.495883544921876,0.47021353244781494,1.1489611864089966,0.9327912330627441
1761132222811882800,8.5058828125,0.4812090992927551,1.5661821365356445,0.9724974632263184
1761132222821882600,8.515882568359375,0.4170682430267334,1.645594596862793,0.9804387092590332
1761132222831882800,8.5258828125,0.24174992740154266,1.2063825130462646,0.8894197940826416
1761132222841882600,8.535882568359375,-0.05146539583802223,0.27847820520401,0.6420193910598755
1761132222851882800,8.5458828125,-0.37888917326927185,-0.8504008054733276,0.25961771607398987
1761132222861882600,8.555882568359374,-0.633009135723114,-1.7190511226654053,-0.152105450630188
1761132222871882800,8.5658828125,-0.7985535860061646,-2.0996201038360596,-0.5106833577156067
1761132222881882600,8.575882568359376,-0.8419250249862671,-1.9383517503738403,-0.7312057018280029
1761132222891882800,8.5858828125,-0.7338019013404846,-1.2578479051589966,-0.7819074988365173
1761132222901882600,8.595882568359375,-0.5108360648155212,-0.29390254616737366,-0.7061602473258972
1761132222911883500,8.605883544921875,-0.26710084080696106,0.5643631219863892,-0.5467243790626526
1761132222921883600,8.615883544921875,-0.0832303911447525,0.9754754304885864,-0.35124751925468445
1761132222931883500,8.625883544921875,0.029168816283345222,0.9828058481216431,-0.13744467496871948
1761132222941883600,8.635883544921874,0.04382958263158798,0.6871470212936401,0.06719517707824707
1761132222951883500,8.645883544921874,-0.047800205647945404,0.2650391459465027,0.2730567753314972
1761132222961883600,8.655883544921876,-0.2591595947742462,-0.20777054131031036,0.5540547966957092
1761132222971883500,8.665883544921876,-0.31413745880126953,-0.3665955066680908,0.6536257863044739
1761132222981883600,8.675883544921875,-0.2713768780231476,-0.37026068568229675,0.6670648455619812
1761132222991883500,8.685883544921875,-0.19074267148971558,-0.19982929527759552,0.6096435189247131
1761132223001883600,8.695883544921875,-0.1290452778339386,0.047571130096912384,0.4740314185619354
1761132223011882800,8.7058828125,-0.10033461451530457,0.2833651304244995,0.2620611786842346
1761132223021882600,8.715882568359374,-0.08139779418706894,0.44768786430358887,0.014049900695681572
1761132223031882800,8.7258828125,-0.06918048858642578,0.481896311044693,-0.21135938167572021
1761132223041882600,8.735882568359376,-0.08017606288194656,0.3707188367843628,-0.3781255781650543
1761132223051882800,8.7458828125,-0.11988230794668198,0.15569427609443665,-0.47342056035995483
1761132223061882600,8.755882568359375,-0.17669276893138885,-0.06727153807878494,-0.5119050741195679
1761132223071882800,8.7658828125,-0.23350323736667633,-0.20227275788784027,-0.4996877610683441
1761132223081882600,8.775882568359375,-0.2713768780231476,-0.18761198222637177,-0.4349360466003418
1761132223091882800,8.7858828125,-0.2762638032436371,-0.012293662875890732,-0.35124751925468445
1761132223101882600,8.795882568359374,-0.23289237916469574,0.22716552019119263,-0.2822197377681732
1761132223111883500,8.805883544921874,-0.1644754707813263,0.3908773958683014,-0.22907446324825287
1761132223121883600,8.815883544921874,-0.09789115190505981,0.4861723780632019,-0.18875735998153687
1761132223131883500,8.825883544921876,-0.023365596309304237,0.5118287205696106,-0.12828169763088226
1761132223141883600,8.835883544921876,0.031612277030944824,0.5026657581329346,-0.06719517707824707
1761132223151883500,8.845883544921875,0.06154467165470123,0.48372891545295715,-0.048258353024721146
1761132223161883600,8.855883544921875,0.09514226019382477,0.41103595495224,-0.07024950534105301
1761132223171883500,8.865883544921875,0.12324206531047821,0.2839759886264801,-0.12217304855585098
1761132223181883600,8.875883544921875,0.12568552792072296,0.17707456648349762,-0.06963863968849182
1761132223191883500,8.885883544921874,0.05726861581206322,-0.3470478057861328,0.028099801391363144
1761132223201883600,8.895883544921874,0.13729196786880493,-0.7050148248672485,-0.056810468435287476
1761132223211882800,8.9058828125,0.20387627184391022,-0.8571202754974365,-0.07819075137376785
1761132223221882600,8.915882568359375,0.1647808998823166,-0.8552877306938171,-0.0012217304902151227
1761132223231882800,8.9258828125,0.0377209298312664,-0.6683629155158997,0.1618792861700058
1761132223241882600,8.935882568359375,-0.10216721147298813,-0.43684500455856323,0.34086281061172485
