time,seconds_elapsed,z,y,x
1761132361069464300,0.07846435546875,0.0977550819516182,-0.022412696853280067,0.06259767711162567
1761132361089312300,0.098312255859375,0.0710393637418747,0.0019018829334527254,0.009005165658891201
1761132361109160200,0.11816015625,0.04576130583882332,0.008103788830339909,-0.05330996960401535
1761132361129008400,0.13800830078125,0.02272665686905384,0.0048988014459609985,-0.057076312601566315
1761132361148855300,0.157855224609375,-0.021176202222704887,-0.010981319472193718,-0.04844105988740921
1761132361168703200,0.177703125,-0.06946412473917007,-0.02964138239622116,-0.014683239161968231
1761132361188551200,0.19755126953125,-0.10648979991674423,-0.04866554215550423,0.011627797037363052
1761132361208399400,0.2173994140625,-0.12921056151390076,-0.03946671634912491,-0.00008478481322526932
1761132361228246300,0.237246337890625,-0.13570311665534973,-0.018334852531552315,-0.036419838666915894
1761132361248094200,0.25709423828125,-0.14228002727031708,0.010943634435534477,-0.08871279656887054
1761132361267942100,0.276942138671875,-0.1429058313369751,0.015944039449095726,-0.11900629848241806
1761132361287790300,0.296790283203125,-0.11369054019451141,0.03695520758628845,-0.09801928699016571
1761132361307637200,0.31663720703125,-0.06757098436355591,0.023805363103747368,-0.07147764414548874
1761132361327485400,0.3364853515625,-0.017854496836662292,0.013195469975471497,-0.047259826213121414
1761132361347333000,0.3563330078125,0.030755605548620224,0.0030141514725983143,-0.022301962599158287
1761132361367181300,0.376181396484375,0.06657656282186508,-0.010404077358543873,0.010708476416766644
1761132361387028200,0.3960283203125,0.08813949674367905,-0.02866637147963047,0.03483855351805687
1761132361406876400,0.41587646484375,0.07886340469121933,-0.017018955200910568,0.04174730181694031
1761132361426724000,0.43572412109375,0.05119998753070831,-0.009173249825835228,0.02397140860557556
1761132361446572300,0.455572265625,0.002281296532601118,0.015366505831480026,-0.0019414429552853107
1761132361466419200,0.475419189453125,-0.04257512465119362,0.0338488407433033,-0.02677728421986103
1761132361486267400,0.495267333984375,-0.0790884867310524,0.030301235616207123,-0.03274291008710861
1761132361506115000,0.515114990234375,-0.08447544276714325,0.0022835952695459127,-0.025826729834079742
1761132361525963300,0.53496337890625,-0.07283744215965271,-0.016643449664115906,-0.022583480924367905
1761132361545810200,0.55481005859375,-0.06457118690013885,-0.024433983489871025,-0.019630545750260353
1761132361565658400,0.574658447265625,-0.039319612085819244,-0.030174022540450096,-0.022830937057733536
1761132361585506300,0.59450634765625,-0.007875650189816952,-0.02679171971976757,0.003942497540265322
1761132361605354200,0.614354248046875,0.025499768555164337,-0.02415125072002411,0.025216657668352127
1761132361625201200,0.634201171875,0.04821549728512764,-0.02481180615723133,0.011602329090237617
1761132361645049300,0.65404931640625,0.059187859296798706,-0.010927082039415836,-0.015127453953027725
1761132361664897300,0.673897216796875,0.05855875462293625,-0.0057981545105576515,-0.017418114468455315
1761132361684745200,0.6937451171875,0.060209255665540695,-0.00532617699354887,-0.0008217291906476021
1761132361704592100,0.713592041015625,0.057298000901937485,0.002525195013731718,0.011534297838807106
1761132361724440300,0.7334404296875,0.04027344658970833,0.021767638623714447,0.027035154402256012
1761132361744288300,0.753288330078125,0.03159775212407112,0.0177054014056921,0.012596778571605682
1761132361764136200,0.77313623046875,0.01722698099911213,0.008953895419836044,-0.022023679688572884
1761132361783983000,0.792983154296875,0.004307679366320372,0.00014778180047869682,-0.006125412415713072
1761132361803831300,0.812831298828125,-0.0025651128962635994,-0.003444595728069544,0.009482381865382195
1761132361823679200,0.83267919921875,-0.018000639975070953,0.0004059597849845886,-0.004505363758653402
1761132361843527400,0.85252734375,-0.02165954001247883,0.006906027905642986,-0.0031581930816173553
1761132361863374300,0.872374267578125,-0.016136959195137024,0.004083252511918545,-0.02219780907034874
1761132361883222300,0.89222216796875,-0.00589962862432003,-0.007536049000918865,-0.01701466552913189
1761132361903070200,0.9120703125,-0.0026275140698999166,-0.014979694038629532,-0.010160512290894985
1761132361922918400,0.93191845703125,-0.012251068837940693,0.014008065685629845,-0.01092435885220766
1761132361942765300,0.951765380859375,-0.003100878559052944,0.031819261610507965,-0.0020330320112407207
1761132361962613200,0.97161328125,0.005422995891422033,0.04312632232904434,-0.01132617425173521
1761132361982461200,0.991461181640625,0.018921582028269768,0.02903083711862564,-0.01738283783197403
1761132362002309400,1.011309326171875,0.03813593089580536,0.010569795034825802,-0.004734300542622805
1761132362022156300,1.03115625,0.04249466210603714,0.004337850958108902,0.013252328149974346
1761132362042004200,1.051004150390625,0.03650892898440361,0.002059914404526353,0.023147907108068466
1761132362061851400,1.070851318359375,0.038882505148649216,-0.014968310482800007,0.018322961404919624
1761132362081699600,1.090699462890625,0.02927805483341217,-0.011090974323451519,-0.00033974507823586464
1761132362101546500,1.11054638671875,0.015445034950971603,-0.0047917598858475685,-0.007808919530361891
1761132362121394700,1.130394775390625,0.00005681341281160712,-0.01694224588572979,0.005650842096656561
1761132362141242600,1.15024267578125,-0.005748639348894358,-0.022276785224676132,0.026571230962872505
1761132362161090600,1.170090576171875,-0.013367385603487492,-0.020457560196518898,0.033929139375686646
1761132362180938500,1.1899384765625,-0.00902208499610424,-0.015237675048410892,0.007627658545970917
1761132362200785700,1.20978564453125,-0.014394058845937252,-0.008086662739515305,-0.024338554590940475
1761132362220633600,1.229633544921875,-0.01794016920030117,-0.006449724547564983,-0.03779340162873268
1761132362240481500,1.2494814453125,-0.008400109596550465,-0.015336546115577221,-0.0004961453378200531
1761132362260328400,1.269328369140625,-0.00016640365356579423,-0.017775066196918488,0.03572836518287659
1761132362280176600,1.2891767578125,0.004070885479450226,-0.016020899638533592,0.02562931925058365
1761132362300024600,1.309024658203125,-0.00682954303920269,-0.007755884435027838,-0.007214672397822142
1761132362319872500,1.32887255859375,-0.011120831593871117,0.005028022453188896,-0.012647883966565132
1761132362339719400,1.348719482421875,-0.01324953231960535,0.012934761121869087,-0.003981713205575943
1761132362359567600,1.368567626953125,-0.022416189312934875,0.02115149050951004,0.010254867374897003
1761132362379415600,1.38841552734375,-0.037578895688056946,0.030093319714069366,-0.010758006945252419
1761132362399263700,1.408263671875,-0.043755266815423965,0.025562020018696785,-0.04116854444146156
1761132362419110700,1.428110595703125,-0.03952740132808685,0.01875670999288559,-0.03358751907944679
1761132362438958600,1.44795849609375,-0.035799235105514526,0.02018536627292633,0.00226601492613554
1761132362458806500,1.467806640625,-0.03755778819322586,0.01005895622074604,0.030485913157463074
1761132362478654700,1.48765478515625,-0.03495845943689346,-0.00006889458745718002,0.023338740691542625
1761132362498502400,1.50750244140625,-0.034355662763118744,0.003796166740357876,0.017103668302297592
1761132362518349600,1.527349609375,-0.03401324525475502,0.020854152739048004,-0.0020570168271660805
1761132362538197500,1.547197509765625,-0.036712661385536194,0.0185232050716877,-0.02225315570831299
1761132362558045700,1.567045654296875,-0.024605071172118187,0.006287689320743084,-0.00003587082028388977
1761132362577892600,1.586892578125,-0.0144367516040802,0.0006978935562074184,0.01848272606730461
1761132362597740500,1.606740478515625,-0.004243658855557442,0.012200991623103619,0.02545650489628315
1761132362617588500,1.62658837890625,0.003527628490701318,-0.0008457144722342491,0.024394750595092773
1761132362637436700,1.646436767578125,0.015496836975216866,-0.009187977761030197,0.024981938302516937
1761132362657283600,1.66628369140625,0.01874987967312336,-0.008659002371132374,0.028985481709241867
1761132362677131800,1.6861318359375,0.01854117028415203,-0.0025437059812247753,0.03158894181251526
1761132362696979500,1.7059794921875,0.025164645165205002,0.0038776963483542204,0.016279736533761024
1761132362716827600,1.72582763671875,0.02182750776410103,-0.00973498821258545,-0.005376746412366629
1761132362736675600,1.745675537109375,0.013622000813484192,-0.01316151488572359,-0.005891272332519293
1761132362756522800,1.765522705078125,0.013164028525352478,-0.016029631718993187,0.017600106075406075
1761132362776370400,1.785370361328125,0.0074442229233682156,-0.002299592364579439,0.018407993018627167
1761132362796218600,1.805218505859375,-0.005507444031536579,-0.0003955485299229622,-0.005433205049484968
1761132362816065500,1.8250654296875,-0.020175974816083908,-0.0031294410582631826,-0.017830831930041313
1761132362835913700,1.844913818359375,-0.013832829892635345,-0.013818611390888691,0.0006896625272929668
1761132362855761400,1.864761474609375,0.00023779779439792037,-0.01474604383111,0.012074628844857216
1761132362875609600,1.884609619140625,-0.0008931260672397912,-0.006624926812946796,0.0005441815592348576
1761132362895456500,1.90445654296875,-0.007111689075827599,0.006400351412594318,-0.015174299478530884
1761132362915304700,1.9243046875,-0.0038047977723181248,0.014029824174940586,-0.011816903948783875
1761132362935152600,1.944152587890625,0.008337930776178837,0.019416920840740204,-0.029560530558228493
1761132362955000600,1.96400048828125,0.017183909192681313,0.038276370614767075,-0.06503770500421524
1761132362974847500,1.983847412109375,0.02272483892738819,0.06957831978797913,-0.057281192392110825
1761132362994695700,2.00369580078125,0.030538499355316162,0.03958768770098686,-0.027695273980498314
1761132363014543600,2.023543701171875,0.024910593405365944,-0.0066184792667627335,-0.022881051525473595
1761132363034391600,2.0433916015625,0.04884598031640053,-0.0004168776795268059,0.028242316097021103
1761132363054238500,2.063238525390625,0.04701434075832367,-0.020038101822137833,0.06431318819522858
1761132363074086700,2.083086669921875,0.028205877169966698,-0.010699884966015816,0.031069239601492882
1761132363093934600,2.1029345703125,0.008657281287014484,-0.010271372273564339,-0.006939105689525604
1761132363113782500,2.122782470703125,0.002233221661299467,-0.009791645221412182,-0.022055864334106445
1761132363133629400,2.14262939453125,0.005379291716963053,-0.011559253558516502,-0.0056036473251879215
1761132363153477600,2.1624775390625,0.004845538642257452,-0.019684214144945145,0.014082027599215508
1761132363173325600,2.18232568359375,-0.0038551315665245056,-0.03037945181131363,0.014972899109125137
1761132363193173800,2.202173828125,-0.0033735926263034344,-0.02244473062455654,0.03191593289375305
1761132363213020700,2.222020751953125,-0.0018859230913221836,-0.010766541585326195,0.03291149437427521
1761132363232868600,2.24186865234375,-0.01208348199725151,0.0025309219490736723,0.015147213824093342
1761132363252716500,2.261716552734375,-0.016612039878964424,0.0038126360159367323,-0.009924822486937046
1761132363272564700,2.281564697265625,-0.01241105142980814,-0.006537408102303743,-0.005002529360353947
1761132363292411600,2.30141162109375,-0.004230597987771034,-0.0050604138523340225,0.01595480926334858
1761132363312259300,2.32125927734375,-0.005661259405314922,-0.004610744770616293,0.032700035721063614
1761132363332107500,2.341107421875,0.002896231599152088,-0.004733299370855093,0.032643627375364304
1761132363351955700,2.360955810546875,0.01318417675793171,-0.017134888097643852,0.01332082785665989
1761132363371802600,2.380802734375,0.012926523573696613,-0.01751730963587761,0.0017140144482254982
1761132363391650600,2.400650634765625,0.01321040466427803,-0.020606450736522675,0.00531574385240674
1761132363411498500,2.42049853515625,0.017373962327837944,-0.018145382404327393,0.01595286838710308
1761132363431346700,2.4403466796875,0.006439822725951672,-0.002314221113920212,0.004834970459342003
1761132363451193600,2.460193603515625,-0.000717314425855875,-0.002886367728933692,-0.005852480884641409
1761132363471041500,2.48004150390625,-0.006444372236728668,0.0096089206635952,0.005097127053886652
1761132363490889500,2.499889404296875,-0.005881141405552626,0.005085314624011517,0.021568171679973602
1761132363510737700,2.519737548828125,-0.0081404410302639,0.0017222031019628048,0.017860153689980507
1761132363530584600,2.53958447265625,-0.017062969505786896,0.00041718478314578533,0.009074021130800247
1761132363550432500,2.5594326171875,-0.018255330622196198,0.002471493324264884,0.015619730576872826
1761132363570280400,2.579280517578125,-0.01570099964737892,-0.012815835885703564,0.021172035485506058
1761132363590128600,2.599128662109375,-0.008604108355939388,-0.021750235930085182,0.018587801605463028
1761132363609975600,2.6189755859375,-0.0016054785810410976,-0.025250796228647232,0.00495489314198494
1761132363629823500,2.638823486328125,-0.0037317879032343626,-0.01581159420311451,0.005877939984202385
1761132363649671700,2.658671630859375,-0.002393115544691682,-0.023695582523941994,0.015221546404063702
1761132363669519600,2.67851953125,0.015526622533798218,-0.02908722497522831,0.028028324246406555
1761132363689366500,2.698366455078125,0.022540578618645668,-0.04154243692755699,0.04752885550260544
1761132363709214500,2.71821435546875,0.025837022811174393,-0.037277739495038986,0.038495805114507675
1761132363729062700,2.738062744140625,0.018225742504000664,-0.01885780319571495,0.011534247547388077
1761132363748910600,2.75791064453125,0.01843622513115406,-0.014909918420016766,0.016815710812807083
1761132363768757500,2.777757568359375,0.02700449712574482,-0.01038745604455471,0.01704362966120243
1761132363788605400,2.79760546875,0.02674006298184395,-0.006484504789113998,0.0119805708527565
1761132363808453600,2.81745361328125,0.0232889112085104,-0.022328082472085953,0.0195133239030838
1761132363828301600,2.837301513671875,0.03158063441514969,-0.0328667052090168,0.025860363617539406
1761132363848148500,2.8571484375,0.03342705965042114,-0.03654274344444275,0.025065287947654724
1761132363867996400,2.876996337890625,0.0361509844660759,-0.02704453468322754,0.012015482410788536
1761132363887844600,2.8968447265625,0.02343864180147648,-0.01197304017841816,-0.003095754887908697
1761132363907692500,2.916692626953125,0.012608065269887447,0.006756792776286602,-0.022347234189510345
1761132363927539700,2.936539794921875,0.008334952406585217,0.002086934167891741,-0.0254298634827137
1761132363947387400,2.956387451171875,0.0187942273914814,0.00035746186040341854,-0.02688061259686947
1761132363967235600,2.976235595703125,0.023244140669703484,-0.0016399804735556245,-0.02533063292503357
1761132363987083500,2.99608349609375,0.019156750291585922,0.01246611587703228,-0.04150395840406418
1761132364006930700,3.0159306640625,0.028969110921025276,0.007198195438832045,-0.05960693582892418
1761132364026778400,3.0357783203125,0.021087991073727608,0.017072170972824097,-0.04077846556901932
1761132364046626600,3.05562646484375,0.03025195561349392,0.011769244447350502,-0.0053397067822515965
1761132364066474500,3.075474609375,0.014485565945506096,0.02353794127702713,0.022127749398350716
1761132364086321400,3.0953212890625,0.012852556072175503,0.023233916610479355,0.0065429359674453735
1761132364106169300,3.11516943359375,0.007564753293991089,0.006274344865232706,-0.017516477033495903
1761132364126017500,3.135017578125,0.011225085705518723,-0.016198856756091118,0.0066564553417265415
1761132364145865500,3.154865478515625,0.017346782609820366,-0.023311471566557884,0.024030892178416252
1761132364165712400,3.17471240234375,0.003184329951182008,-0.009161525405943394,0.012780029326677322
1761132364185560600,3.194560546875,-0.0027690136339515448,-0.008528540842235088,0.0009966366924345493
1761132364205408500,3.214408447265625,0.00705189723521471,-0.0025433143600821495,0.006433407310396433
1761132364225256400,3.23425634765625,0.022568771615624428,0.0013058676850050688,0.014028686098754406
1761132364245103400,3.254103271484375,0.023229606449604034,-0.011961845681071281,0.046383775770664215
1761132364264951600,3.27395166015625,0.03143766522407532,-0.036269646137952805,0.05856659263372421
1761132364284799500,3.293799560546875,0.041383296251297,-0.04957108572125435,0.04899246618151665
1761132364304647400,3.3136474609375,0.03360849246382713,-0.027494380250573158,0.022525187581777573
1761132364324494300,3.333494384765625,0.010284079238772392,-0.0016469225520268083,-0.011633893474936485
1761132364344342500,3.353342529296875,-0.007488243281841278,0.022225476801395416,-0.04002145305275917
1761132364364190500,3.3731904296875,-0.015900325030088425,0.03158866986632347,-0.050881337374448776
1761132364384038400,3.393038330078125,-0.015820927917957306,0.023194804787635803,-0.04287741705775261
1761132364403885300,3.41288525390625,-0.00907094869762659,0.018877221271395683,-0.01894020289182663
1761132364423733500,3.4327333984375,0.003988236654549837,0.011692480184137821,0.0019416874274611473
1761132364443581700,3.452581787109375,0.004334088880568743,0.012499306350946426,0.0029157029930502176
1761132364463429400,3.472429443359375,-0.003965950571000576,0.022308887913823128,-0.0014545624144375324
1761132364483276300,3.4922763671875,-0.0044240825809538364,0.04623253270983696,-0.013627150095999241
1761132364503124500,3.51212451171875,-0.0015860176645219326,0.0381401926279068,-0.030646154657006264
1761132364522972700,3.53197265625,0.00666650990024209,0.03541715443134308,-0.03926357999444008
1761132364542820400,3.5518203125,0.013191115111112595,0.02217824198305607,-0.029509054496884346
1761132364562667300,3.571667236328125,0.012010591104626656,0.01309492252767086,-0.02375408262014389
1761132364582515500,3.591515380859375,0.015265872702002525,0.007726754527539015,-0.0027674795128405094
1761132364602363600,3.61136376953125,0.02672143094241619,-0.006421249825507402,0.02576608769595623
1761132364622210600,3.63121044921875,0.04109273478388786,-0.008165518753230572,0.023207487538456917
1761132364642058500,3.65105859375,0.049734435975551605,-0.01001787930727005,0.016514094546437263
1761132364661906400,3.670906494140625,0.06534397602081299,-0.0363897867500782,0.03232721611857414
1761132364681754400,3.69075439453125,0.08321405202150345,-0.04761883243918419,0.03864528238773346
1761132364701601500,3.7106015625,0.06668196618556976,-0.04589647799730301,0.06568130105733871
1761132364721449500,3.730449462890625,0.048237383365631104,-0.046365514397621155,0.07613946497440338
1761132364741297400,3.75029736328125,0.030127936974167824,-0.03132028505206108,0.05893750488758087
1761132364761145300,3.770145263671875,0.020058678463101387,-0.024327998980879784,0.02744213491678238
1761132364780992500,3.789992431640625,0.0008915573707781732,-0.015022202394902706,-0.00594368064776063
1761132364800840400,3.80984033203125,-0.0027456863317638636,-0.015490210615098476,0.012754146009683609
1761132364820688400,3.8296884765625,-0.009371606633067131,0.0026424694806337357,0.020269181579351425
1761132364840536300,3.849536376953125,-0.025436129420995712,0.02078918367624283,-0.0067406753078103065
1761132364860383500,3.869383544921875,-0.022941995412111282,0.02689169906079769,-0.053156159818172455
1761132364880231400,3.8892314453125,-0.013924570754170418,0.004974850453436375,-0.08668908476829529
1761132364900079600,3.90907958984375,0.007313999813050032,-0.007970841601490974,-0.07827359437942505
1761132364919927300,3.92892724609375,-0.0033081183210015297,-0.0011392744490876794,-0.06797578185796738
1761132364939774500,3.9487744140625,-0.009168281219899654,0.00892532616853714,-0.04137244448065758
1761132364959622400,3.968622314453125,-0.007075863424688578,0.011511560529470444,0.006757195573300123
1761132364979470600,3.988470703125,-0.014174587093293667,0.006712216883897781,0.016832657158374786
1761132364999317500,4.0083173828125,-0.023320361971855164,-0.006340487860143185,0.004327984992414713
1761132365019165400,4.02816552734375,-0.031598445028066635,-0.008260006085038185,-0.005989470519125462
1761132365039013400,4.048013427734375,-0.05577624589204788,-0.0051430026069283485,-0.005872364621609449
1761132365058860800,4.06786083984375,-0.07028043270111084,-0.0013964754762127995,-0.0048340195789933205
1761132365078708700,4.087708740234375,-0.0718870684504509,-0.0020369181875139475,-0.014159662649035454
1761132365098556700,4.107556640625,-0.0504334419965744,0.005104081705212593,-0.009398994967341423
1761132365118404600,4.127404541015625,-0.036233410239219666,0.011009296402335167,-0.01349692139774561
1761132365138251800,4.147251708984375,-0.038096725940704346,0.011458276771008968,-0.031307246536016464
1761132365158099700,4.167099609375,-0.023438842967152596,0.0030403982382267714,-0.018866000697016716
1761132365177947600,4.18694775390625,-0.006250592414289713,0.011011642403900623,-0.003516429103910923
1761132365197795600,4.206795654296875,0.0024144507478922606,0.01594979129731655,-0.006849327590316534
1761132365217642800,4.226642822265625,0.006118856370449066,0.009466351009905338,-0.005601570941507816
1761132365237490700,4.24649072265625,0.009977933019399643,-0.0007315308321267366,0.02623409777879715
1761132365257339000,4.2663388671875,0.014553170651197433,-0.004732677713036537,0.04670313000679016
1761132365277186600,4.2861865234375,-0.006070615258067846,0.0009385240264236927,0.042936090379953384
1761132365297033700,4.30603369140625,-0.015619395300745964,0.00941421091556549,0.020850883796811104
1761132365316881700,4.325881591796875,-0.037615951150655746,0.02303505130112171,-0.020917966961860657
1761132365336729900,4.345729736328125,-0.058599747717380524,0.04238448292016983,-0.03574571758508682
1761132365356577500,4.36557763671875,-0.0451773963868618,0.03744733706116676,-0.024272410199046135
1761132365376424700,4.3854248046875,-0.035806141793727875,0.028555773198604584,-0.02503150701522827
1761132365396272600,4.405272705078125,-0.02760203368961811,0.01821768470108509,-0.011454787105321884
1761132365416120800,4.425120849609375,-0.013670775108039379,0.007119814865291119,0.006451829802244902
1761132365435968500,4.444968505859375,-0.0031762525904923677,0.00807536207139492,0.010868171229958534
1761132365455816700,4.464816650390625,0.012054295279085636,0.007633006200194359,0.011671625077724457
1761132365475664600,4.48466455078125,0.029865648597478867,-0.0018431745702400804,0.021051127463579178
1761132365495511800,4.50451171875,0.03538329899311066,0.0009242226369678974,0.014074468985199928
1761132365515359700,4.52435986328125,0.033329688012599945,-0.008775530382990837,0.00914133619517088
1761132365535207700,4.544207763671875,0.04048973321914673,-0.014330344274640083,0.020912816748023033
1761132365555055600,4.5640556640625,0.0461902841925621,-0.010203056037425995,0.0349600724875927
1761132365574902800,4.58390283203125,0.04415217041969299,-0.0032175839878618717,0.010758861899375916
1761132365594750700,4.603750732421875,0.04260088503360748,-0.00020373263396322727,-0.027474598959088326
1761132365614598700,4.6235986328125,0.03439003601670265,-0.0007530623115599155,-0.02768087200820446
1761132365634446600,4.643446533203125,0.03562132641673088,-0.009618885815143585,0.0075096311047673225
1761132365654293800,4.663293701171875,0.03392518684267998,-0.00839360523968935,0.02907518297433853
1761132365674141700,4.6831416015625,0.014774573966860771,-0.003310528350993991,0.017561374232172966
1761132365693989600,4.70298974609375,0.002724569058045745,-0.00009982124902307987,-0.02015005238354206
1761132365713837600,4.722837646484375,-0.013950476422905922,0.01003617700189352,-0.03278832882642746
1761132365733684700,4.742684814453125,-0.01961001567542553,0.008749417029321194,-0.005152318626642227
1761132365753532700,4.76253271484375,-0.02614275924861431,0.010730140842497349,0.01925455778837204
1761132365773380900,4.782380859375,-0.0342489518225193,0.020392483100295067,0.011818120256066322
1761132365793228500,4.802228515625,-0.03230860084295273,0.017766112461686134,0.003991549834609032
1761132365813075700,4.82207568359375,-0.022031432017683983,0.016831036657094955,0.006476352456957102
1761132365832923600,4.841923583984375,0.0067266905680298805,0.016689350828528404,0.014542410150170326
1761132365852771800,4.861771728515625,0.030443742871284485,0.018498893827199936,0.012710671871900558
1761132365872619500,4.88161962890625,0.032742321491241455,0.013994630426168442,0.008171790279448032
1761132365892466700,4.901466796875,0.02969595603644848,-0.008819585666060448,0.01482849009335041
1761132365912314600,4.921314697265625,0.03763822093605995,-0.01331946812570095,0.06446155160665512
1761132365932162800,4.941162841796875,0.043994538486003876,-0.025602024048566818,0.10451631247997284
1761132365952010800,4.9610107421875,0.0026422832161188126,-0.03127296641469002,0.10732635855674744
1761132365971857700,4.980857666015625,-0.020516803488135338,-0.030103348195552826,0.057846229523420334
1761132365991705600,5.00070556640625,-0.02946661412715912,-0.029706668108701706,0.023397905752062798
1761132366011553800,5.0205537109375,-0.029699865728616714,-0.03502969443798065,0.014423057436943054
1761132366031401700,5.040401611328125,-0.03769243136048317,-0.010686689987778664,0.003206914756447077
1761132366051249000,5.060248779296875,-0.03809810057282448,-0.004330323543399572,-0.022601855918765068
1761132366071096600,5.0800966796875,-0.019296815618872643,-0.013513403944671154,-0.061277445405721664
1761132366090944500,5.099944580078125,0.003098786808550358,-0.02173209935426712,-0.09888513386249542
1761132366110792700,5.119792724609375,-0.0016352861421182752,0.015670837834477425,-0.10413289070129395
1761132366130639600,5.1396396484375,0.005234906915575266,-0.011762226931750774,-0.060305725783109665
1761132366150487600,5.159487548828125,0.00044999137753620744,0.009820148348808289,-0.008054967038333416
1761132366170335500,5.17933544921875,-0.0023029304575175047,0.010496716946363449,0.009339272044599056
1761132366190183700,5.19918359375,-0.003905258374288678,0.009941738098859787,-0.0036208508536219597
1761132366210030600,5.219030517578125,-0.008386559784412384,0.010522574186325073,-0.009828413836658001
1761132366229878800,5.238878662109375,-0.009681877680122852,0.003028749953955412,-0.006758372765034437
1761132366249726500,5.2587265625,-0.011568811722099781,-0.005593116395175457,-0.011801020242273808
1761132366269574700,5.27857470703125,-0.016095317900180817,-0.013260291889309883,-0.010403582826256752
1761132366289421600,5.298421630859375,-0.012791313230991364,-0.010474265553057194,0.005936938803642988
1761132366309269800,5.318269775390625,-0.00776005769148469,-0.0035754740238189697,-0.007169878110289574
1761132366329117400,5.338117431640625,-0.0031522002536803484,0.0035044618416577578,-0.022207804024219513
1761132366348965600,5.357965576171875,-0.0069278753362596035,-0.00257085170596838,-0.02886386774480343
1761132366368812500,5.3778125,-0.004444239195436239,-0.006662759464234114,-0.026438068598508835
1761132366388660700,5.39766064453125,-0.0015938300639390945,-0.008505705744028091,-0.002806435339152813
1761132366408508400,5.41750830078125,-0.008315559476613998,-0.006525011733174324,0.013402794487774372
1761132366428356600,5.437356689453125,-0.000425374077167362,-0.002240156987681985,0.006841034162789583
1761132366448203500,5.45720361328125,0.00762438029050827,-0.0030087633058428764,-0.001967397052794695
1761132366468051700,5.4770517578125,0.009589428082108498,0.009067539125680923,-0.010731177404522896
1761132366487899600,5.496899658203125,0.00008875521598383784,0.01838270016014576,-0.01771661639213562
1761132366507747600,5.51674755859375,-0.004552879836410284,0.017448790371418,-0.023321226239204407
1761132366527594500,5.536594482421875,-0.007709555793553591,0.021396754309535027,-0.02459876425564289
1761132366547442400,5.5564423828125,-0.003971877973526716,0.01024576835334301,-0.014181087724864483
1761132366567290600,5.57629052734375,0.00673631252720952,0.006584936752915382,0.005007284227758646
1761132366587137500,5.596137451171875,0.005146825686097145,0.0003133462741971016,0.012393536046147346
1761132366606985500,5.6159853515625,0.0007356808637268841,-0.004160976503044367,0.013740267604589462
1761132366626833400,5.63583349609375,0.008501679636538029,0.004600871354341507,0.010582627728581429
1761132366646681600,5.655681640625,0.008565176278352737,0.0014631489757448435,0.00005302717909216881
1761132366666528500,5.675528564453125,0.018581606447696686,0.008268410339951515,-0.00449098227545619
1761132366686376400,5.69537646484375,0.018833119422197342,0.01566145569086075,-0.00804947316646576
1761132366706224400,5.715224365234375,0.022972948849201202,0.01605301722884178,-0.009698648937046528
1761132366726072600,5.735072509765625,0.031468894332647324,0.009056353941559792,0.008641721680760384
1761132366745919500,5.75491943359375,0.04460443556308746,0.0028204729314893484,0.01212249230593443
1761132366765767700,5.774767578125,0.04353736340999603,-0.0015429300256073475,0.00668046809732914
1761132366785615400,5.794615478515625,0.041445039212703705,-0.006486575119197369,0.013941532000899315
1761132366805463600,5.814463623046875,0.04741869121789932,-0.01616358570754528,0.032296884804964066
1761132366825310500,5.834310546875,0.05598525330424309,0.00764058530330658,0.037345364689826965
1761132366845158700,5.85415869140625,0.02904299832880497,-0.005219263955950737,0.01348402164876461
1761132366865006300,5.87400634765625,0.010174235329031944,0.001365402014926076,0.00926450826227665
1761132366884854500,5.8938544921875,-0.005628025624901056,-0.0031619053333997726,0.02460867539048195
1761132366904701400,5.913701416015625,-0.008497836999595165,-0.006524275057017803,0.013974335975944996
1761132366924549600,5.933549560546875,-0.021296091377735138,-0.008072666823863983,0.007637706119567156
1761132366944397600,5.9533974609375,-0.02193121425807476,-0.004781963769346476,-0.0023166537284851074
1761132366964245500,5.97324560546875,-0.025203142315149307,-0.0021971887908875942,0.00900339800864458
1761132366984092400,5.993092529296875,-0.025970764458179474,-0.00009592738933861256,0.014224962331354618
1761132367003940600,6.012940673828125,-0.01706949807703495,0.021017733961343765,-0.0009661931544542313
1761132367023788500,6.03278857421875,-0.002347736619412899,0.023566391319036484,-0.014660676941275597
1761132367043636500,6.052636474609375,0.013335262425243855,0.02069167234003544,-0.024880455806851387
1761132367063483600,6.072483642578125,0.014216179959475994,0.006273397244513035,-0.008334916085004807
1761132367083331800,6.092331787109375,0.025999492034316063,0.0027339474763721228,0.019829850643873215
1761132367103179800,6.1121796875,0.02373560704290867,0.009270471520721912,0.018444284796714783
1761132367123027700,6.13202783203125,0.011582671664655209,0.007340364158153534,0.009657567366957664
1761132367142874600,6.15187451171875,-0.0008482115808874369,0.012881282716989517,0.0009530740790069103
1761132367162722800,6.171722900390625,-0.006116183008998632,0.01211025845259428,-0.008822783827781677
1761132367182570800,6.19157080078125,-0.010835165157914162,0.0033202965278178453,-0.0021695783361792564
1761132367202418700,6.211418701171875,-0.0195132028311491,-0.0017289872048422694,-0.00836053118109703
1761132367222265600,6.231265625,-0.025813205167651176,-0.008609756827354431,-0.005772543605417013
1761132367242113800,6.25111376953125,-0.02738446369767189,-0.0036017245147377253,-0.010455231182277203
1761132367261961700,6.270961669921875,-0.01869748905301094,0.005777793936431408,-0.007702659349888563
1761132367281810000,6.290809814453125,-0.017092538997530937,0.009308812208473682,0.0008723554201424122
1761132367301656800,6.31065673828125,-0.004960343707352877,0.007557278499007225,-0.009217126294970512
1761132367321504800,6.3305048828125,0.011951273307204247,0.00523753697052598,-0.015784019604325294
1761132367341352700,6.350352783203125,0.025815997272729874,-0.005646163132041693,-0.016503334045410156
1761132367361201000,6.370200927734375,0.031188322231173515,-0.004179628100246191,0.003333143424242735
1761132367381047800,6.3900478515625,0.028992140665650368,-0.0001340897288173437,0.022602880373597145
1761132367400895700,6.409895751953125,0.023809492588043213,0.01081143505871296,0.00857511442154646
1761132367420743700,6.42974365234375,0.025424063205718994,0.0001370424870401621,-0.009347999468445778
1761132367440592000,6.449591796875,0.02645927667617798,-0.024503283202648163,-0.019019588828086853
1761132367460438800,6.469438720703125,0.013935289345681667,-0.03132670000195503,-0.015557652339339256
1761132367480286700,6.48928662109375,-0.013372346758842468,-0.01875530369579792,0.004848314914852381
1761132367500134700,6.509134765625,-0.03313303366303444,-0.012747173197567463,0.011282704770565033
1761132367519982800,6.52898291015625,-0.03451908007264137,-0.002623704494908452,0.0020827739499509335
1761132367539829800,6.548829833984375,-0.03432489559054375,0.01475825347006321,-0.004767994396388531
1761132367559678000,6.568677978515625,-0.03374671936035156,0.014261786825954914,-0.031679823994636536
1761132367579525600,6.588525634765625,-0.033386897295713425,0.02463875338435173,-0.03475676849484444
1761132367599372800,6.608372802734375,-0.024266734719276428,0.027920659631490707,-0.03248113393783569
1761132367619220700,6.628220703125,-0.015719907358288765,0.039568811655044556,-0.027043430134654045
1761132367639069000,6.64806884765625,-0.0036757064517587423,0.03277180716395378,-0.028925340622663498
1761132367658916600,6.66791650390625,0.014382529072463512,0.02477147988975048,-0.011466621421277523
1761132367678764800,6.687764892578125,0.022127101197838783,0.00784040056169033,0.00733219413086772
1761132367698611700,6.70761181640625,0.02864513173699379,-0.008986969478428364,0.02599148638546467
1761132367718460000,6.7274599609375,0.027702834457159042,-0.007611721754074097,0.04467007517814636
1761132367738307800,6.747307861328125,0.022551313042640686,0.0011170238722115755,0.03191655874252319
1761132367758154800,6.76715478515625,0.014144430868327618,0.01900586113333702,-0.027454838156700134
1761132367778002700,6.787002685546875,-0.001974690007045865,0.03571771830320358,-0.07000312209129333
1761132367797851000,6.806850830078125,-0.0053981002420187,0.00731312669813633,-0.1031012013554573
1761132367817698800,6.82669873046875,-0.02122163586318493,0.018156753852963448,-0.08184154331684113
1761132367837546000,6.8465458984375,-0.026168009266257286,0.03157733753323555,-0.025177689269185066
1761132367857393700,6.8663935546875,-0.03134393319487572,0.003917209804058075,0.012565940618515015
1761132367877241900,6.886241943359375,-0.03461053594946861,0.002643587300553918,0.013071426190435886
1761132367897089800,6.90608984375,-0.04094420745968819,0.00670942198485136,-0.015421509742736816
1761132367916937000,6.92593701171875,-0.02859475277364254,0.0009211534634232521,-0.03459065034985542
1761132367936784600,6.94578466796875,-0.021741485223174095,-0.0012166784144937992,-0.02409942075610161
1761132367956632800,6.9656328125,-0.0007497328915633261,-0.009147914126515388,-0.020698457956314087
1761132367976480800,6.985480712890625,0.0164107084274292,-0.013969408348202705,-0.01653403788805008
1761132367996328000,7.005327880859375,0.026518862694501877,-0.02067158930003643,-0.007308946922421455
1761132368016175900,7.02517578125,0.026212891563773155,-0.025777112692594528,0.008848315104842186
1761132368036023800,7.04502392578125,0.028869425877928734,-0.02904491312801838,0.01648814231157303
1761132368055871700,7.064871826171875,0.03472625091671944,-0.02492360770702362,0.007350626867264509
1761132368075719400,7.084719482421875,0.030964156612753868,-0.018639251589775085,-0.004277615807950497
1761132368095567400,7.1045673828125,0.02693256363272667,-0.021337537094950676,-0.010627219453454018
1761132368115415300,7.124415283203125,0.029397226870059967,-0.026318728923797607,0.0005382020026445389
1761132368135263500,7.144263427734375,0.02288912795484066,-0.0201315525919199,0.012531100772321224
1761132368155110400,7.1641103515625,0.011678343638777733,-0.01583973690867424,0.0018218224868178368
1761132368174958600,7.18395849609375,0.0008056500810198486,-0.01038692332804203,-0.00749713322147727
1761132368194806300,7.20380615234375,-0.007250272668898106,-0.014020203612744808,0.0010051070712506771
1761132368214654500,7.223654541015625,-0.0004566717252600938,-0.024099186062812805,0.03203018009662628
1761132368234501400,7.24350146484375,-0.0032681873999536037,-0.017329784110188484,0.04178812354803085
1761132368254349600,7.263349609375,-0.00860370323061943,-0.000693619716912508,0.020676881074905396
1761132368274197200,7.283197265625,-0.010333032347261906,-0.0066756801679730415,0.010228404775261879
1761132368294045400,7.30304541015625,-0.006187499966472387,-0.004085036925971508,0.01613038033246994
1761132368313892400,7.322892333984375,-0.0029283238109201193,0.00037229573354125023,0.019760536029934883
1761132368333740500,7.342740478515625,-0.00054371781880036,0.003875823225826025,0.01648850552737713
1761132368353588200,7.362588134765625,-0.009649625979363918,0.008157760836184025,0.012659132480621338
1761132368373436400,7.3824365234375,-0.006917592138051987,0.008260874077677727,0.018149636685848236
1761132368393283300,7.402283447265625,-0.01598382741212845,0.013312436640262604,0.02835058607161045
1761132368413131500,7.422131591796875,-0.022364061325788498,0.011228011921048164,0.008303813636302948
1761132368432979500,7.4419794921875,-0.02825482003390789,0.01905866153538227,-0.0022386014461517334
1761132368452827400,7.461827392578125,-0.02350367046892643,0.013524411246180534,0.0052521489560604095
1761132368472674300,7.48167431640625,-0.015619001351296902,0.016192419454455376,0.031098097562789917
1761132368492522500,7.5015224609375,-0.013269955292344093,0.011080818250775337,0.029521338641643524
1761132368512370400,7.521370361328125,-0.009089124388992786,0.007438886910676956,0.01788191683590412
1761132368532218400,7.54121826171875,-0.003618155140429735,0.0009454640094190836,0.005594152025878429
1761132368552065300,7.561065185546875,-0.012432980351150036,0.005137051455676556,-0.0025658467784523964
1761132368571913500,7.58091357421875,-0.014165070839226246,0.004781682044267654,-0.0009836470708251
1761132368591761400,7.600761474609375,-0.012259112671017647,-0.0021007824689149857,-0.0013789348304271698
1761132368611609300,7.620609375,-0.010081295855343342,-0.009142506867647171,0.012902293354272842
1761132368631456300,7.640456298828125,-0.011902919970452785,-0.013401705771684647,0.013130402192473412
1761132368651304400,7.660304443359375,-0.014306050725281239,-0.010586589574813843,-0.00636652298271656
1761132368671152400,7.68015234375,-0.012359168380498886,-0.006970438174903393,-0.0036388873122632504
1761132368691000600,7.70000048828125,-0.010995837859809399,-0.0021286788396537304,-0.00479514105245471
1761132368710847500,7.719847412109375,-0.008177625015377998,0.002112060086801648,0.0016474579460918903
1761132368730695400,7.7396953125,0.0027111140079796314,0.0030764599796384573,-0.0064780148677527905
1761132368750543400,7.75954345703125,0.003057772759348154,0.004489446058869362,-0.031231194734573364
1761132368770391600,7.7793916015625,0.006775509100407362,-0.0028999168425798416,-0.033065371215343475
1761132368790238500,7.799238525390625,0.0005832833121530712,-0.005183682776987553,-0.016799338161945343
1761132368810086400,7.81908642578125,0.0026785102672874928,-0.011390678584575653,0.01591547206044197
1761132368829934300,7.838934326171875,0.0034464295022189617,-0.01856216788291931,0.015803998336195946
1761132368849782500,7.858782470703125,0.0011411530431360006,-0.01542394794523716,-0.006453853100538254
1761132368869629400,7.87862939453125,-0.004162460099905729,-0.008945532143115997,-0.020471110939979553
1761132368889477400,7.898477294921875,-0.00597511837258935,-0.01554442010819912,-0.013395651243627071
1761132368909325300,7.9183251953125,-0.006806828547269106,-0.011104613542556763,0.0017761648632586002
1761132368929173500,7.938173583984375,-0.004736654460430145,-0.01116643100976944,0.009249888360500336
1761132368949020400,7.9580205078125,0.00047003530198708177,-0.010043766349554062,0.0031737976241856813
1761132368968868600,7.97786865234375,0.005490836687386036,-0.013692486099898815,0.00183115154504776
1761132368988716300,7.99771630859375,0.0066880127415061,-0.006071498617529869,0.012029889971017838
1761132369008563500,8.0175634765625,0.006230775732547045,-0.005734913982450962,0.011470431461930275
1761132369028411400,8.037411376953125,-0.00427250424399972,-0.007180309388786554,-0.004776450805366039
1761132369048259600,8.057259521484376,-0.01366896741092205,-0.0016903774812817574,-0.009152043610811234
1761132369068106000,8.07710595703125,-0.008086683228611946,0.006348815280944109,0.008723379112780094
1761132369087954000,8.096953857421875,-0.007415527943521738,0.012816399335861206,0.0074075134471058846
1761132369107802000,8.116802001953126,-0.0020892892498522997,0.018769482150673866,-0.013491594232618809
1761132369127650000,8.136650146484374,-0.00023934623459354043,0.006316451355814934,-0.014280872419476509
1761132369147497000,8.1564970703125,0.009071331471204758,-0.0037516290321946144,0.012119043618440628
1761132369167345200,8.17634521484375,0.019699085503816605,-0.010641805827617645,0.031320955604314804
1761132369187193000,8.196193115234376,0.025095682591199875,-0.007538335397839546,0.014833038672804832
1761132369207041000,8.216041015625,0.023290175944566727,0.008897420950233936,-0.011386608704924583
1761132369226888000,8.235887939453125,0.011370676569640636,0.004904147703200579,-0.016439495608210564
1761132369246736100,8.255736083984376,0.015257278457283974,-0.0019431888358667493,0.012922246009111404
1761132369266584000,8.275583984375,0.01272225845605135,-0.009743010625243187,0.014172814786434174
1761132369286432000,8.295431884765625,-0.002571181859821081,-0.009583457373082638,0.008710004389286041
1761132369306279000,8.31527880859375,-0.007166633848100901,-0.014557809568941593,0.012972962111234665
1761132369326127000,8.335127197265624,-0.01664596050977707,-0.005206926725804806,0.007994427345693111
1761132369345975000,8.35497509765625,-0.03095393255352974,0.0009796279482543468,0.008047614246606827
1761132369365823000,8.374822998046875,-0.03182792663574219,0.007699934300035238,0.011416636407375336
1761132369385670000,8.394669921875,-0.02358718030154705,0.0033157693687826395,-0.007359280250966549
1761132369405518000,8.41451806640625,-0.021764256060123444,0.004882638342678547,-0.013087669387459755
1761132369425366300,8.4343662109375,-0.024462057277560234,0.00864213053137064,0.001742532942444086
1761132369445214000,8.4542138671875,-0.015363059937953949,0.009590583853423595,0.012434596195816994
1761132369465062100,8.474062255859375,-0.010223575867712498,0.016992365941405296,0.012240156531333923
1761132369484910000,8.49391015625,-0.005103355273604393,0.026862267404794693,0.000308202113956213
1761132369504757200,8.51375732421875,0.0002773786545731127,0.02667439542710781,-0.009072564542293549
1761132369524605000,8.53360498046875,0.008926931768655777,0.013531764969229698,0.0044942088425159454
1761132369544453000,8.553453125,0.019222334027290344,0.0053789205849170685,0.010698016732931137
1761132369564300000,8.573300048828125,0.026766270399093628,0.007735551334917545,0.011295097880065441
1761132369584148200,8.593148193359376,0.03219228982925415,0.025085272267460823,0.008098122663795948
1761132369603996200,8.61299609375,0.023591039702296257,0.04101060330867767,-0.02038199082016945
1761132369623844000,8.632843994140625,0.02175050973892212,0.04442664235830307,-0.043167851865291595
1761132369643692000,8.652692138671876,0.03087758831679821,0.020970989018678665,-0.04040294885635376
1761132369663539200,8.672539306640624,0.040458858013153076,0.007709589786827564,-0.023533545434474945
1761132369683387100,8.69238720703125,0.044952381402254105,0.0007856753654778004,0.0006931573152542114
1761132369703235000,8.712235107421876,0.046202316880226135,-0.003974407445639372,0.0030843790154904127
1761132369723082000,8.73208203125,0.04408960044384003,0.0034886084031313658,0.006248407531529665
1761132369742930000,8.751929931640625,0.02962769940495491,0.01156723964959383,0.003453056327998638
1761132369762778000,8.771778076171875,0.026371197775006294,0.02705499157309532,0.0009908932261168957
1761132369782626000,8.7916259765625,0.015293218195438385,0.04704338684678078,-0.015850743278861046
1761132369802474000,8.811473876953125,0.006836084183305502,0.048467911779880524,-0.030774565413594246
1761132369822321000,8.83132080078125,0.012230288237333298,0.038672372698783875,-0.02663949318230152
1761132369842169000,8.851169189453126,0.03229277953505516,0.014710487797856331,-0.00211520167067647
1761132369862017300,8.871017333984375,0.031148375943303108,-0.0038113128393888474,0.016573315486311913
1761132369881864200,8.8908642578125,0.02006807178258896,-0.01820964366197586,0.019043080508708954
1761132369901712000,8.9107119140625,0.011851909570395947,-0.02380712516605854,0.01095564290881157
1761132369921560000,8.93056005859375,0.0062230248004198074,-0.017949463799595833,-0.0034310915507376194
1761132369941408300,8.950408203125,0.003316268092021346,-0.004842833615839481,-0.011321820318698883
1761132369961256000,8.970255859375,-0.003233411116525531,0.001562304561957717,-0.015434710308909416
1761132369981102800,8.990102783203126,-0.0000702913966961205,-0.0035825080703943968,-0.030544200912117958
1761132370000951000,9.009950927734375,0.0012753051705658436,-0.007249648682773113,-0.044965580105781555
1761132370020799200,9.02979931640625,0.0018907494377344847,0.00992680061608553,-0.0304398313164711
1761132370040646100,9.049646240234376,0.010663873516023159,0.01993795856833458,-0.012756077572703362
1761132370060493800,9.069493896484374,0.01762181892991066,0.02055339701473713,0.00411143759265542
1761132370080342500,9.089342529296875,0.0170151200145483,0.02813097834587097,0.008630536496639252
1761132370100190500,9.1091904296875,0.026099001988768578,0.013112540356814861,-0.007681281305849552
1761132370120038400,9.129038330078124,0.032376356422901154,0.0036825560964643955,0.0007307026535272598
1761132370139885300,9.14888525390625,0.035743799060583115,-0.008024095557630062,0.022114120423793793
1761132370159733500,9.1687333984375,0.028714768588542938,0.005073920823633671,0.013737119734287262
1761132370179581400,9.18858154296875,0.01412587147206068,0.015384908765554428,-0.0019186357967555523
1761132370199428400,9.208428466796875,0.0010575016494840384,0.0253570768982172,-0.016979802399873734
1761132370219276500,9.228276611328125,-0.01091558113694191,0.02101767621934414,-0.012947726994752884
1761132370239124500,9.24812451171875,-0.01427675224840641,0.009790271520614624,-0.009947462938725948
1761132370258972400,9.267972412109375,-0.015379822812974453,0.004802572540938854,-0.00040809018537402153
1761132370278819300,9.2878193359375,-0.01247253268957138,0.0010031594429165125,-0.004014228470623493
1761132370298667500,9.30766748046875,-0.016932740807533264,0.013322330079972744,0.0008195536211133003
1761132370318515500,9.327515380859374,-0.013284080661833286,0.016279170289635658,0.01218636054545641
1761132370338363400,9.34736328125,-0.010454067029058933,0.021962422877550125,0.004647847730666399
1761132370358210300,9.367210205078125,-0.01784791238605976,0.027970675379037857,-0.01894032582640648
1761132370378058500,9.38705859375,-0.016383428126573563,0.025900471955537796,-0.015559248626232147
1761132370397906400,9.406906494140625,-0.005472863093018532,0.021339470520615578,-0.00793737918138504
1761132370417754400,9.42675439453125,-0.00941725354641676,0.023297784850001335,-0.0077095357701182365
1761132370437601300,9.446601318359376,-0.011353264562785625,0.023277705535292625,-0.016741300001740456
1761132370457449500,9.466449462890624,-0.00332837481983006,0.00940968468785286,-0.005416405852884054
1761132370477297700,9.486297607421875,0.004958700388669968,-0.0009209220297634602,0.009969713166356087
1761132370497145300,9.506145263671876,0.004697665572166443,-0.0038813443388789892,0.01306595467031002
1761132370516992300,9.5259921875,-0.0019628906156867743,-0.0020163669250905514,-0.0018632430583238602
1761132370536840400,9.54584033203125,-0.00966393481940031,-0.005978623405098915,-0.0005589709617197514
1761132370556688600,9.565688720703125,-0.008338159881532192,-0.004216160625219345,0.015036968514323235
1761132370576536300,9.585536376953126,-0.013054782524704933,0.0033796171192079782,0.01805756613612175
1761132370596383200,9.60538330078125,-0.020571108907461166,0.0031004217453300953,0.0013521895743906498
1761132370616231400,9.6252314453125,-0.023055795580148697,-0.007020076736807823,-0.012799899093806744
1761132370636079400,9.645079345703126,-0.021900277584791183,-0.013671549037098885,0.01318635419011116
1761132370655927300,9.66492724609375,-0.01593375951051712,-0.012110630981624126,0.027010750025510788
1761132370675774200,9.684774169921875,-0.01977703347802162,0.010042820125818253,0.001957254484295845
1761132370695622400,9.704622314453125,-0.010370315983891487,0.013485781848430634,-0.03142822906374931
1761132370715470300,9.72447021484375,0.00272125075571239,0.004487758502364159,-0.024649152532219887
1761132370735318500,9.744318603515625,0.012052839621901512,-0.0010166612919420004,0.0011591068468987942
1761132370755165400,9.76416552734375,0.016557322815060616,-0.002474600914865732,0.027738716453313828
1761132370775013400,9.784013427734376,0.0016246559098362923,-0.009455467574298382,0.03250269964337349
1761132370794861300,9.803861328125,0.002998476382344961,-0.004993492737412453,0.01727067306637764
1761132370814709500,9.82370947265625,-0.003936767578125,-0.0050400239415466785,0.016420815140008926
1761132370834556400,9.843556396484376,-0.008299669250845909,-0.017248596996068954,0.033006422221660614
1761132370854404400,9.863404296875,-0.006950689479708672,-0.011059043928980827,0.028369227424263954
1761132370874252300,9.883252197265625,-0.015564816072583199,-0.004253747407346964,0.020430495962500572
1761132370894100500,9.9031005859375,-0.0049016703851521015,-0.0017292835982516408,0.02721114084124565
1761132370913947400,9.922947509765624,-0.005900260526686907,-0.004477375652641058,0.029949817806482315
1761132370933795300,9.94279541015625,0.001912964042276144,0.0023233836982399225,0.00222871545702219
1761132370953643300,9.962643310546875,0.017282472923398018,-0.005713231861591339,-0.04927118867635727
