time,seconds_elapsed,z,y,x
1761131729908285000,0.124284912109375,-0.2062063217163086,0.12893331050872803,-0.2920878529548645
1761131729938285300,0.154285400390625,-0.20484161376953125,0.12124395370483398,-0.29067331552505493
1761131729948285700,0.16428564453125,-0.2043132781982422,0.11827611923217773,-0.2901565432548523
1761131729968286200,0.1842861328125,-0.2045888900756836,0.1204826831817627,-0.2867055833339691
1761131729978286300,0.194286376953125,-0.20438003540039062,0.11966955661773682,-0.2844809591770172
1761131729988286500,0.204286376953125,-0.2039785385131836,0.11789631843566895,-0.281406432390213
1761131729998286600,0.21428662109375,-0.2034931182861328,0.11575019359588623,-0.2777802050113678
1761131730008286700,0.22428662109375,-0.2029399871826172,0.11315059661865234,-0.27452829480171204
1761131730018286800,0.234286865234375,-0.20243453979492188,0.11075830459594727,-0.2717246115207672
1761131730028287000,0.244286865234375,-0.2021484375,0.1094590425491333,-0.26987525820732117
1761131730038287000,0.254287109375,-0.20228004455566406,0.11041021347045898,-0.26881957054138184
1761131730048285200,0.26428515625,-0.20283222198486328,0.11380279064178467,-0.2677587568759918
1761131730058285300,0.274285400390625,-0.203704833984375,0.11910688877105713,-0.26641449332237244
1761131730068285400,0.284285400390625,-0.2045907974243164,0.12432539463043213,-0.26598554849624634
1761131730078285300,0.294285400390625,-0.20528507232666016,0.1283358335494995,-0.2661513388156891
1761131730098285600,0.31428564453125,-0.20618247985839844,0.13365256786346436,-0.26574188470840454
1761131730108285400,0.324285400390625,-0.20636463165283203,0.13520240783691406,-0.2632427215576172
1761131730118285600,0.33428564453125,-0.2063159942626953,0.135703444480896,-0.25923922657966614
1761131730128285700,0.34428564453125,-0.2060565948486328,0.13514935970306396,-0.2543643116950989
1761131730138285600,0.35428564453125,0.09606552124023438,0.09757101535797119,-0.15848729014396667
1761131730148285700,0.36428564453125,0.02719593048095703,0.03794515132904053,-0.047665953636169434
1761131730158285800,0.374285888671875,0.051616668701171875,0.05061221122741699,-0.0375770628452301
1761131730168286000,0.384285888671875,0.08064746856689453,0.052385568618774414,-0.0801127552986145
1761131730178285800,0.394285888671875,0.06882381439208984,0.10069143772125244,-0.13395854830741882
1761131730188286000,0.404285888671875,-0.053061485290527344,0.0887836217880249,-0.12540650367736816
1761131730198286000,0.4142861328125,-0.15083789825439453,0.08770513534545898,-0.14882612228393555
1761131730208286000,0.424285888671875,-0.21027755737304688,0.09614777565002441,-0.21010151505470276
1761131730218286000,0.4342861328125,-0.15487384796142578,0.05031108856201172,-0.20779511332511902
1761131730228286000,0.444285888671875,-0.12350940704345703,0.03649580478668213,-0.23056700825691223
1761131730238286000,0.4542861328125,-0.09939289093017578,0.011301279067993164,-0.18317902088165283
1761131730248285200,0.46428515625,-0.09214305877685547,0.01784348487854004,-0.16715401411056519
1761131730258285300,0.474285400390625,-0.14954853057861328,0.02445685863494873,-0.11305490136146545
1761131730268285200,0.48428515625,-0.2046356201171875,0.04094064235687256,-0.0812334418296814
1761131730278285300,0.494285400390625,-0.2717876434326172,0.055400848388671875,-0.10291808843612671
1761131730288285200,0.50428515625,-0.25769996643066406,0.05162250995635986,-0.11772751808166504
1761131730298285300,0.514285400390625,-0.1767568588256836,-0.015529155731201172,-0.10081523656845093
1761131730308285200,0.52428515625,-0.07926464080810547,0.009796142578125,-0.08552727103233337
1761131730318285300,0.534285400390625,0.008436203002929688,0.031716227531433105,-0.11080154776573181
1761131730328285200,0.54428515625,0.03626537322998047,0.046741366386413574,-0.09976589679718018
1761131730338285300,0.554285400390625,0.047469139099121094,0.0538485050201416,-0.07678747177124023
1761131730348286000,0.564285888671875,0.04927349090576172,0.0529482364654541,-0.10359600186347961
1761131730358286000,0.5742861328125,0.056041717529296875,0.04633736610412598,-0.0655164122581482
1761131730368286000,0.584285888671875,0.05810260772705078,0.07284069061279297,-0.03939419984817505
1761131730378286000,0.5942861328125,0.07688045501708984,0.10914838314056396,-0.08540898561477661
1761131730388286000,0.604285888671875,0.07888317108154297,0.12643849849700928,-0.09558725357055664
1761131730398286000,0.6142861328125,0.05457305908203125,0.14590084552764893,-0.07508909702301025
1761131730418286000,0.6342861328125,0.05193042755126953,0.16018414497375488,-0.025332748889923096
1761131730428286000,0.644285888671875,0.02575969696044922,0.1359044313430786,0.009738922119140625
1761131730438286000,0.6542861328125,-0.007466316223144531,0.13714861869812012,0.030223727226257324
1761131730448285200,0.66428515625,0.011980056762695312,0.12632334232330322,0.03354412317276001
1761131730458285300,0.674285400390625,0.016994476318359375,0.12526607513427734,-0.026092886924743652
1761131730468285200,0.68428515625,0.07937335968017578,0.1342332363128662,-0.01199108362197876
1761131730478285300,0.694285400390625,0.08657550811767578,0.15553879737854004,0.05864816904067993
1761131730488285200,0.70428515625,0.10337257385253906,0.12848973274230957,0.09957373142242432
1761131730498285300,0.714285400390625,0.12981891632080078,0.11031746864318848,0.09191387891769409
1761131730508285200,0.72428515625,0.11563968658447266,0.07476770877838135,0.14369377493858337
1761131730518285300,0.734285400390625,0.08002853393554688,0.06470251083374023,0.18075823783874512
1761131730528285200,0.74428515625,0.06364154815673828,0.07080209255218506,0.11681103706359863
1761131730538285300,0.754285400390625,0.04970264434814453,0.07422089576721191,0.14874085783958435
1761131730548286200,0.7642861328125,0.05734825134277344,0.04376673698425293,0.16120603680610657
1761131730558286000,0.7742861328125,0.060181617736816406,0.005940079689025879,0.19193178415298462
1761131730568286200,0.7842861328125,0.046072959899902344,0.016609668731689453,0.1782756745815277
1761131730578286000,0.7942861328125,0.0031347274780273438,0.025066494941711426,0.173099547624588
1761131730588286000,0.804285888671875,-0.013519287109375,0.050194501876831055,0.10706162452697754
1761131730598286000,0.8142861328125,-0.010952949523925781,0.05591297149658203,0.084469735622406
1761131730608286000,0.824285888671875,-0.025117874145507812,0.032881975173950195,0.1269165277481079
1761131730618286000,0.8342861328125,-0.008172035217285156,0.007463216781616211,0.14283537864685059
1761131730628286000,0.844285888671875,0.003911018371582031,-0.010626435279846191,0.14838716387748718
1761131730638286000,0.8542861328125,0.042176246643066406,-0.01378786563873291,0.12181371450424194
1761131730648285200,0.86428515625,0.10651397705078125,0.01301121711730957,0.13497382402420044
1761131730658285300,0.874285400390625,0.06061267852783203,0.056841492652893066,0.12792956829071045
1761131730668285200,0.88428515625,-0.03301525115966797,0.053980112075805664,0.18250733613967896
1761131730678285300,0.894285400390625,-0.03787040710449219,0.04289102554321289,0.20618274807929993
1761131730688285200,0.90428515625,-0.03545093536376953,0.04837226867675781,0.12305882573127747
1761131730698285300,0.914285400390625,-0.0018148422241210938,0.020188450813293457,0.10089331865310669
1761131730708285200,0.92428515625,0.007912635803222656,0.04465758800506592,0.0576290488243103
1761131730718285300,0.934285400390625,0.020051956176757812,0.02836322784423828,0.0001348257064819336
1761131730728285200,0.94428515625,0.03938770294189453,0.01212620735168457,0.01002955436706543
1761131730738285300,0.954285400390625,0.0970010757446289,0.04158449172973633,0.017588138580322266
1761131730748286000,0.964285888671875,0.1474590301513672,0.04700660705566406,-0.015372157096862793
1761131730758286000,0.9742861328125,0.1404409408569336,0.033185601234436035,-0.044043004512786865
1761131730768286000,0.984285888671875,0.1191396713256836,0.016472578048706055,-0.032059431076049805
1761131730778286000,0.9942861328125,0.12423229217529297,0.03527069091796875,-0.0010685324668884277
1761131730788286000,1.004285888671875,0.11013603210449219,0.04939067363739014,-0.006310701370239258
1761131730798286000,1.0142861328125,0.09362506866455078,0.06116759777069092,-0.06446141004562378
1761131730808286000,1.024285888671875,0.09389114379882812,0.05838906764984131,-0.067818284034729
1761131730818286000,1.0342861328125,0.0463714599609375,0.05508828163146973,-0.08776658773422241
1761131730828286000,1.044285888671875,0.0014009475708007812,0.017592906951904297,-0.07110202312469482
1761131730838286000,1.0542861328125,-0.031414031982421875,0.024709463119506836,-0.039470016956329346
1761131730848285200,1.06428515625,-0.0832977294921875,0.012192249298095703,-0.04611635208129883
1761131730858285000,1.07428515625,-0.06823062896728516,0.08382809162139893,-0.07483094930648804
1761131730868285200,1.08428515625,-0.05576038360595703,0.058280229568481445,-0.08270776271820068
1761131730878285000,1.09428515625,-0.036258697509765625,0.05031263828277588,-0.08608025312423706
1761131730888285200,1.10428515625,0.014116287231445312,0.0770869255065918,-0.05675429105758667
1761131730898285000,1.11428515625,0.0740060806274414,0.07308673858642578,-0.04905444383621216
1761131730908285200,1.12428515625,0.11478424072265625,0.06662321090698242,-0.06000018119812012
1761131730918285000,1.13428515625,0.0863637924194336,0.03747594356536865,-0.05588066577911377
1761131730928285200,1.14428515625,0.08689689636230469,0.028815388679504395,-0.06537479162216187
1761131730938285000,1.15428515625,0.042220115661621094,0.03579366207122803,-0.08765894174575806
1761131730948286000,1.164285888671875,-0.009466171264648438,0.03238546848297119,-0.10697406530380249
1761131730958286000,1.1742861328125,-0.044307708740234375,0.052487850189208984,-0.10463076829910278
1761131730968286000,1.184285888671875,-0.04810905456542969,0.03466796875,-0.10025328397750854
1761131730978286000,1.1942861328125,0.0006265640258789062,0.048856496810913086,-0.11478942632675171
1761131730988286000,1.204285888671875,0.07079219818115234,0.035128116607666016,-0.09780287742614746
1761131730998286000,1.2142861328125,0.10974311828613281,0.017126083374023438,-0.12156152725219727
1761131731008286000,1.224285888671875,0.06493854522705078,0.003674626350402832,-0.1309880018234253
1761131731018286000,1.2342861328125,-0.008477210998535156,0.015903949737548828,-0.13794541358947754
1761131731028285400,1.244285400390625,-0.09372615814208984,-0.013298869132995605,-0.14959478378295898
1761131731038285600,1.25428564453125,-0.11666107177734375,-0.03781306743621826,-0.10055571794509888
1761131731048284700,1.26428466796875,-0.10378170013427734,-0.051964640617370605,-0.079578697681427
1761131731058284800,1.274284912109375,-0.07195472717285156,-0.026650547981262207,-0.12090212106704712
1761131731068284700,1.28428466796875,-0.06662654876708984,-0.005118846893310547,-0.14040905237197876
1761131731078284800,1.294284912109375,-0.10200691223144531,-0.02662479877471924,-0.10482537746429443
1761131731088284700,1.30428466796875,-0.16129493713378906,-0.06273090839385986,-0.05024236440658569
1761131731098284800,1.314284912109375,-0.20143890380859375,-0.04869794845581055,-0.039369404315948486
1761131731108284700,1.32428466796875,-0.20577239990234375,-0.07713139057159424,-0.0259549617767334
1761131731118284800,1.334284912109375,-0.12906265258789062,-0.06283366680145264,0.006646692752838135
1761131731128284700,1.34428466796875,-0.043114662170410156,-0.0540546178817749,-0.05486410856246948
1761131731138284800,1.354284912109375,-0.04349803924560547,-0.05192863941192627,-0.05493241548538208
1761131731148285400,1.364285400390625,0.018342971801757812,-0.049767494201660156,-0.05057138204574585
1761131731158285600,1.37428564453125,0.02046680450439453,-0.09372735023498535,-0.06249016523361206
1761131731168285700,1.38428564453125,-0.03467845916748047,-0.07853686809539795,-0.05170542001724243
1761131731178285600,1.39428564453125,-0.18532466888427734,-0.0764693021774292,-0.05178433656692505
1761131731188285700,1.40428564453125,-0.2640066146850586,-0.03196883201599121,-0.06348329782485962
1761131731198285600,1.41428564453125,-0.3140144348144531,-0.01826322078704834,-0.08714151382446289
1761131731208285700,1.42428564453125,-0.3522815704345703,-0.029710054397583008,-0.10394984483718872
1761131731218285600,1.43428564453125,-0.3286266326904297,-0.04430246353149414,-0.07111144065856934
1761131731228285700,1.44428564453125,-0.23598384857177734,-0.03269016742706299,-0.060575783252716064
1761131731238285600,1.45428564453125,-0.1724710464477539,-0.04051792621612549,-0.026606321334838867
1761131731248284700,1.46428466796875,-0.09959030151367188,-0.02817392349243164,0.011530578136444092
1761131731258284800,1.474284912109375,-0.07709121704101562,-0.06077098846435547,0.0255124568939209
1761131731268284700,1.48428466796875,0.007744789123535156,-0.050452351570129395,0.04033905267715454
1761131731278284800,1.494284912109375,0.09982585906982422,-0.05457580089569092,0.01522815227508545
1761131731288284700,1.50428466796875,0.1728057861328125,-0.034771084785461426,-0.03070962429046631
1761131731298284800,1.514284912109375,0.17171192169189453,-0.03721451759338379,-0.006873607635498047
1761131731308284700,1.52428466796875,0.08940601348876953,-0.03606855869293213,0.05015158653259277
1761131731318284800,1.534284912109375,0.028807640075683594,-0.05047929286956787,0.07762318849563599
1761131731328285200,1.54428515625,0.0018091201782226562,-0.02226710319519043,0.07871675491333008
1761131731338285000,1.55428515625,-0.03716564178466797,0.0012488365173339844,0.03687131404876709
1761131731348286000,1.564285888671875,-0.04990386962890625,0.0373309850692749,0.03330087661743164
1761131731361494300,1.577494384765625,-0.005282402038574219,0.03817117214202881,-0.0012208223342895508
1761131731371494400,1.587494384765625,0.03450965881347656,0.03210043907165527,0.01215130090713501
1761131731381494300,1.597494384765625,0.012063026428222656,0.03070545196533203,0.0947386622428894
1761131731391494400,1.607494384765625,-0.007959365844726562,0.01456451416015625,0.09291476011276245
1761131731401494300,1.617494384765625,-0.049475669860839844,0.03641009330749512,0.0742921233177185
1761131731411494400,1.627494384765625,-0.02633380889892578,0.05355572700500488,0.03695410490036011
1761131731421494300,1.637494384765625,0.054309844970703125,0.08751571178436279,0.03871464729309082
1761131731431494400,1.647494384765625,0.1182413101196289,0.0781785249710083,0.033468425273895264
1761131731441494300,1.657494384765625,0.1319417953491211,0.07558488845825195,0.037347257137298584
1761131731451493400,1.667493408203125,0.07869815826416016,0.06258952617645264,0.07400280237197876
1761131731461493500,1.677493408203125,0.044658660888671875,0.08248007297515869,0.11455807089805603
1761131731471493400,1.687493408203125,0.056107521057128906,0.09982502460479736,0.10678419470787048
1761131731481493500,1.697493408203125,0.13931941986083984,0.13674092292785645,0.03679025173187256
1761131731491493400,1.707493408203125,0.19377613067626953,0.14027535915374756,-0.002109229564666748
1761131731501493500,1.717493408203125,0.2721996307373047,0.14835679531097412,0.023349285125732422
1761131731511493400,1.727493408203125,0.2911338806152344,0.10615956783294678,0.04604381322860718
1761131731521493500,1.737493408203125,0.25043201446533203,0.04854464530944824,0.05281633138656616
1761131731531493400,1.747493408203125,0.18121051788330078,0.05484604835510254,0.05872631072998047
1761131731541493500,1.757493408203125,0.13145160675048828,0.08101844787597656,0.0461428165435791
1761131731551494400,1.767494384765625,0.11290931701660156,0.13793182373046875,-0.023457586765289307
1761131731561494300,1.777494384765625,0.09675979614257812,0.12044870853424072,-0.033718228340148926
1761131731571494400,1.787494384765625,0.08530998229980469,0.09829425811767578,-0.03794676065444946
1761131731581494300,1.797494384765625,0.11214351654052734,0.056949496269226074,0.009955942630767822
1761131731591494400,1.807494384765625,0.10074615478515625,0.0799630880355835,0.029612600803375244
1761131731601494300,1.817494384765625,0.034440040588378906,0.047107577323913574,0.016161978244781494
1761131731611494400,1.827494384765625,-0.017380714416503906,0.0255812406539917,0.019680142402648926
1761131731621494300,1.837494384765625,-0.01412200927734375,0.01610279083251953,0.033148765563964844
1761131731631494400,1.847494384765625,-0.0014133453369140625,-0.004648447036743164,0.0056969523429870605
1761131731641494300,1.857494384765625,0.02306365966796875,-0.02214670181274414,0.005964398384094238
1761131731651493400,1.867493408203125,0.08321762084960938,-0.0027772188186645508,0.03364217281341553
1761131731661493500,1.877493408203125,0.10494518280029297,-0.00913846492767334,0.04187566041946411
1761131731671493400,1.887493408203125,0.08366012573242188,0.010265111923217773,0.05708545446395874
1761131731681493500,1.897493408203125,-0.002086639404296875,-0.0048694610595703125,0.08682942390441895
1761131731691493400,1.907493408203125,-0.06840896606445312,0.014495253562927246,0.11473074555397034
1761131731701493500,1.917493408203125,-0.15610122680664062,-0.03862941265106201,0.11498907208442688
1761131731711493400,1.927493408203125,-0.1456470489501953,-0.045938849449157715,0.1277923882007599
1761131731721493500,1.937493408203125,-0.09713459014892578,-0.06138348579406738,0.08301496505737305
1761131731731493400,1.947493408203125,0.027784347534179688,-0.025272727012634277,0.052699148654937744
1761131731741493500,1.957493408203125,0.0902242660522461,-0.016752958297729492,0.04093247652053833
1761131731751494100,1.967494140625,0.09032058715820312,-0.010409832000732422,0.021025776863098145
1761131731761494300,1.977494384765625,0.08816814422607422,-0.03371846675872803,0.020090162754058838
1761131731771494100,1.987494140625,0.0862112045288086,-0.024485230445861816,0.01484835147857666
1761131731781494300,1.997494384765625,0.053424835205078125,-0.0163804292678833,-0.019819974899291992
1761131731791494400,2.007494384765625,-0.024578094482421875,0.014549732208251953,-0.03878217935562134
1761131731801494300,2.017494384765625,-0.09998226165771484,0.027723193168640137,-0.021350204944610596
1761131731811494400,2.027494384765625,-0.10597705841064453,0.02412247657775879,-0.016342222690582275
1761131731821494300,2.037494384765625,0.009717941284179688,-0.06410396099090576,-0.13827896118164062
1761131731831494400,2.047494384765625,0.0028781890869140625,0.041090965270996094,0.10676616430282593
1761131731841494300,2.057494384765625,-0.15007781982421875,0.1091766357421875,0.09823119640350342
1761131731851493400,2.067493408203125,-0.11869621276855469,0.0008138418197631836,0.017197370529174805
1761131731861493500,2.077493408203125,-0.11864376068115234,0.00020182132720947266,0.016303658485412598
1761131731871493400,2.087493408203125,0.2285747528076172,0.021942853927612305,0.051374852657318115
1761131731881493500,2.097493408203125,0.09972858428955078,0.05848896503448486,0.02009683847427368
1761131731891493400,2.107493408203125,0.011921882629394531,0.0522308349609375,0.02665257453918457
1761131731901493500,2.117493408203125,-0.008759498596191406,0.04778397083282471,0.01857990026473999
1761131731911493400,2.127493408203125,0.011181831359863281,0.017491698265075684,0.00817728042602539
1761131731921493500,2.137493408203125,0.011890411376953125,0.03782236576080322,-0.021697282791137695
1761131731931493400,2.147493408203125,0.014921188354492188,0.022357702255249023,-0.04525178670883179
1761131731941493500,2.157493408203125,0.022687911987304688,-0.004860520362854004,-0.04513359069824219
1761131731951494100,2.167494140625,0.03289508819580078,-0.001005411148071289,-0.0348355770111084
1761131731961494300,2.177494384765625,0.04319572448730469,-0.028440475463867188,0.005217909812927246
1761131731971494100,2.187494140625,0.0009374618530273438,-0.017976760864257812,0.014773964881896973
1761131731981494300,2.197494384765625,-0.036590576171875,-0.007268548011779785,-0.05253404378890991
1761131731991494100,2.207494140625,-0.059912681579589844,0.01367497444152832,-0.0678931474685669
1761131732001494300,2.217494384765625,-0.05464935302734375,0.01360630989074707,-0.07688379287719727
1761131732011494100,2.227494140625,-0.018308639526367188,-0.012583136558532715,-0.10279345512390137
1761131732021494300,2.237494384765625,0.020479202270507812,-0.029204487800598145,-0.07760316133499146
1761131732031494100,2.247494140625,-0.017210006713867188,-0.05345785617828369,-0.025167465209960938
1761131732041494300,2.257494384765625,-0.10505294799804688,-0.030310630798339844,-0.020048797130584717
1761131732051493400,2.267493408203125,-0.17374706268310547,-0.007354021072387695,-0.046691954135894775
1761131732061493500,2.277493408203125,-0.2090921401977539,0.011498093605041504,-0.0477561354637146
1761131732071493400,2.287493408203125,-0.21600341796875,0.01733720302581787,-0.023354947566986084
1761131732081493500,2.297493408203125,-0.1538066864013672,0.0008963346481323242,-0.016108214855194092
1761131732091493400,2.307493408203125,-0.06550884246826172,-0.0021704435348510742,-0.013370335102081299
1761131732101493500,2.317493408203125,0.0155792236328125,-0.057584524154663086,0.03537571430206299
1761131732111493400,2.327493408203125,0.08245658874511719,-0.0583651065826416,0.023054897785186768
1761131732121493500,2.337493408203125,0.10880565643310547,-0.04310464859008789,-0.0005543231964111328
1761131732131493400,2.347493408203125,0.0777883529663086,-0.03554069995880127,-0.0169641375541687
1761131732141493500,2.357493408203125,0.08033275604248047,-0.011717796325683594,-0.04129683971405029
1761131732151494100,2.367494140625,0.06615161895751953,-0.002385258674621582,-0.0534786581993103
1761131732161494300,2.377494384765625,0.06397056579589844,0.00674891471862793,-0.03227365016937256
1761131732171494400,2.387494384765625,0.0593414306640625,-0.0007163286209106445,-0.0018575191497802734
1761131732181494300,2.397494384765625,0.05944252014160156,-0.008028745651245117,0.02567845582962036
1761131732191494400,2.407494384765625,0.028344154357910156,0.001615285873413086,-0.009639263153076172
1761131732201494300,2.417494384765625,-0.0075397491455078125,0.018341541290283203,-0.030848145484924316
1761131732211494000,2.427493896484375,-0.04337787628173828,0.008496761322021484,-0.013673126697540283
1761131732221494000,2.437493896484375,-0.05521106719970703,0.008028626441955566,0.008701443672180176
1761131732231494000,2.447493896484375,-0.06942462921142578,0.019577622413635254,-0.006902456283569336
1761131732241494000,2.457493896484375,-0.05732440948486328,0.028883814811706543,-0.022430837154388428
1761131732251493000,2.4674931640625,-0.0883016586303711,0.01664578914642334,0.012594401836395264
1761131732261493200,2.4774931640625,-0.0690317153930664,-0.012204766273498535,0.006871998310089111
1761131732271493000,2.4874931640625,-0.04508686065673828,0.004925847053527832,-0.020820438861846924
1761131732281493000,2.497492919921875,-0.03809642791748047,0.03248786926269531,0.0011575818061828613
1761131732291493000,2.5074931640625,-0.035927772521972656,0.0433802604675293,0.003711998462677002
1761131732301493200,2.5174931640625,-0.007395744323730469,0.030153632164001465,-0.005785584449768066
1761131732311493000,2.5274931640625,0.0642404556274414,0.06258213520050049,-0.007509768009185791
1761131732321493200,2.5374931640625,0.07847213745117188,0.061290860176086426,-0.05202096700668335
1761131732331493000,2.5474931640625,0.08802986145019531,0.030707478523254395,-0.08197152614593506
1761131732341493000,2.557492919921875,0.10490894317626953,0.04494190216064453,-0.06614303588867188
1761131732351494000,2.567493896484375,0.1195220947265625,0.046533823013305664,-0.05022174119949341
1761131732361494000,2.577493896484375,0.112640380859375,0.05495619773864746,-0.020089268684387207
1761131732371494000,2.587493896484375,0.1968221664428711,-0.04734635353088379,-0.11956340074539185
1761131732381494000,2.597493896484375,0.1326007843017578,0.12066352367401123,-0.027590632438659668
1761131732391494000,2.607493896484375,0.02788066864013672,0.16720032691955566,-0.12408071756362915
1761131732401494000,2.617493896484375,-0.002368927001953125,0.11685824394226074,-0.1504039764404297
1761131732411494000,2.627493896484375,-0.008593559265136719,0.08096516132354736,-0.12504613399505615
1761131732421494000,2.637493896484375,0.025774002075195312,0.07697689533233643,-0.03219127655029297
1761131732431494000,2.647493896484375,0.024000167846679688,0.04757106304168701,-0.05040621757507324
1761131732441494000,2.657493896484375,0.031685829162597656,0.03541386127471924,-0.05470496416091919
1761131732451493000,2.6674931640625,0.048736572265625,0.052811384201049805,-0.07426929473876953
1761131732461493000,2.677492919921875,0.03467369079589844,0.04136252403259277,-0.04372948408126831
1761131732471493000,2.6874931640625,0.039852142333984375,0.024666905403137207,-0.017930209636688232
1761131732481493000,2.697492919921875,0.035541534423828125,0.01704692840576172,-0.0065607428550720215
1761131732491493000,2.7074931640625,0.017006874084472656,-0.012726783752441406,-0.011489689350128174
1761131732501493000,2.717492919921875,-0.02776050567626953,0.00007319450378417969,-0.04988133907318115
1761131732511493400,2.727493408203125,-0.026917457580566406,-0.004564762115478516,-0.050040245056152344
1761131732521493500,2.737493408203125,-0.10744285583496094,-0.01894688606262207,-0.0861014723777771
1761131732531493400,2.747493408203125,-0.13535308837890625,-0.07136094570159912,-0.06720346212387085
1761131732541493500,2.757493408203125,-0.09877872467041016,-0.06788253784179688,-0.022108614444732666
1761131732551494400,2.767494384765625,-0.07677364349365234,-0.10642564296722412,-0.03215891122817993
1761131732561494300,2.777494384765625,-0.016704559326171875,-0.08391070365905762,-0.0520746111869812
1761131732571494400,2.787494384765625,-0.007122039794921875,-0.07961094379425049,-0.06292468309402466
1761131732581494300,2.797494384765625,-0.004889488220214844,-0.11291837692260742,-0.07433456182479858
1761131732591494100,2.807494140625,0.047446250915527344,-0.10953056812286377,-0.06225830316543579
1761131732601494300,2.817494384765625,0.08537769317626953,-0.107993483543396,-0.07797032594680786
1761131732611494100,2.827494140625,0.0635833740234375,-0.13320279121398926,-0.05697298049926758
1761131732621494300,2.837494384765625,-0.034720420837402344,-0.11287474632263184,-0.03906822204589844
1761131732631494100,2.847494140625,-0.034637451171875,-0.11279797554016113,-0.03759557008743286
1761131732641494300,2.857494384765625,-0.21638011932373047,-0.04634582996368408,-0.08625620603561401
1761131732651493400,2.867493408203125,-0.25694847106933594,-0.0012056827545166016,-0.075653076171875
1761131732661493500,2.877493408203125,-0.27619457244873047,0.004073143005371094,-0.03977149724960327
1761131732671493400,2.887493408203125,-0.2383127212524414,-0.013176798820495605,-0.0504184365272522
1761131732681493500,2.897493408203125,-0.12894058227539062,-0.03373861312866211,-0.05723828077316284
1761131732691493400,2.907493408203125,-0.015020370483398438,-0.04805779457092285,-0.07081407308578491
1761131732701493500,2.917493408203125,0.07492542266845703,-0.04748797416687012,-0.11460638046264648
1761131732711493400,2.927493408203125,0.09324169158935547,-0.06202292442321777,-0.04262024164199829
1761131732721493500,2.937493408203125,0.07588577270507812,-0.037216901779174805,0.005278527736663818
1761131732731493400,2.947493408203125,0.0036535263061523438,0.010317444801330566,-0.00957721471786499
1761131732741493500,2.957493408203125,-0.008623123168945312,0.06201672554016113,-0.08448439836502075
1761131732751494100,2.967494140625,-0.0018358230590820312,0.07590806484222412,-0.08754563331604004
1761131732761494300,2.977494384765625,-0.0022840499877929688,0.07813286781311035,-0.088187575340271
1761131732771494100,2.987494140625,0.03560447692871094,0.032395124435424805,-0.04791271686553955
1761131732781494300,2.997494384765625,0.06154441833496094,0.027183055877685547,-0.026922523975372314
1761131732791494100,3.007494140625,0.0683603286743164,0.03865325450897217,-0.03205806016921997
1761131732801494300,3.017494384765625,0.08240890502929688,0.016391396522521973,-0.05378943681716919
1761131732811494400,3.027494384765625,0.08215045928955078,0.017656922340393066,-0.054205119609832764
1761131732821494300,3.037494384765625,0.0986785888671875,0.06891179084777832,-0.009546995162963867
1761131732831494400,3.047494384765625,0.10321426391601562,0.05085575580596924,0.008781492710113525
1761131732841494300,3.057494384765625,0.08379936218261719,0.06627869606018066,0.01012420654296875
1761131732851493400,3.067493408203125,0.03811359405517578,0.03808176517486572,0.027753353118896484
1761131732861493500,3.077493408203125,0.040291786193847656,0.07916200160980225,0.06858986616134644
1761131732871493400,3.087493408203125,0.023284912109375,0.07005143165588379,0.0301513671875
1761131732891493400,3.107493408203125,0.02043914794921875,-0.015576362609863281,0.13249051570892334
1761131732901493500,3.117493408203125,-0.013291358947753906,-0.012968897819519043,0.1800481081008911
1761131732911493400,3.127493408203125,-0.013434410095214844,-0.012993216514587402,0.17774689197540283
1761131732921493500,3.137493408203125,0.03917694091796875,0.03238570690155029,0.07111656665802002
1761131732931493400,3.147493408203125,0.005709648132324219,0.02225959300994873,0.06797611713409424
1761131732941493500,3.157493408203125,0.005839347839355469,0.02114391326904297,0.0644490122795105
1761131732951494100,3.167494140625,0.051384925842285156,-0.0036537647247314453,0.07245242595672607
1761131732961494300,3.177494384765625,0.0536346435546875,-0.0060427188873291016,0.09174048900604248
1761131732971494100,3.187494140625,0.02218914031982422,-0.017375469207763672,0.11716973781585693
1761131732981494300,3.197494384765625,-0.01649188995361328,-0.014311790466308594,0.08200567960739136
1761131732991494100,3.207494140625,0.0023279190063476562,-0.006626486778259277,0.09007173776626587
1761131733001494300,3.217494384765625,-0.0027866363525390625,-0.005991220474243164,0.08663839101791382
1761131733011494100,3.227494140625,-0.005532264709472656,0.018784761428833008,0.09534424543380737
1761131733021494300,3.237494384765625,-0.0035572052001953125,0.015054941177368164,0.07003533840179443
1761131733031494100,3.247494140625,0.0006551742553710938,-0.0094376802444458,0.10432624816894531
1761131733041494300,3.257494384765625,0.028680801391601562,-0.002383112907409668,0.14248621463775635
1761131733051493400,3.267493408203125,0.0231475830078125,-0.02881777286529541,0.16804620623588562
1761131733061493500,3.277493408203125,0.02242279052734375,-0.026682376861572266,0.16224029660224915
1761131733071493400,3.287493408203125,0.0073451995849609375,-0.0247347354888916,0.22786274552345276
1761131733081493500,3.297493408203125,-0.03402900695800781,-0.04232203960418701,0.18993663787841797
1761131733091493400,3.307493408203125,-0.03464317321777344,-0.041170358657836914,0.18275272846221924
1761131733101493500,3.317493408203125,-0.15729045867919922,-0.025543570518493652,0.21302857995033264
1761131733111493400,3.327493408203125,-0.16273212432861328,-0.04540455341339111,0.22585731744766235
1761131733121493200,3.3374931640625,-0.11816120147705078,-0.03764152526855469,0.19724103808403015
1761131733131493400,3.347493408203125,-0.061852455139160156,-0.02153146266937256,0.15367019176483154
1761131733141493200,3.3574931640625,-0.0009145736694335938,-0.03331422805786133,0.15283966064453125
1761131733151494100,3.367494140625,-0.0022563934326171875,-0.028124690055847168,0.1447993516921997
1761131733161494300,3.377494384765625,0.02279186248779297,-0.06384527683258057,0.1799638569355011
1761131733171494100,3.387494140625,0.021581649780273438,-0.059247612953186035,0.1720951497554779
1761131733181494300,3.397494384765625,-0.025112152099609375,-0.08097290992736816,0.19534334540367126
1761131733191494100,3.407494140625,-0.033537864685058594,-0.054435133934020996,0.1494865119457245
1761131733201494300,3.417494384765625,0.017894744873046875,-0.006168365478515625,0.07309848070144653
1761131733211494100,3.427494140625,0.04540443420410156,-0.015236258506774902,0.04769107699394226
1761131733221494300,3.437494384765625,0.0466461181640625,-0.012605786323547363,0.08242970705032349
1761131733231494100,3.447494140625,-0.021482467651367188,-0.015161514282226562,0.13840755820274353
1761131733241494300,3.457494384765625,-0.11822986602783203,0.03434276580810547,0.1369178295135498
1761131733251493400,3.467493408203125,-0.1311807632446289,0.07434356212615967,0.09965294599533081
1761131733261493500,3.477493408203125,-0.13230419158935547,0.07941234111785889,0.09394976496696472
1761131733271493400,3.487493408203125,-0.02827167510986328,0.11442708969116211,0.00232580304145813
1761131733281493500,3.497493408203125,0.061280250549316406,0.09271490573883057,-0.017401784658432007
1761131733291493400,3.507493408203125,0.08628368377685547,0.0490872859954834,0.00654834508895874
1761131733301493500,3.517493408203125,0.12588787078857422,0.00914919376373291,0.014703214168548584
1761131733311493400,3.527493408203125,0.13947010040283203,0.015746235847473145,0.008141875267028809
1761131733321493500,3.537493408203125,0.09109306335449219,0.05698370933532715,-0.023006409406661987
1761131733331493400,3.547493408203125,0.018973350524902344,0.08043479919433594,-0.05831199884414673
1761131733341493500,3.557493408203125,0.01875591278076172,0.08182883262634277,-0.05794486403465271
1761131733351494400,3.567494384765625,-0.01744556427001953,0.09542524814605713,-0.1851881742477417
1761131733361494300,3.577494384765625,0.022849082946777344,0.10742485523223877,-0.1708880066871643
1761131733371494400,3.587494384765625,0.022383689880371094,0.11020791530609131,-0.17093420028686523
1761131733381494300,3.597494384765625,0.14397144317626953,0.07974851131439209,-0.14473667740821838
1761131733391494400,3.607494384765625,0.11958694458007812,0.03932762145996094,-0.1279265582561493
1761131733401494300,3.617494384765625,0.06904315948486328,0.06741046905517578,-0.11299878358840942
1761131733411494400,3.627494384765625,0.030655860900878906,0.046573519706726074,-0.12645787000656128
1761131733421494300,3.637494384765625,0.00673675537109375,0.07076168060302734,-0.1680431067943573
1761131733431494400,3.647494384765625,-0.0027456283569335938,0.0610884428024292,-0.1877303421497345
1761131733441494300,3.657494384765625,-0.0051670074462890625,0.04247748851776123,-0.14556896686553955
1761131733451493400,3.667493408203125,-0.005245208740234375,0.04335522651672363,-0.14398488402366638
1761131733461493500,3.677493408203125,0.032898902893066406,0.032677412033081055,-0.11405676603317261
1761131733471493400,3.687493408203125,0.013543128967285156,0.034130215644836426,-0.10838553309440613
1761131733481493500,3.697493408203125,-0.0009555816650390625,0.05190563201904297,-0.09084096550941467
1761131733491493400,3.707493408203125,-0.00342559814453125,0.03101968765258789,-0.09723204374313354
1761131733501493500,3.717493408203125,0.027667999267578125,0.03153789043426514,-0.060038745403289795
1761131733511493400,3.727493408203125,0.03482532501220703,0.036896586418151855,-0.08002179861068726
1761131733521493500,3.737493408203125,0.08505439758300781,0.056769609451293945,-0.13107925653457642
1761131733531460000,3.747460205078125,0.10414600372314453,0.055255770683288574,-0.1363821029663086
1761131733541426700,3.7574267578125,0.1209096908569336,0.0509723424911499,-0.19424861669540405
1761131733551394300,3.767394287109375,0.06604194641113281,0.072090744972229,-0.17217913269996643
1761131733561361000,3.77736083984375,0.011455535888671875,0.08449184894561768,-0.19980177283287048
1761131733571327500,3.787327392578125,-0.0333404541015625,0.12460243701934814,-0.21210631728172302
1761131733581294300,3.79729443359375,-0.0780324935913086,0.10923433303833008,-0.25243616104125977
1761131733591261000,3.807260986328125,-0.04132843017578125,0.12273001670837402,-0.2709520757198334
1761131733601227500,3.8172275390625,-0.011868476867675781,0.1080174446105957,-0.2219771146774292
1761131733611194000,3.827194091796875,0.012674331665039062,0.07965052127838135,-0.15895861387252808
1761131733621161000,3.837160888671875,0.058563232421875,0.05934929847717285,-0.16178300976753235
1761131733631127600,3.84712744140625,0.1450824737548828,0.07294154167175293,-0.16006287932395935
1761131733641094100,3.85709423828125,0.21487903594970703,0.08407068252563477,-0.1338823139667511
1761131733651060000,3.86706005859375,0.2250041961669922,0.0871126651763916,-0.13343945145606995
1761131733661026800,3.87702685546875,0.18750286102294922,0.10069751739501953,-0.1422729790210724
1761131733670993400,3.886993408203125,0.12154865264892578,0.11277103424072266,-0.1507357656955719
1761131733680960000,3.8969599609375,0.06775283813476562,0.08787429332733154,-0.1136421263217926
1761131733690926600,3.906926513671875,0.06669998168945312,0.03851783275604248,-0.1775621473789215
1761131733700893400,3.9168935546875,0.1541919708251953,0.04220724105834961,-0.16937464475631714
1761131733710860000,3.926860107421875,0.2128896713256836,0.0032082796096801758,-0.13007420301437378
1761131733720826600,3.93682666015625,0.17339134216308594,0.023966550827026367,-0.08470821380615234
1761131733730793200,3.946793212890625,0.09573841094970703,0.005261778831481934,-0.05461674928665161
1761131733740760000,3.956760009765625,0.049343109130859375,0.028707146644592285,-0.04435080289840698
1761131733750727400,3.9667275390625,-0.03290367126464844,0.03750932216644287,-0.09386593103408813
1761131733760694300,3.9766943359375,-0.0911417007446289,0.031710147857666016,-0.05922764539718628
1761131733770660900,3.986660888671875,-0.11349105834960938,-0.005082130432128906,-0.015204668045043945
1761131733780627500,3.99662744140625,-0.10717487335205078,-0.012689948081970215,0.0528755784034729
1761131733790594300,4.00659423828125,-0.0819101333618164,-0.028798818588256836,0.043968379497528076
1761131733800561000,4.016560791015625,-0.056838035583496094,-0.01283276081085205,0.0656469464302063
1761131733810527500,4.026527587890625,-0.034308433532714844,0.010908722877502441,0.0577542781829834
1761131733820494300,4.036494384765625,-0.038170814514160156,0.0012341737747192383,0.07788583636283875
1761131733830494200,4.046494140625,-0.06599903106689453,0.0035262107849121094,0.13345232605934143
1761131733840494300,4.056494384765625,-0.033989906311035156,-0.022794246673583984,0.19383743405342102
1761131733850493400,4.066493408203125,-0.0020055770874023438,-0.04167735576629639,0.16593116521835327
1761131733860493300,4.076493408203125,0.027544021606445312,-0.029009222984313965,0.1362362802028656
1761131733870493400,4.086493408203125,0.07143974304199219,-0.06642472743988037,0.12596279382705688
1761131733880493300,4.096493408203125,0.06980705261230469,-0.0678478479385376,0.10086968541145325
1761131733890493400,4.106493408203125,0.06815624237060547,-0.07885897159576416,0.1256614327430725
1761131733900493300,4.116493408203125,0.07599544525146484,-0.0847635269165039,0.11880296468734741
1761131733910493400,4.126493408203125,0.10766792297363281,-0.08054471015930176,0.1261184811592102
1761131733920493300,4.136493408203125,0.0937967300415039,-0.08321559429168701,0.12382805347442627
1761131733930493400,4.146493408203125,0.08235931396484375,-0.07892537117004395,0.09997633099555969
1761131733940493300,4.156493408203125,-0.0032186508178710938,-0.09176480770111084,0.09787115454673767
1761131733950494200,4.166494140625,-0.052783966064453125,-0.1195065975189209,0.10052159428596497
1761131733960494300,4.176494384765625,-0.11194896697998047,-0.13258183002471924,0.10614022612571716
1761131733970494200,4.186494140625,-0.14012432098388672,-0.13055741786956787,0.09495881199836731
1761131733980494300,4.196494384765625,-0.15895557403564453,-0.10345840454101562,0.10010024905204773
1761131733990494200,4.206494140625,-0.13722991943359375,-0.09955453872680664,0.04530763626098633
1761131734000494300,4.216494384765625,-0.16347026824951172,-0.07602274417877197,0.00016254186630249023
1761131734010494200,4.226494140625,-0.18970012664794922,-0.05722033977508545,-0.027859151363372803
1761131734020494300,4.236494384765625,-0.24692153930664062,-0.06053459644317627,0.02602529525756836
1761131734040494300,4.256494384765625,-0.2680788040161133,-0.07119584083557129,0.06281161308288574
1761131734050493400,4.266493408203125,-0.23462963104248047,-0.04864490032196045,0.02170121669769287
1761131734060493300,4.276493408203125,-0.15587711334228516,-0.02500593662261963,0.0263139009475708
1761131734070493400,4.286493408203125,-0.08212852478027344,0.011725664138793945,-0.005142092704772949
1761131734080493300,4.296493408203125,-0.08276939392089844,0.01573801040649414,-0.0034783482551574707
1761131734090493400,4.306493408203125,0.0027112960815429688,0.03431141376495361,0.00953054428100586
1761131734100493300,4.316493408203125,0.018743515014648438,0.021713614463806152,0.019690990447998047
1761131734110493400,4.326493408203125,0.017932891845703125,0.026244521141052246,0.01999080181121826
1761131734120493300,4.336493408203125,0.2708005905151367,0.024209260940551758,0.06583553552627563
1761131734130493400,4.346493408203125,0.2698354721069336,0.029737353324890137,0.06648856401443481
1761131734140493300,4.356493408203125,0.3264789581298828,0.024947047233581543,0.03380078077316284
1761131734150494200,4.366494140625,0.2470226287841797,0.010965466499328613,0.044295549392700195
1761131734160494300,4.376494384765625,0.15362930297851562,-0.012461543083190918,0.009591162204742432
1761131734170494200,4.386494140625,0.15397930145263672,-0.013664484024047852,0.01181715726852417
1761131734180494300,4.396494384765625,0.0373687744140625,-0.038115739822387695,-0.006703555583953857
1761131734190494200,4.406494140625,-0.19898700714111328,-0.03362905979156494,-0.11143982410430908
1761131734200494300,4.416494384765625,-0.24164676666259766,-0.03282582759857178,-0.1616770625114441
1761131734210494200,4.426494140625,-0.22002315521240234,-0.025469660758972168,-0.2532960772514343
1761131734220494300,4.436494384765625,-0.155517578125,0.011918902397155762,-0.33735191822052
1761131734230494200,4.446494140625,-0.1461353302001953,0.023478031158447266,-0.36100858449935913
1761131734240494300,4.456494384765625,-0.1846475601196289,-0.017705917358398438,-0.43054401874542236
1761131734250493400,4.466493408203125,-0.3836212158203125,-0.003870844841003418,-0.3741624355316162
1761131734260493600,4.47649365234375,-0.38391971588134766,-0.0031082630157470703,-0.3767576813697815
1761131734270493400,4.486493408203125,-0.8394203186035156,0.03007638454437256,-0.2631964087486267
1761131734280493300,4.496493408203125,-0.704533576965332,-0.02029871940612793,-0.15094071626663208
1761131734290493400,4.506493408203125,-0.4153604507446289,-0.04679310321807861,0.08695507049560547
1761131734300493300,4.516493408203125,-0.15863704681396484,-0.0071800947189331055,0.2128930687904358
1761131734310493400,4.526493408203125,0.06384086608886719,0.03567612171173096,0.3062678575515747
1761131734320493300,4.536493408203125,0.18795299530029297,0.05537545680999756,0.30830562114715576
1761131734340493600,4.55649365234375,0.3005638122558594,-0.017524242401123047,0.43817150592803955
1761131734350494200,4.566494140625,0.34195613861083984,-0.048632264137268066,0.5488842725753784
1761131734360494300,4.576494384765625,0.4125223159790039,-0.024219274520874023,0.5769643783569336
1761131734370494200,4.586494140625,0.4954071044921875,-0.016824007034301758,0.48581209778785706
1761131734380494300,4.596494384765625,0.5166091918945312,0.03615522384643555,0.3980875313282013
1761131734390494200,4.606494140625,0.44260120391845703,0.062329769134521484,0.3264461159706116
1761131734400494300,4.616494384765625,0.35225963592529297,0.07866954803466797,0.29292118549346924
1761131734410494200,4.626494140625,0.2910118103027344,0.03537404537200928,0.32428187131881714
1761131734420494300,4.636494384765625,0.3067045211791992,0.002637624740600586,0.33637911081314087
1761131734430494200,4.646494140625,0.43270301818847656,-0.01371157169342041,0.24807079136371613
1761131734440494300,4.656494384765625,0.5254554748535156,0.007361173629760742,0.11024042963981628
1761131734450493400,4.666493408203125,0.5371818542480469,0.00023639202117919922,0.019943147897720337
1761131734460493600,4.67649365234375,0.42010498046875,0.004524350166320801,0.009344398975372314
1761131734470493400,4.686493408203125,0.2172985076904297,-0.04445493221282959,0.06096735596656799
1761131734480493600,4.69649365234375,0.05788230895996094,-0.08337748050689697,0.10769334435462952
1761131734490493400,4.706493408203125,0.0469512939453125,-0.06502950191497803,0.09961313009262085
1761131734500493600,4.71649365234375,0.12685871124267578,-0.05039381980895996,-0.006148219108581543
1761131734510493400,4.726493408203125,0.16828060150146484,-0.048941612243652344,-0.05679678916931152
1761131734520493600,4.73649365234375,0.18324851989746094,-0.059066176414489746,-0.05129310488700867
1761131734530493400,4.746493408203125,0.07375431060791016,-0.09615683555603027,0.03185492753982544
1761131734540493600,4.75649365234375,-0.06670475006103516,-0.13937926292419434,0.10661286115646362
1761131734550494200,4.766494140625,-0.1160421371459961,-0.12368214130401611,0.10940811038017273
1761131734560494300,4.776494384765625,-0.1437854766845703,-0.09840655326843262,0.11552730202674866
1761131734570494200,4.786494140625,-0.11174201965332031,-0.08691966533660889,0.050224125385284424
1761131734580494300,4.796494384765625,-0.11098766326904297,-0.05767512321472168,0.011074841022491455
1761131734590494200,4.806494140625,-0.1702404022216797,-0.08283388614654541,0.0331648588180542
1761131734600494300,4.816494384765625,-0.25348377227783203,-0.08402359485626221,0.06145322322845459
1761131734610494200,4.826494140625,-0.2673625946044922,-0.09705531597137451,0.10547646880149841
1761131734620494300,4.836494384765625,-0.18328857421875,-0.07785236835479736,0.07460063695907593
1761131734630494200,4.846494140625,-0.03509521484375,-0.043673157691955566,0.033248573541641235
1761131734640494000,4.856494140625,0.1343545913696289,-0.019683480262756348,-0.03219181299209595
1761131734650493400,4.866493408203125,0.25817108154296875,-0.035774827003479004,-0.055527836084365845
1761131734660493300,4.876493408203125,0.2983427047729492,0.01176464557647705,-0.06958088278770447
1761131734670493400,4.886493408203125,0.22631549835205078,-0.0050737857818603516,-0.03607320785522461
1761131734680493300,4.896493408203125,0.08045768737792969,0.021197795867919922,-0.004829525947570801
1761131734690493400,4.906493408203125,-0.024393081665039062,0.05299520492553711,-0.0302160382270813
1761131734700493300,4.916493408203125,-0.038116455078125,0.06510484218597412,-0.025527000427246094
1761131734710493200,4.9264931640625,-0.0016078948974609375,0.05392777919769287,-0.0625748336315155
1761131734720493300,4.936493408203125,0.0037078857421875,0.07450330257415771,-0.11566963791847229
1761131734730493200,4.9464931640625,-0.00537872314453125,0.07610702514648438,-0.13302922248840332
1761131734740493300,4.956493408203125,-0.04082775115966797,0.07049286365509033,-0.14641505479812622
1761131734750494200,4.966494140625,-0.08349895477294922,0.07217943668365479,-0.11000674962997437
1761131734760494000,4.976494140625,-0.07592582702636719,0.026126384735107422,-0.04992485046386719
1761131734770494200,4.986494140625,-0.020582199096679688,0.014332294464111328,-0.04478016495704651
1761131734780494000,4.996494140625,0.07535076141357422,0.029709219932556152,-0.03185993432998657
1761131734790494200,5.006494140625,0.12574291229248047,0.016848206520080566,0.01526746153831482
1761131734800494000,5.016494140625,0.16181182861328125,0.013251304626464844,0.03344827890396118
1761131734810494200,5.026494140625,0.12138080596923828,-0.010257482528686523,0.02503374218940735
1761131734820494000,5.036494140625,-0.0026235580444335938,-0.03991043567657471,0.04054540395736694
1761131734830494200,5.046494140625,-0.14557552337646484,-0.04685389995574951,0.0034473538398742676
1761131734840494000,5.056494140625,-0.19982528686523438,-0.047234535217285156,-0.011843860149383545
1761131734850493400,5.066493408203125,-0.23974037170410156,-0.04488980770111084,0.009323179721832275
1761131734860493300,5.076493408203125,-0.22710037231445312,-0.07282125949859619,0.0573427677154541
1761131734870493400,5.086493408203125,-0.21938037872314453,-0.12144637107849121,0.07921656966209412
1761131734880493300,5.096493408203125,-0.1736288070678711,-0.09670650959014893,0.07671931385993958
1761131734890493400,5.106493408203125,-0.11619853973388672,-0.07274413108825684,0.028177380561828613
1761131734900493300,5.116493408203125,-0.047019004821777344,-0.04999732971191406,0.005371540784835815
1761131734910493400,5.126493408203125,-0.04740715026855469,-0.048174262046813965,0.0033212602138519287
1761131734920493300,5.136493408203125,0.031244277954101562,-0.07764959335327148,0.022869884967803955
1761131734930493400,5.146493408203125,0.04774761199951172,-0.12908875942230225,0.03118884563446045
1761131734940493300,5.156493408203125,0.0428314208984375,-0.09723031520843506,0.026264935731887817
1761131734950494200,5.166494140625,0.018912315368652344,-0.06599903106689453,-0.037389665842056274
1761131734960494300,5.176494384765625,-0.024094581604003906,-0.00634455680847168,-0.08150005340576172
1761131734970494200,5.186494140625,-0.10060405731201172,0.0004019737243652344,-0.059173375368118286
1761131734980494300,5.196494384765625,-0.14376544952392578,0.012552976608276367,-0.0313321053981781
1761131734990494200,5.206494140625,-0.0746755599975586,0.030868172645568848,0.007328897714614868
1761131735000494300,5.216494384765625,-0.008263587951660156,0.026830077171325684,0.04069545865058899
1761131735010494200,5.226494140625,0.043674468994140625,0.057039618492126465,0.00006091594696044922
1761131735020494300,5.236494384765625,0.10048580169677734,0.015128612518310547,-0.03969356417655945
1761131735030494200,5.246494140625,0.11676406860351562,0.010701417922973633,-0.033133864402770996
1761131735040494300,5.256494384765625,0.13084888458251953,0.0029410123825073242,-0.003967225551605225
1761131735050493400,5.266493408203125,0.11871337890625,-0.01731586456298828,-0.014750480651855469
1761131735060493300,5.276493408203125,0.09232616424560547,0.019239187240600586,-0.010968267917633057
1761131735070493400,5.286493408203125,0.018166542053222656,0.06945443153381348,-0.03367215394973755
1761131735080493300,5.296493408203125,-0.024793624877929688,0.040160417556762695,-0.09008842706680298
1761131735090493400,5.306493408203125,-0.04375267028808594,0.058356404304504395,-0.09395605325698853
1761131735100493300,5.316493408203125,-0.019674301147460938,0.040982961654663086,-0.08111482858657837
1761131735110493400,5.326493408203125,0.013874053955078125,0.012299060821533203,-0.020337432622909546
1761131735120493300,5.336493408203125,-0.005265235900878906,0.00045120716094970703,0.01880761981010437
1761131735130493400,5.346493408203125,-0.00048351287841796875,0.01741921901702881,0.038658738136291504
1761131735140493300,5.356493408203125,0.016254425048828125,0.032042622566223145,-0.0039261579513549805
1761131735150494200,5.366494140625,0.016223907470703125,0.032375454902648926,-0.003339409828186035
1761131735160494000,5.376494140625,0.0018310546875,0.0038390159606933594,-0.029564470052719116
1761131735170494200,5.386494140625,0.018541336059570312,-0.02695763111114502,-0.003114849328994751
1761131735180494300,5.396494384765625,0.05676460266113281,-0.019122004508972168,0.026179254055023193
1761131735190494200,5.406494140625,0.06148529052734375,-0.03535139560699463,0.04339584708213806
1761131735200494300,5.416494384765625,0.051941871643066406,-0.056902527809143066,0.07052448391914368
1761131735210494200,5.426494140625,0.05677032470703125,-0.025841236114501953,0.0569099485874176
1761131735220494300,5.436494384765625,-0.005505561828613281,0.0006744861602783203,0.023441165685653687
1761131735230494200,5.446494140625,-0.034249305725097656,0.005370020866394043,0.029926925897598267
1761131735240494300,5.456494384765625,-0.0270843505859375,-0.011523962020874023,0.06011742353439331
1761131735250493400,5.466493408203125,0.0016002655029296875,-0.006536602973937988,0.07414758205413818
1761131735260493300,5.476493408203125,-0.00800323486328125,-0.025403857231140137,0.03395846486091614
1761131735270493400,5.486493408203125,-0.03188610076904297,-0.011056184768676758,0.04728695750236511
1761131735280493300,5.496493408203125,-0.055701255798339844,-0.0234067440032959,0.024885982275009155
1761131735290493400,5.506493408203125,-0.05557727813720703,-0.00940394401550293,0.004889428615570068
1761131735300493300,5.516493408203125,-0.05553722381591797,-0.009275197982788086,0.006370633840560913
1761131735310493400,5.526493408203125,0.020917892456054688,0.04456031322479248,-0.04075399041175842
1761131735320493300,5.536493408203125,0.035037994384765625,0.03168690204620361,-0.031169086694717407
1761131735330493400,5.546493408203125,0.03000640869140625,-0.024405956268310547,0.011464446783065796
1761131735340493300,5.556493408203125,0.044213294982910156,-0.04504513740539551,0.08546844124794006
1761131735350494200,5.566494140625,0.05129051208496094,-0.04675877094268799,0.15024393796920776
1761131735360494000,5.576494140625,0.0534820556640625,0.007071137428283691,0.1116279661655426
1761131735370494200,5.586494140625,0.04842853546142578,0.046795010566711426,0.08449432253837585
1761131735380494300,5.596494384765625,0.024247169494628906,0.033514976501464844,0.07105076313018799
1761131735390494200,5.606494140625,0.057610511779785156,0.05090832710266113,0.06979727745056152
1761131735400494300,5.616494384765625,0.05036735534667969,0.012883305549621582,0.07421457767486572
1761131735410494200,5.626494140625,-0.011778831481933594,0.00040435791015625,0.12259715795516968
1761131735420494300,5.636494384765625,-0.04268169403076172,-0.034255027770996094,0.11147001385688782
1761131735430494200,5.646494140625,-0.013767242431640625,-0.01838970184326172,0.07408621907234192
1761131735440494300,5.656494384765625,0.05093574523925781,0.012612223625183105,-0.015960007905960083
1761131735450493400,5.666493408203125,0.06290531158447266,0.01519465446472168,-0.012861073017120361
1761131735460493300,5.676493408203125,0.0269927978515625,-0.008751392364501953,0.0469684898853302
1761131735470493400,5.686493408203125,0.000690460205078125,-0.01628696918487549,0.12064120173454285
1761131735480493300,5.696493408203125,0.04138469696044922,-0.02837073802947998,0.12480190396308899
1761131735490493400,5.706493408203125,0.08439064025878906,0.01039743423461914,0.07178643345832825
1761131735500493300,5.716493408203125,0.07952117919921875,0.03728973865509033,0.014569640159606934
1761131735510493400,5.726493408203125,0.05559730529785156,0.001398921012878418,0.0031048357486724854
1761131735520493300,5.736493408203125,0.0150299072265625,0.01512300968170166,0.06606656312942505
1761131735530493400,5.746493408203125,-0.008711814880371094,-0.050620436668395996,0.10726362466812134
1761131735540493300,5.756493408203125,-0.07793521881103516,-0.018276095390319824,0.07888773083686829
1761131735550494200,5.766494140625,-0.08019447326660156,-0.016739964485168457,0.0668131411075592
1761131735560494300,5.776494384765625,-0.04430675506591797,0.01684725284576416,0.018591314554214478
1761131735570494200,5.786494140625,0.02012920379638672,-0.01556408405303955,0.015562593936920166
1761131735580494300,5.796494384765625,0.036533355712890625,0.015022993087768555,0.04066777229309082
1761131735590494200,5.806494140625,0.06256103515625,-0.00014197826385498047,0.06346318125724792
1761131735600494300,5.816494384765625,0.036034584045410156,-0.0063588619232177734,0.08183667063713074
1761131735610494200,5.826494140625,0.03598976135253906,-0.00616765022277832,0.08150610327720642
1761131735620494300,5.836494384765625,0.036026954650878906,-0.0159149169921875,0.0434129536151886
1761131735630494200,5.846494140625,0.05042743682861328,0.005683422088623047,0.006153613328933716
1761131735640494300,5.856494384765625,0.06724166870117188,0.020080089569091797,-0.033095210790634155
1761131735650493400,5.866493408203125,-0.004395484924316406,-0.006989717483520508,-0.000298917293548584
1761131735660493300,5.876493408203125,-0.035251617431640625,0.0037233829498291016,0.0011840760707855225
1761131735670493400,5.886493408203125,-0.07329177856445312,-0.019083142280578613,-0.047645628452301025
1761131735680493300,5.896493408203125,-0.06827259063720703,-0.017621874809265137,-0.0553649365901947
1761131735690493400,5.906493408203125,0.008419990539550781,0.01589179039001465,-0.07510235905647278
1761131735700493300,5.916493408203125,0.12559032440185547,0.021990537643432617,-0.10937955975532532
1761131735710493400,5.926493408203125,0.1253223419189453,0.023922443389892578,-0.10824710130691528
1761131735720493300,5.936493408203125,0.13946056365966797,0.0517575740814209,-0.0958540141582489
1761131735730493400,5.946493408203125,0.09634590148925781,0.02083742618560791,-0.11230149865150452
1761131735740493300,5.956493408203125,0.04623222351074219,-0.0038733482360839844,-0.1161908507347107
1761131735750494200,5.966494140625,0.034575462341308594,-0.03165006637573242,-0.08800360560417175
1761131735760494000,5.976494140625,0.06604480743408203,-0.06908035278320312,-0.08100205659866333
1761131735770494200,5.986494140625,0.039971351623535156,-0.08456456661224365,-0.009726941585540771
1761131735780494300,5.996494384765625,-0.1203470230102539,-0.08998847007751465,0.08338454365730286
1761131735790494200,6.006494140625,-0.3910055160522461,-0.1140599250793457,0.1688750982284546
1761131735800494300,6.016494384765625,-0.7097187042236328,-0.12807905673980713,0.26654180884361267
1761131735810494200,6.026494140625,-0.8778085708618164,-0.1090552806854248,0.3306148648262024
1761131735820494300,6.036494384765625,-0.9598274230957031,-0.10230898857116699,0.32086241245269775
1761131735830494200,6.046494140625,-0.8744106292724609,0.005439043045043945,0.2893715500831604
1761131735840494300,6.056494384765625,-0.6097164154052734,0.1527785062789917,0.20690284669399261
1761131735850493400,6.066493408203125,-0.2423267364501953,0.20479607582092285,0.1398467719554901
1761131735860493300,6.076493408203125,0.23017501831054688,0.28724002838134766,0.007694065570831299
1761131735870493400,6.086493408203125,0.6522760391235352,0.2978544235229492,-0.09455335140228271
1761131735880492500,6.096492431640625,1.4623374938964844,0.12698137760162354,-0.20875191688537598
1761131735920492500,6.136492431640625,1.232060432434082,0.05535781383514404,-0.05990654230117798
1761131735930492400,6.146492431640625,1.0249099731445312,0.16451096534729004,-0.10978049039840698
1761131735940492500,6.156492431640625,0.8088083267211914,0.18269026279449463,-0.21471035480499268
1761131735950493400,6.166493408203125,0.5620565414428711,0.10612428188323975,-0.2503998875617981
1761131735960493300,6.176493408203125,0.2559671401977539,-0.019569993019104004,-0.19698145985603333
1761131735970493400,6.186493408203125,0.031662940979003906,-0.11897945404052734,-0.21193203330039978
1761131735980493300,6.196493408203125,-0.14945602416992188,-0.1347944736480713,-0.26294293999671936
1761131735990493400,6.206493408203125,-0.40497779846191406,-0.17307758331298828,-0.304470419883728
1761131736000493300,6.216493408203125,-0.6487102508544922,-0.2002885341644287,-0.27638038992881775
1761131736010493400,6.226493408203125,-0.8591737747192383,-0.2615237236022949,-0.19278594851493835
1761131736020493300,6.236493408203125,-1.0387582778930664,-0.3325592279434204,-0.10493478178977966
1761131736030493400,6.246493408203125,-1.1396560668945312,-0.3483915328979492,-0.027150392532348633
1761131736040493300,6.256493408203125,-1.12890625,-0.3199723958969116,-0.039689987897872925
1761131736050459100,6.266459228515625,-1.0567045211791992,-0.26752638816833496,-0.03914114832878113
1761131736060425700,6.27642578125,-0.8843917846679688,-0.22683978080749512,-0.033631712198257446
1761131736070392600,6.286392578125,-0.6101245880126953,-0.18755674362182617,0.02235656976699829
1761131736080359200,6.296359130859375,-0.28644561767578125,-0.20550835132598877,0.07586333155632019
1761131736090325800,6.30632568359375,-0.14768028259277344,-0.22967863082885742,0.13661536574363708
1761131736100292400,6.316292236328125,-0.03516197204589844,-0.20868265628814697,0.13782325387001038
1761131736110259200,6.32625927734375,0.05603504180908203,-0.14071524143218994,0.10196265578269958
1761131736120225800,6.336225830078125,0.1235971450805664,-0.09312403202056885,0.07048454880714417
1761131736130192400,6.3461923828125,0.15316390991210938,-0.01835763454437256,0.11176607012748718
1761131736140159000,6.356158935546875,0.15662384033203125,0.06472897529602051,0.0957978367805481
1761131736150126600,6.366126708984375,0.1387500762939453,0.10578787326812744,0.11306712031364441
1761131736160093200,6.37609326171875,0.15683364868164062,0.1607651710510254,0.09360197186470032
1761131736170060000,6.38606005859375,0.22519683837890625,0.2179495096206665,0.05421990156173706
1761131736180027600,6.396027587890625,0.29352664947509766,0.20580005645751953,0.04301682114601135
1761131736189994200,6.405994140625,0.2924318313598633,0.2126063108444214,0.043131351470947266
1761131736199960800,6.4159609375,0.4805126190185547,0.17361748218536377,0.02601146697998047
1761131736209927400,6.425927490234375,0.4604949951171875,0.16687607765197754,0.030222326517105103
1761131736219894300,6.435894287109375,0.39766693115234375,0.18936872482299805,-0.01631063222885132
1761131736229860900,6.44586083984375,0.2513313293457031,0.20035207271575928,-0.046528786420822144
1761131736239827500,6.455827392578125,0.2583942413330078,0.17455697059631348,-0.047260135412216187
1761131736249793500,6.46579345703125,0.26781654357910156,0.10114610195159912,-0.05263742804527283
1761131736259760000,6.475760009765625,0.22948169708251953,0.06738150119781494,-0.02066248655319214
1761131736269726700,6.485726806640625,0.14105510711669922,0.02961289882659912,0.007265031337738037
1761131736279693600,6.495693603515625,0.06954097747802734,0.004921317100524902,-0.047445446252822876
1761131736289660200,6.50566015625,0.017411231994628906,-0.03307521343231201,-0.07789731025695801
1761131736299626800,6.515626708984375,-0.08255767822265625,-0.011345267295837402,-0.06952649354934692
1761131736309593600,6.525593505859375,-0.20397377014160156,-0.021251559257507324,-0.05845099687576294
1761131736319560200,6.535560302734375,-0.29183006286621094,-0.060102224349975586,-0.03289768099784851
1761131736329526800,6.54552685546875,-0.31986141204833984,-0.0889275074005127,-0.011232525110244751
1761131736339493400,6.555493408203125,-0.28829097747802734,-0.0968313217163086,-0.0366496741771698
1761131736349494300,6.565494384765625,-0.2666292190551758,-0.11468148231506348,-0.040616244077682495
1761131736359494400,6.575494384765625,-0.2572202682495117,-0.13579678535461426,-0.03104308247566223
1761131736369494300,6.585494384765625,-0.22412681579589844,-0.1721564531326294,-0.01218143105506897
1761131736379494400,6.595494384765625,-0.17208003997802734,-0.1881251335144043,0.00663149356842041
1761131736389494300,6.605494384765625,-0.0794219970703125,-0.18893420696258545,0.014429986476898193
1761131736399494400,6.615494384765625,-0.037052154541015625,-0.18938076496124268,0.013816297054290771
1761131736409494300,6.625494384765625,0.03162860870361328,-0.16791999340057373,0.06664663553237915
1761131736419494400,6.635494384765625,0.049999237060546875,-0.15092289447784424,0.021754592657089233
1761131736429494300,6.645494384765625,0.08514022827148438,-0.12436842918395996,0.015349507331848145
1761131736439494400,6.655494384765625,0.060428619384765625,-0.07149970531463623,0.027939915657043457
1761131736449493500,6.665493408203125,0.059721946716308594,-0.06687986850738525,0.028657197952270508
1761131736459493600,6.67549365234375,-0.007940292358398438,-0.019587993621826172,-0.039739757776260376
1761131736469493500,6.685493408203125,-0.053954124450683594,0.03429114818572998,-0.031415581703186035
1761131736479493600,6.69549365234375,-0.06885719299316406,0.061771392822265625,-0.028509914875030518
1761131736489493500,6.705493408203125,-0.016744613647460938,0.04867565631866455,-0.011343657970428467
1761131736499493600,6.71549365234375,0.0783395767211914,0.06754601001739502,0.029929816722869873
1761131736509493500,6.725493408203125,0.18526935577392578,0.0464472770690918,0.032618433237075806
1761131736519493600,6.73549365234375,0.24189376831054688,0.11166584491729736,0.018242627382278442
1761131736529493500,6.745493408203125,0.193267822265625,0.13782775402069092,0.053538113832473755
1761131736539493600,6.75549365234375,0.13050365447998047,0.13132750988006592,0.0693281888961792
1761131736549494300,6.765494384765625,0.09436798095703125,0.16600263118743896,0.09696093201637268
1761131736559494100,6.775494140625,0.10861682891845703,0.2000969648361206,0.09147211909294128
1761131736569494300,6.785494384765625,0.12058544158935547,0.19518184661865234,0.08853891491889954
1761131736579494100,6.795494140625,0.16138744354248047,0.19910824298858643,0.06617745757102966
1761131736589494300,6.805494384765625,0.25733089447021484,0.14499402046203613,0.09847211837768555
1761131736599494100,6.815494140625,0.3987464904785156,0.14104652404785156,0.13946735858917236
1761131736609494300,6.825494384765625,0.5401878356933594,0.11282229423522949,0.1678144931793213
1761131736619494100,6.835494140625,0.7128973007202148,0.07416141033172607,0.14610080420970917
1761131736629494300,6.845494384765625,0.8738985061645508,0.019716501235961914,0.10145103931427002
1761131736639494100,6.855494140625,0.8988943099975586,0.012841939926147461,0.07698261737823486
1761131736649493500,6.865493408203125,0.7234086990356445,-0.038680076599121094,0.081351637840271
1761131736659493400,6.875493408203125,0.5102777481079102,-0.08958911895751953,0.07813134789466858
1761131736669493500,6.885493408203125,0.3431739807128906,-0.14111459255218506,0.054088085889816284
1761131736679493400,6.895493408203125,0.2507057189941406,-0.12733185291290283,0.035006046295166016
1761131736689493200,6.9054931640625,0.15844345092773438,-0.16677427291870117,-0.039708733558654785
1761131736699493400,6.915493408203125,0.07570838928222656,-0.14815962314605713,-0.09752550721168518
1761131736709493200,6.9254931640625,0.004773139953613281,-0.1475616693496704,-0.0888536274433136
1761131736719493400,6.935493408203125,-0.13521671295166016,-0.24972593784332275,-0.04046279191970825
1761131736729493000,6.945492919921875,-0.23714256286621094,-0.2524092197418213,-0.02469015121459961
1761131736739492900,6.955492919921875,-0.3271942138671875,-0.2638810873031616,-0.013657867908477783
1761131736749493800,6.96549365234375,-0.4580354690551758,-0.30792951583862305,-0.05430757999420166
1761131736759494000,6.975493896484375,-0.6654987335205078,-0.3441953659057617,-0.05504918098449707
1761131736769493800,6.98549365234375,-0.8656883239746094,-0.32294130325317383,-0.01821085810661316
1761131736779494000,6.995493896484375,-0.9392175674438477,-0.22781848907470703,-0.017188191413879395
1761131736789493800,7.00549365234375,-0.979731559753418,-0.21331679821014404,-0.029384106397628784
1761131736799494000,7.015493896484375,-0.9634675979614258,-0.19964909553527832,0.004517853260040283
1761131736809493800,7.02549365234375,-0.8329648971557617,-0.1700669527053833,-0.035083502531051636
1761131736819494000,7.035493896484375,-0.6193552017211914,-0.11501169204711914,-0.16989564895629883
1761131736829493800,7.04549365234375,-0.4136381149291992,-0.05136704444885254,-0.22608152031898499
1761131736839494000,7.055493896484375,-0.29917335510253906,-0.02257359027862549,-0.2074909210205078
1761131736849493000,7.065492919921875,-0.2065591812133789,0.03134036064147949,-0.18840909004211426
1761131736859492900,7.075492919921875,-0.0710134506225586,0.04516708850860596,-0.2232130467891693
1761131736869493000,7.085492919921875,0.2007884979248047,0.06954789161682129,-0.2564568519592285
1761131736879492900,7.095492919921875,0.26181793212890625,0.17266571521759033,-0.28285157680511475
1761131736889493000,7.105492919921875,0.2322559356689453,0.20883405208587646,-0.27403727173805237
1761131736899492900,7.115492919921875,0.20519065856933594,0.2175438404083252,-0.30072006583213806
1761131736909493000,7.125492919921875,0.21408462524414062,0.2453606128692627,-0.28602510690689087
1761131736919492900,7.135492919921875,0.3067655563354492,0.2854788303375244,-0.2656208276748657
1761131736929493000,7.145492919921875,0.4473390579223633,0.3640279769897461,-0.30452093482017517
1761131736939492900,7.155492919921875,0.5138349533081055,0.3292766809463501,-0.30983054637908936
1761131736949493800,7.16549365234375,0.4250984191894531,0.3185163736343384,-0.22477197647094727
1761131736959494000,7.175493896484375,0.3128376007080078,0.31430768966674805,-0.21152156591415405
1761131736969493800,7.18549365234375,0.14343738555908203,0.2862706184387207,-0.2023906409740448
1761131736979494000,7.195493896484375,-0.0019207000732421875,0.26693880558013916,-0.15131548047065735
1761131736989493800,7.20549365234375,-0.046792030334472656,0.24069809913635254,-0.11270138621330261
1761131736999494000,7.215493896484375,0.020789146423339844,0.20788860321044922,-0.08541178703308105
1761131737009493800,7.22549365234375,0.1075601577758789,0.1633741855621338,-0.054095327854156494
1761131737019494000,7.235493896484375,0.07326221466064453,0.09269773960113525,-0.062034666538238525
1761131737029494300,7.245494384765625,-0.05692863464355469,0.019838690757751465,-0.06231331825256348
1761131737039494100,7.255494140625,-0.1441631317138672,0.02875041961669922,-0.0282001793384552
1761131737049493500,7.265493408203125,-0.19571208953857422,-0.028350353240966797,-0.02851039171218872
1761131737059493400,7.275493408203125,-0.16860389709472656,-0.035687923431396484,-0.02417135238647461
1761131737069493200,7.2854931640625,-0.10585975646972656,-0.05091893672943115,0.011888861656188965
1761131737079493400,7.295493408203125,-0.08879756927490234,-0.10586392879486084,0.033414244651794434
1761131737089493200,7.3054931640625,-0.15810489654541016,-0.09781229496002197,0.08283740282058716
1761131737099493400,7.315493408203125,-0.2036447525024414,-0.12516701221466064,0.144932359457016
1761131737109493200,7.3254931640625,-0.2685995101928711,-0.12756657600402832,0.18632128834724426
1761131737119493400,7.335493408203125,-0.2691946029663086,-0.14062023162841797,0.22200681269168854
1761131737129493200,7.3454931640625,-0.23651981353759766,-0.14271116256713867,0.23620006442070007
1761131737139493400,7.355493408203125,-0.13704586029052734,-0.12407052516937256,0.2131129652261734
1761131737149494300,7.365494384765625,-0.05928802490234375,-0.11386990547180176,0.20761175453662872
1761131737159494100,7.375494140625,0.049515724182128906,-0.09350013732910156,0.1762937605381012
1761131737169494300,7.385494384765625,0.03147411346435547,-0.09727656841278076,0.19054464995861053
1761131737179494100,7.395494140625,-0.015137672424316406,-0.11154711246490479,0.209275484085083
1761131737189494300,7.405494384765625,-0.03531360626220703,-0.08330786228179932,0.21576343476772308
1761131737199494100,7.415494140625,-0.017174720764160156,-0.052648305892944336,0.1673145294189453
1761131737209494300,7.425494384765625,0.0033121109008789062,0.03345382213592529,0.11691144108772278
1761131737219494100,7.435494140625,0.0022258758544921875,0.03837990760803223,0.11222535371780396
1761131737229494300,7.445494384765625,0.04421424865722656,0.05531799793243408,0.059229642152786255
1761131737239494100,7.455494140625,0.0766611099243164,0.07684504985809326,0.09705492854118347
1761131737249493200,7.4654931640625,0.13313579559326172,0.09558284282684326,0.05613407492637634
1761131737259493400,7.475493408203125,0.17299175262451172,0.0754251480102539,0.018359243869781494
1761131737269493200,7.4854931640625,0.1915121078491211,0.09979212284088135,0.010262817144393921
1761131737279493400,7.495493408203125,0.17911529541015625,0.10633361339569092,0.01931864023208618
1761131737289493200,7.5054931640625,0.13579368591308594,0.1023397445678711,-0.004417747259140015
1761131737299493400,7.515493408203125,0.1429433822631836,0.07111775875091553,-0.02249428629875183
1761131737309493200,7.5254931640625,0.14779281616210938,0.10413634777069092,-0.011246055364608765
1761131737319493400,7.535493408203125,0.0928792953491211,0.12703955173492432,-0.03846418857574463
1761131737329493200,7.5454931640625,0.023698806762695312,0.14204299449920654,-0.1023295521736145
1761131737339493400,7.555493408203125,-0.028676986694335938,0.10637104511260986,-0.08555307984352112
1761131737349494000,7.565493896484375,-0.021327972412109375,0.1144188642501831,-0.030979812145233154
1761131737359494100,7.575494140625,0.1366729736328125,0.09235751628875732,-0.007550597190856934
1761131737369494000,7.585493896484375,0.14386749267578125,0.06311511993408203,-0.01927584409713745
1761131737379494100,7.595494140625,0.0962209701538086,0.03261899948120117,0.00007519125938415527
1761131737389494000,7.605493896484375,0.05824470520019531,0.015857696533203125,0.02607262134552002
1761131737399494100,7.615494140625,-0.0035524368286132812,-0.027722835540771484,0.043396174907684326
1761131737409494300,7.625494384765625,-0.06042289733886719,-0.035912394523620605,0.07629501819610596
1761131737419494100,7.635494140625,-0.10996627807617188,-0.07343339920043945,0.08378151059150696
1761131737429494300,7.645494384765625,-0.06856060028076172,-0.11791038513183594,0.11549250781536102
1761131737439494100,7.655494140625,0.05156135559082031,-0.14874517917633057,0.19053354859352112
1761131737449493200,7.6654931640625,-0.13439369201660156,0.0008413791656494141,-0.25835803151130676
1761131737459493400,7.675493408203125,-0.13248634338378906,-0.008476972579956055,-0.2527261972427368
1761131737469493200,7.6854931640625,-0.22943782806396484,0.1360994577407837,-0.12172210216522217
1761131737479493400,7.695493408203125,-0.07391643524169922,-0.0767132043838501,0.08278444409370422
1761131737489493500,7.705493408203125,-0.09594345092773438,-0.06752681732177734,0.1324269026517868
1761131737499493400,7.715493408203125,0.02070903778076172,-0.07177269458770752,0.09551581740379333
1761131737509493500,7.725493408203125,0.20662212371826172,-0.0939028263092041,0.07455098628997803
1761131737519493400,7.735493408203125,0.29675769805908203,-0.12056708335876465,0.09763649106025696
1761131737529493200,7.7454931640625,0.3295783996582031,0.02903616428375244,0.05074501037597656
1761131737539493400,7.755493408203125,0.29578113555908203,0.10686695575714111,-0.07296594977378845
