time,seconds_elapsed,z,y,x
1761132349364114400,0.082114501953125,0.05831248823702335,-0.020475253806449472,0.0038232115499675272
1761132349383961300,0.10196142578125,-0.07127484566271304,-0.06378828929960727,-0.012543401361256838
1761132349403809500,0.1218095703125,-0.19140695347487927,-0.023982312079332768,0.03801365044340491
1761132349423657500,0.141657470703125,-0.043599487751722336,0.015958580099605022,0.14394626025035975
1761132349443505400,0.16150537109375,0.09073708650171756,-0.00676627926453948,0.1941866473212838
1761132349463352300,0.181352294921875,0.12460954548716545,-0.057424489888735115,0.09553323473706841
1761132349483200500,0.201200439453125,0.006469488275051116,0.009114340228028595,0.022094050647318363
1761132349503048400,0.22104833984375,-0.027909751188755032,0.001664243417792022,0.03451967084780335
1761132349522896600,0.240896728515625,-0.1283937402009964,-0.010157346474938093,-0.042601855016499754
1761132349542743600,0.26074365234375,-0.01184767418205738,0.006255297535099089,-0.09896437822952867
1761132349562591500,0.280591552734375,0.007200725159049033,-0.03074544953871518,-0.11670257175490259
1761132349582439400,0.300439453125,0.020036825856566427,-0.01839585371650755,-0.1348382401652634
1761132349602287600,0.32028759765625,-0.08461597327291966,-0.019299086166545746,-0.15142872496023774
1761132349622134500,0.340134521484375,-0.039426585981249804,-0.02022814717758447,-0.14469021048545835
1761132349641982500,0.359982421875,0.10832827277183532,-0.05831204984560608,-0.060750382908433674
1761132349661830400,0.379830322265625,-0.02640752993226051,-0.032150238302722574,-0.022379443459957838
1761132349681678600,0.3996787109375,-0.10068974071741103,0.018891309083253142,0.06399141065627337
1761132349701525500,0.419525390625,-0.03172726365029812,0.0125512558741495,0.11011062614396214
1761132349721373400,0.43937353515625,0.11428455082774161,-0.07337028357200324,0.006432809526473284
1761132349741221400,0.459221435546875,0.07270692429244519,-0.10037212613560259,0.008444587740302085
1761132349761069600,0.479069580078125,-0.10182897388041019,-0.04246018152348697,0.02561915603354573
1761132349780916500,0.49891650390625,-0.045535424250364304,0.0033822993820533153,0.053561932709068054
1761132349800764700,0.5187646484375,-0.01452770704627037,-0.026353132863901552,0.0008653846576809883
1761132349820612400,0.5386123046875,0.009749240598082541,-0.04644333287551999,0.020718962901830673
1761132349840459500,0.55845947265625,-0.09222761732041836,0.03754475429002195,0.06521379205808044
1761132349860307500,0.578307373046875,-0.12380933502018451,0.05124152693748474,0.08138561304956674
1761132349880155600,0.59815576171875,-0.02627133633196354,0.02813351347465068,-0.027260347369313237
1761132349900003300,0.61800341796875,0.1787748509168625,-0.0017588263660669326,-0.06156769064068794
1761132349919850500,0.6378505859375,0.13257716336548328,0.04176189706102013,-0.0693653587795794
1761132349939698400,0.657698486328125,-0.039536476096510884,0.052326764890924096,-0.033805092837661505
1761132349959546600,0.677546630859375,-0.09970014515817165,-0.011300598225928842,-0.07548223422467708
1761132349979394600,0.69739453125,-0.07606441802680491,-0.059251997576840215,-0.06486059470623731
1761132349999241500,0.717241455078125,-0.08401157763898372,0.01914499158337712,0.025967969471216202
1761132350019089400,0.73708935546875,-0.08094809841513634,0.04760580078363418,0.06431655095741153
1761132350038937600,0.7569375,-0.05160217694342136,0.0466864574490115,0.09346884955316781
1761132350058785800,0.776785888671875,-0.1173000992566347,0.07458250890597701,0.09952113532945513
1761132350078632700,0.7966328125,0.04303542412817478,-0.05463372665904462,0.013200403965264559
1761132350098481000,0.81648095703125,0.3229828308433294,-0.07918331723231822,-0.05163914795294404
1761132350118328800,0.836328857421875,0.16716157001256943,-0.016207221098430452,-0.10130977231189608
1761132350138177000,0.856177001953125,-0.03869651814103126,-0.0008498948276042938,-0.049337154620885844
1761132350158024000,0.87602392578125,-0.10557868180274962,-0.01721084518302232,0.03885843070447444
1761132350177872000,0.895871826171875,-0.05902092876732349,-0.06795004862155765,0.11169497272595763
1761132350197719800,0.9157197265625,0.006550152295827865,-0.07704561108388006,0.16973770411089062
1761132350217568000,0.935568115234375,0.03336334041953087,-0.12812763661071658,0.17891630521416663
1761132350237415000,0.955414794921875,-0.06164893918335437,-0.10019614851418882,0.10432517461031675
1761132350257262800,0.975262939453125,-0.14100947614610193,-0.05291230969391763,0.04162131954655051
1761132350277110800,0.99511083984375,-0.1169774431735277,-0.017797047573141753,-0.03436550319939852
1761132350296959000,1.014958984375,-0.028612931022047997,0.0002952931521460414,-0.10629530563950539
1761132350316806000,1.034805908203125,0.05433364773392677,-0.005259126104600728,-0.13968348823934792
1761132350336653800,1.05465380859375,0.04157295036017895,0.012854951528459786,-0.14713585007190705
1761132350356501800,1.074501708984375,-0.028448095849156377,0.019397906898520886,-0.1364643800623715
1761132350376349000,1.094348876953125,0.012873510098457336,-0.0032398221714422105,-0.12095073071867227
1761132350396196900,1.11419677734375,0.05148819517493248,0.04838814680036157,-0.03229834153652191
1761132350416045000,1.134045166015625,0.032117139750719066,0.05741473567970097,0.05825637413561344
1761132350435892700,1.153892822265625,-0.029398528441786764,0.058166175101511175,0.0714526864476502
1761132350455741000,1.173740966796875,-0.0276104759812355,0.020063056276366113,0.04239040422290563
1761132350475587800,1.193587890625,0.030906010395288466,-0.01896371673233807,-0.005612140793353319
1761132350495436000,1.21343603515625,0.049151276659965513,-0.07231134910359978,-0.05625950122997164
1761132350515283700,1.23328369140625,-0.0056014732688665385,-0.0446611621664837,-0.06222732359319925
1761132350535131000,1.253130859375,-0.0015285247415304183,-0.02915770542323589,-0.012306816126406193
1761132350554978800,1.272978759765625,-0.04833879123330116,-0.047158312744461,0.006150631584227084
1761132350574827000,1.292826904296875,-0.10173486585617064,-0.04208480887245387,0.03782850313484668
1761132350594675000,1.312675048828125,-0.05607435392141342,-0.03750402042083442,0.0046584933303296565
1761132350614521900,1.33252197265625,-0.014866145220398901,-0.05823284712955355,-0.018839286635071038
1761132350634369800,1.352369873046875,-0.09191080645620822,-0.01993519211299717,-0.0054104807414114475
1761132350654218000,1.372218017578125,-0.10225625938177108,-0.028204569416865704,0.007407061386108398
1761132350674066000,1.39206591796875,-0.03267594267725944,-0.009466514666564762,-0.0034478023663163182
1761132350693913000,1.4119130859375,0.039808863297104834,-0.01284768153745681,0.021241379340738057
1761132350713760800,1.4317607421875,-0.004034954604506492,0.022614092466048896,0.02479512629956007
1761132350733609000,1.45160888671875,0.007924363258481025,0.028122955548018216,0.013756868804246187
1761132350753457000,1.471456787109375,0.047830841711163516,0.06185319305118173,0.010620032083243131
1761132350773304000,1.491303955078125,0.08405600130259991,0.008908150131441653,-0.014318009818345308
1761132350793151700,1.51115185546875,0.03880407016873359,-0.014696853068098426,-0.05430149902999401
1761132350813000000,1.531,-0.0734773241430521,0.0511866184124723,-0.0042779695801436896
1761132350832848000,1.550847900390625,-0.09535714751780032,0.061269401813857254,0.003166793467849493
1761132350852695000,1.570695068359375,-0.11243629261255264,0.01577533248718828,-0.058439621748030184
1761132350872543000,1.59054296875,-0.08405190964937209,0.0027134602097794412,-0.10381123373880982
1761132350892391000,1.610390869140625,0.054147769773006435,0.02058163679037243,-0.05321355766281485
1761132350912237800,1.63023779296875,0.06926759749352931,0.01360284728631377,-0.0140155197404325
1761132350932086000,1.6500859375,0.0023088614642620083,-0.013647344015166162,-0.01726370788142085
1761132350951934000,1.669933837890625,-0.05556055918037891,-0.017609233383461834,0.016480156288295984
1761132350971782000,1.689781982421875,-0.003065232789516449,0.051904374760389324,0.04789601590186357
1761132350991628800,1.70962890625,0.05874737252295017,0.009386654363386333,0.061899114552140234
1761132351011477000,1.72947705078125,-0.05211188003122806,0.012131934483535587,0.0315057298541069
1761132351031325000,1.749324951171875,-0.08362403962612151,0.01476107741072774,0.0012448854945600032
1761132351051173400,1.76917333984375,-0.044051323172450065,0.07622589219883084,-0.03063493836894631
1761132351071020300,1.789020263671875,0.137851888898015,0.07905150754619389,-0.08267229185923934
1761132351090868500,1.808868408203125,0.17078502120673655,0.07413980663977562,-0.11920666353031992
1761132351110716700,1.828716552734375,0.16147709463536739,0.02055631968602538,-0.07172478138729929
1761132351130564400,1.848564453125,0.02100362506210804,-0.05747826590258628,-0.050355830144137144
1761132351150411300,1.868411376953125,-0.2072474966853857,-0.04139226003102958,0.0376274276047945
1761132351170259500,1.888259521484375,-0.35351942340433595,0.033087738348543644,0.09071297497376798
1761132351190107400,1.908107421875,-0.08749065192639827,0.04009633846897632,0.07441475112363696
1761132351209955300,1.927955322265625,0.15690964058935641,0.039074155814386904,0.03252455150783062
1761132351229802500,1.947802490234375,0.09428922602534294,0.06477255109660326,-0.04339022891521454
1761132351249650400,1.967650390625,-0.024680267748236655,0.048951041380129755,-0.06941723509728909
1761132351269498400,1.987498291015625,0.06657821227908134,-0.004890329324826598,-0.10451952813863753
1761132351289346600,2.0073466796875,0.10677987428605556,-0.0354333881592378,-0.06843421540930866
1761132351309193500,2.027193359375,-0.02549041508734226,-0.04910279787573963,-0.05675093800872564
1761132351329041400,2.04704150390625,-0.18181261117756364,-0.04408942669313401,-0.04137085191681981
1761132351348889300,2.066889404296875,-0.14504150814116,-0.03338277577236295,0.015416180318593977
1761132351368737500,2.086737548828125,0.08759528134465216,-0.06608531419560312,0.05752645242586731
1761132351388584400,2.10658447265625,0.19649580104649067,-0.10191095307543874,0.06387903632298111
1761132351408432400,2.126432373046875,0.04546411257982254,-0.10273607878796756,0.06483984417915344
1761132351428280300,2.1462802734375,-0.13621113595366477,-0.08582834473736584,0.07716390370130538
1761132351448127500,2.16612744140625,-0.11892682367563247,-0.07909465256817638,0.05234525039568543
1761132351467975400,2.185975341796875,0.05300853661000728,-0.054778432359360155,0.059359074680507176
1761132351487823400,2.2058232421875,0.032034137642383574,-0.039715887784026564,0.004613631275296211
1761132351507671300,2.22567138671875,-0.019729367342591283,-0.0017761062944307922,-0.02210544882416725
1761132351527518500,2.2455185546875,-0.08283493507504462,0.007711122366599738,-0.007377835291624069
1761132351547366400,2.265366455078125,-0.037059856849908826,0.05939520543981343,-0.00421586412936449
1761132351567214600,2.285214599609375,-0.007838438540697098,0.03563537700474262,-0.09453618652373552
1761132351587062300,2.305062255859375,0.0639355888158083,0.04263597648181021,-0.16570348015874622
1761132351606909400,2.324909423828125,0.06551029078662395,0.08992580665145068,-0.08700316067039966
1761132351626757400,2.34475732421875,0.0544020367950201,0.07607362424656748,0.008505085755884647
1761132351646605600,2.36460546875,0.06338730728328228,-0.00419588078726083,0.03311082696318626
1761132351666453200,2.384453369140625,0.017643208718299865,-0.0426649103153497,0.0518725183174014
1761132351686300400,2.404300537109375,-0.10133972905874251,-0.038345951137691736,0.009689911626279354
1761132351706148400,2.4241484375,-0.19398644857406616,-0.040957485342957074,-0.03761895203739404
1761132351725996500,2.44399658203125,-0.11204641651213168,-0.08847133352681993,-0.05924202417209744
1761132351745844500,2.463844482421875,0.04629880983829498,-0.11242869382798672,-0.07621770889237522
1761132351765691400,2.48369140625,0.07085515894591808,-0.08413695758432149,-0.039745004280656575
1761132351785539300,2.503539306640625,-0.11498831518292427,-0.025032515252009033,0.04848638301044702
1761132351805387500,2.523387451171875,-0.08979249912798404,0.0029897564005106686,0.09367620869353413
1761132351825235500,2.5432353515625,0.05529343267679214,-0.01641363039072603,0.09496434880793093
1761132351845082600,2.56308251953125,0.06561141307353972,0.01659819317739457,0.04934869892820715
1761132351864930300,2.582930419921875,-0.018708207601308823,0.03873695974927396,0.02105944690257311
1761132351884778500,2.602778564453125,-0.15231120688319205,0.06104710083268582,-0.031027737078815697
1761132351904626400,2.62262646484375,-0.194031456759572,0.08133998380955308,-0.12034005147442221
1761132351924473600,2.6424736328125,-0.04154489330947399,0.04186002367325127,-0.1882329996138811
1761132351944321300,2.6623212890625,0.29594518631398675,0.01847509296517819,-0.1683198001369834
1761132351964169500,2.68216943359375,0.27271453285217284,-0.029402218236215413,-0.1302611415080726
1761132351984017400,2.702017333984375,0.07481880187988281,-0.05673764013573527,-0.005935527528822422
1761132352003864600,2.721864501953125,-0.035708442240953445,-0.06028481122329831,0.10649711182191968
1761132352023712500,2.74171240234375,-0.12938508932590484,-0.0017152794852852821,0.23028657309785483
1761132352043560400,2.761560546875,-0.14652093304395675,0.023720409740135073,0.3007392887227237
1761132352063407000,2.781406982421875,-0.0595651186466217,0.010481865721568465,0.24911212346851824
1761132352083255000,2.801255126953125,0.11033376737534999,-0.06230422475431114,0.10690598488375544
1761132352103103200,2.821103271484375,0.10430500860512255,-0.09556589489765464,-0.026602321851998567
1761132352122951000,2.840950927734375,-0.0667284344047308,-0.034910423731058834,-0.11097235753983259
1761132352142798000,2.860798095703125,-0.22627076158523557,0.05776384137831628,-0.11584259392470121
1761132352162646000,2.88064599609375,-0.13744564618468283,0.06424162255767732,-0.18351167018041015
1761132352182494200,2.900494140625,0.022106033346056937,0.06946823463216424,-0.24887670727744696
1761132352202342100,2.920342041015625,0.05063187060654163,0.06738032244220375,-0.2250672310143709
1761132352222189300,2.940189208984375,0.016585224097967147,0.07810695670507847,-0.13704831743016838
1761132352242037000,2.960037109375,-0.033789456877112385,0.07991042593047022,-0.10007394690662622
1761132352261885200,2.97988525390625,0.01781505815386772,0.0559898174431175,0.05216229504421353
1761132352281733000,2.999733154296875,0.08462591014504432,0.05430792877078056,0.08601224993690848
1761132352301580300,3.019580322265625,0.09216331991255283,0.018017960314825176,0.10387509275525808
1761132352321428000,3.039427978515625,0.07068155594468116,0.024011720836907623,0.1146564528800547
1761132352341276200,3.059276123046875,-0.015815408769249917,0.02143449076004326,0.08516644676253199
1761132352361124000,3.0791240234375,0.06690554453730582,0.0012504384525120257,0.04947232530787587
1761132352380971300,3.09897119140625,0.08989362141489982,-0.006930091524124145,0.06253595115095377
1761132352400819000,3.11881884765625,0.07471008080840111,-0.06007909605074674,0.04574950539246201
1761132352420667100,3.138667236328125,-0.035061961030960084,-0.09165778154321014,0.009001198709756136
1761132352440515000,3.15851513671875,-0.19877777450382708,-0.09495784600190818,0.014149813644587993
1761132352460362200,3.1783623046875,-0.3273135535240173,-0.06319112712405621,0.011833791787177323
1761132352480210200,3.198210205078125,-0.24969956796765325,-0.06730517484676092,-0.01526815015003085
1761132352500058000,3.21805810546875,-0.11660510272979735,-0.03236479436885566,-0.05290273814797401
1761132352519906000,3.237906005859375,0.005087678527832031,0.014778649600036442,-0.03381225323081016
1761132352539753200,3.257753173828125,-0.017963526713848113,0.04653955979160964,-0.017706775473803282
1761132352559601200,3.27760107421875,0.0036252047598361965,0.007922244366630912,-0.06494535038024186
1761132352579449000,3.297448974609375,0.16835867084264755,-0.0774718371393159,-0.1428413677483797
1761132352599297000,3.317297119140625,0.1456739608258009,-0.006945873615145683,-0.11248290823325514
1761132352619144200,3.337144287109375,-0.027938392761349677,0.013333601890876888,0.06531973665058613
1761132352638992100,3.3569921875,-0.1638900009959936,0.035620106370374556,0.12077113636806606
1761132352658840000,3.376840087890625,-0.08063888633549213,-0.023600582752749323,0.12989610758796333
1761132352678687000,3.39668701171875,0.03568681493103504,-0.07408771112635731,0.09031798430681229
1761132352698535200,3.41653515625,0.024687282010912893,-0.02730586701147258,0.08393719722852111
1761132352718383000,3.436383056640625,0.04855447981059551,-0.018047843996435404,0.10757277822941541
1761132352738231300,3.456231201171875,0.0146352590739727,-0.045144123377837235,-0.023106004168838262
1761132352758078200,3.476078125,0.012521627920866012,-0.0006566738104447723,-0.021479864271730185
1761132352777926100,3.495926025390625,-0.02182137118577957,0.021801168647967276,-0.04826178047433495
1761132352797774000,3.515774169921875,-0.0003004442512989044,-0.026927389087900516,-0.0930434637479484
1761132352817622300,3.535622314453125,0.05214461325705051,-0.023198943149298427,-0.05447729398831725
1761132352837469200,3.55546923828125,0.02197860757410526,0.06533763763345778,-0.016631255196779965
1761132352857317000,3.575317138671875,-0.05298340216875076,0.10111775687113404,-0.01833791298419237
1761132352877165000,3.5951650390625,-0.028322423642873764,0.04312744979318231,-0.0927687384597957
1761132352897013200,3.61501318359375,0.015766308930516244,0.03703815647475421,-0.13156067979931832
1761132352916860200,3.634860107421875,0.1251379532754421,-0.02398180062267929,-0.09693857149034737
1761132352936708000,3.6547080078125,0.08303250347375869,-0.011931918399408459,-0.07000204924792051
1761132352956556000,3.67455615234375,0.009330722925066948,0.05871284919884055,0.04794730769768357
1761132352976404200,3.694404296875,-0.12397300114929675,0.04699793455097824,0.12028700611293315
1761132352996251100,3.714251220703125,-0.08468728494346141,-0.0038927331222221254,0.09463818559348583
1761132353016099300,3.734099365234375,-0.024892449194192885,-0.004003865346498787,0.09422975092306733
1761132353035947000,3.753947021484375,0.013950199419260024,-0.03579038490336388,-0.0002446224108338356
1761132353055794400,3.77379443359375,-0.10621814875006676,-0.021959610612690448,-0.10469400792270898
1761132353075641300,3.793641357421875,-0.11948913373351096,0.018033413612283763,-0.11526011786162853
1761132353095489500,3.813489501953125,0.010717208847403526,0.05357599776703864,-0.1436447930857539
1761132353115337700,3.833337646484375,0.062008420145511625,0.06037468146383762,-0.11317921993434428
1761132353135185400,3.853185302734375,0.1046522146075964,0.06810249923691153,-0.0708485830746591
1761132353155032300,3.8730322265625,0.041564182531833645,0.047940731826424596,0.02361015429869294
1761132353174880500,3.892880615234375,-0.022530980759859084,-0.012130509711429475,0.018084668875485658
1761132353194728700,3.912728759765625,-0.05151742126941681,-0.04701210920680314,0.024873598363250492
1761132353214576400,3.932576416015625,-0.05354454318284988,-0.015565379530936478,0.07480418883264064
1761132353234423300,3.95242333984375,-0.09948153397142886,0.031157866264507172,0.09880378084033727
1761132353254271500,3.972271484375,-0.12413958988785743,0.03848243699893355,0.08418401159644126
1761132353274119700,3.99211962890625,-0.03142038965821266,0.021193083219602702,-0.0259592016428709
1761132353293967400,4.01196728515625,0.024546412235498426,0.014888466650061308,-0.09319719300493598
1761132353313814500,4.031814453125,0.07025485496520996,0.04129311050549149,-0.10886764034554362
1761132353333662500,4.051662353515625,0.06656418375372886,0.043004736728966236,-0.047396834208071226
1761132353353510700,4.0715107421875,-0.025173604223132133,0.02844579429421574,-0.03657821081280708
1761132353373358600,4.091358642578125,-0.03572422433197498,0.013602408894896506,-0.010007160881906747
1761132353393205500,4.11120556640625,-0.014649872121214866,0.003331847836449742,-0.03788768597617745
1761132353413053400,4.131053466796875,0.015933482190966606,-0.002853270539268851,-0.018987316803634167
1761132353432901600,4.150901611328125,-0.05059738381505012,-0.01730542813129723,-0.016452829889953134
1761132353452749600,4.17074951171875,-0.1121153900951147,0.008177461236715316,-0.019602672223001716
1761132353472596500,4.190596435546875,-0.03648059565722942,0.015472988539747892,0.002161269687116146
1761132353492444400,4.2104443359375,0.10115209753215312,-0.016903971190936864,0.02925327475219965
1761132353512292600,4.230292724609375,0.057041737648844716,-0.007612959221750497,0.07373831316679716
1761132353532140500,4.250140625,0.03750292444229126,-0.03717657856475562,0.10529884194806217
1761132353551987500,4.269987548828125,0.05989478899240493,-0.03259546131957322,0.14995806788578628
1761132353571835400,4.28983544921875,-0.05953355446457863,-0.017425547379627822,0.07247676879838108
1761132353591683300,4.309683349609375,-0.12632161010205745,-0.013975881849788128,-0.004902238958328962
1761132353611531500,4.329531494140625,-0.11422609863877296,-0.030257337228208777,-0.048376492895185946
1761132353631378400,4.34937841796875,-0.029526538735628126,0.02240139956343919,-0.006174450851231813
1761132353651226600,4.3692265625,0.12382453258931636,-0.01483567701689899,0.0006907587431371212
1761132353671074300,4.38907421875,0.23749065925776958,-0.03993873675446957,-0.10669994091764091
1761132353690922500,4.408922607421875,0.1939800188332796,-0.04772986555472016,-0.05063815421685576
1761132353710770700,4.428770751953125,-0.041082536494731904,-0.002782068466581404,-0.01618687243014574
1761132353730618400,4.448618408203125,-0.19945289728641508,-0.0120881318744272,0.0170250768199563
1761132353750466600,4.468466552734375,-0.2699053206503391,0.02615994837936014,0.004351473207771778
1761132353770313500,4.4883134765625,-0.16153963847756383,0.00126991033796221,0.016165245120227337
1761132353790161700,4.50816162109375,-0.09966039766967295,-0.01962017134707421,-0.04037219626829028
1761132353810009600,4.528009521484375,-0.13655717291235922,-0.02526343793105334,-0.12493585483208298
1761132353829857500,4.547857421875,-0.11534721162319182,0.010310929601453245,-0.14139891385510564
1761132353849705500,4.56770556640625,-0.12443944961726665,0.03779354141931981,-0.13248437051549553
1761132353869552600,4.587552734375,0.04778641804754734,0.020127792075648902,-0.036209231369942425
1761132353889400600,4.607400634765625,0.10922960552573203,0.03331814957093447,0.04776742108613252
1761132353909248500,4.62724853515625,0.15835399417877197,-0.012490100271441042,0.10865063659399747
1761132353929095400,4.647095458984375,0.13073416584730146,-0.07052347930613904,0.09134835026785731
1761132353948943600,4.666943603515625,0.11106208164989947,-0.05444759296979755,0.051867403750866646
1761132353968791600,4.68679150390625,-0.04667407289147377,-0.019913455205224452,0.15732582017481325
1761132353988639500,4.706639404296875,-0.14233458727002143,-0.00796787360664457,0.05946195053309202
1761132354008486400,4.726486328125,-0.09813128840625286,0.0010484130743891,0.01776639670655131
1761132354028334600,4.74633447265625,-0.013971242207288742,0.0329571707714349,0.04852656889036298
1761132354048183600,4.76618359375,0.06292085881531238,0.06387395828906446,0.0582668955296278
1761132354068031500,4.786031494140625,0.2109334917217493,0.051241709600575266,0.06630597120895981
1761132354087879400,4.80587939453125,0.1075274777829647,0.05715272374264896,0.02169087667390704
1761132354107726600,4.8257265625,-0.09836100550889969,0.058798189394734794,-0.016506167512387038
1761132354127574500,4.845574462890625,-0.11033844355046749,0.036236594300903376,0.017975217151641843
1761132354147422500,4.86542236328125,-0.057121232625842094,-0.015815262638777493,-0.027013094609975814
1761132354167269400,4.885269287109375,-0.019770868396759032,0.0011092033509165049,-0.08853767676129937
1761132354187117600,4.90511767578125,-0.0129448217689991,0.02364708877559751,-0.12174465757533907
1761132354206965500,4.924965576171875,-0.08283785768449306,0.029328933804295954,-0.09951718980669974
1761132354226813400,4.9448134765625,-0.1492728621006012,0.0015196107827126978,-0.072171063850075
1761132354246660400,4.964660400390625,-0.045589200264215465,-0.08664006297904997,-0.07212196401134133
1761132354266508500,4.984508544921875,0.00964344213604927,-0.06257953456435353,-0.022635025656223298
1761132354286356500,5.0043564453125,-0.004045475998520851,-0.022816081311553715,0.03137932699546218
1761132354306204700,5.02420458984375,0.005102291575074196,0.015058416389487683,0.04923384037688374
1761132354326051600,5.044051513671875,0.11961012976467608,-0.02525905401688069,0.09235241274386644
1761132354345899500,5.0638994140625,0.16498481049537658,-0.021185922826454043,0.12679843383356929
1761132354365747500,5.08374755859375,0.05867489180862903,0.014561426652781664,0.19232143797129392
1761132354385595600,5.103595703125,-0.009617138651013374,-0.02239573700763285,0.12205270061120391
1761132354405442600,5.123442626953125,-0.06989888113439083,-0.06781966370753943,0.011951426817476749
1761132354425290200,5.143290283203125,-0.1040466499298811,-0.055155266315117475,-0.04140767679587006
1761132354445138400,5.163138427734375,-0.14447569095194338,-0.019426329275406894,-0.09098989221900701
1761132354464986600,5.182986572265625,-0.07689268554449082,0.004725019227899611,-0.10490502032488584
1761132354484833500,5.20283349609375,0.019259996265172958,-0.045462432079389686,-0.17429799776375293
1761132354504681500,5.222681396484375,0.05461655632853508,-0.04675371399894356,-0.1865222501732409
1761132354524529400,5.242529296875,-0.0029909985095262527,-0.02126286052018404,-0.12903335327878593
1761132354544377600,5.262377685546875,-0.03087736882269382,-0.03345711965020746,-0.05897767414748668
1761132354564224500,5.282224609375,-0.10380348882377147,-0.07363576610777527,-0.046470513143390416
1761132354584072400,5.302072509765625,-0.07307575760483741,-0.07876432463526725,0.01329465811997652
1761132354603920400,5.32192041015625,0.025216274321079254,-0.03139923727232963,0.07638005984723567
1761132354623768600,5.3417685546875,0.02547697108387947,-0.027834493995457885,0.07483516849279404
1761132354643615500,5.361615478515625,-0.034650457620620724,-0.010300992729328572,0.04175722088590264
1761132354663463400,5.38146337890625,0.005899579432606696,-0.057584831549599765,0.02665156782120466
1761132354683311400,5.401311279296875,0.018620529317855832,-0.09320745867062359,-0.06844502906426787
1761132354703159600,5.42115966796875,0.10852584117054939,-0.05027785127079114,-0.03800809748545289
1761132354723006500,5.44100634765625,0.060714288681745526,-0.013884970429632812,-0.02482552143782377
1761132354742854400,5.4608544921875,-0.039811201384663576,-0.03452756189331412,0.024781390035152433
1761132354762702600,5.48070263671875,-0.10502104791998862,0.027055435914359986,0.06824979875311254
1761132354782550500,5.500550537109375,-0.02616670691370964,0.04945150171555578,0.10166662292554975
1761132354802397400,5.5203974609375,0.0005997194588184357,0.02233180492594838,0.05109641937837004
1761132354822245400,5.540245361328125,0.022260347124934195,-0.009759268801752477,-0.024281769949942827
1761132354842093600,5.560093505859375,0.057546180039644235,0.03309484394276514,0.002607113758474588
1761132354861941500,5.57994140625,0.025032734447717666,0.02096272679613903,0.004083031529933214
1761132354881788400,5.599788330078125,-0.003142389678955078,0.03517557747326791,0.02790945892781019
1761132354901636400,5.61963623046875,-0.12205284674167632,0.021189722218737005,0.009552256721258163
1761132354921484500,5.639484619140625,-0.10948387254774569,0.024702278650645164,-0.07707944028824568
1761132354941332500,5.65933251953125,0.009463993915915488,0.027178843098320065,-0.05016133048534393
1761132354961179400,5.679179443359375,0.03588613689541816,0.020770400828123092,-0.07880451051518321
1761132354981027300,5.69902734375,0.037601124119758605,0.017400449470989406,-0.08242913075312971
1761132355000875500,5.71887548828125,-0.04616612336933613,0.02288140163272619,-0.10929258775934576
1761132355020723500,5.738723388671875,-0.04798106383681297,0.03435830627363175,-0.11974909984394908
1761132355040570600,5.758570556640625,0.016710311782360075,0.07984696877282112,-0.06097586222738027
1761132355060417800,5.778417724609375,0.09182488173842429,0.04500383812431246,-0.08203560139089822
1761132355080266000,5.798265869140625,0.02684942848086357,0.004038936659879982,-0.07155483164787292
1761132355100114200,5.8181142578125,-0.09087211105823516,0.03784461401943117,-0.0036249124988913532
1761132355119961000,5.837961181640625,-0.04145370789468288,0.05282726175896823,0.04895663087069988
1761132355139808800,5.857808837890625,0.03515197740197182,0.038079482221230865,0.016921470315009353
1761132355159657000,5.877656982421875,0.04890285485684871,0.048296413396298886,0.03313376944735646
1761132355179505200,5.897505126953125,-0.0003092120796442032,0.025532975587435065,0.028465923766791818
1761132355199352000,5.91735205078125,-0.059573886474967,0.004962298582494259,0.0028783319152891635
1761132355219200000,5.937199951171875,-0.05689326908886432,0.01432261292822659,0.024618162297457453
1761132355239048000,5.9570478515625,-0.050939329120516776,0.013342442784458399,-0.00242883458212018
1761132355258896100,5.976896240234375,0.007801029139757156,-0.03667549717482179,-0.017059709741920233
1761132355278743000,5.996742919921875,0.12944529508054256,-0.056922422118112444,-0.04057341792881489
1761132355298591000,6.016591064453125,0.14283961418271063,-0.024343692737631498,0.03864113469198346
1761132355318439000,6.03643896484375,-0.03664835343956947,-0.03706424076408148,0.08348653085157275
1761132355338287000,6.056287109375,-0.19434300692677497,-0.012890899624675512,0.05347893060073256
1761132355358134000,6.076134033203125,-0.17456220165789127,-0.060898595740087325,-0.022226883246749637
1761132355377982000,6.09598193359375,0.01981061588525772,-0.06540438272673636,-0.04545958253517746
1761132355397830000,6.115829833984375,0.09556114565730095,-0.024746684047952293,-0.006406652171909809
1761132355417678000,6.135677978515625,-0.009745733466744422,0.004627184876613319,-0.0025619594424962995
1761132355437525000,6.15552490234375,-0.0893541077107191,-0.009789024619199335,-0.03484408049657941
1761132355457373000,6.175373046875,-0.07199030045568942,-0.022158530718274415,-0.041264030541479584
1761132355477221000,6.19522119140625,0.010527239233255386,0.0037858752142637966,-0.08306713639572262
1761132355497069000,6.215069091796875,0.1079629465907812,-0.004029766972735524,-0.018408347871899603
1761132355516916000,6.234916015625,0.08684183262884616,-0.07325221015028655,-0.04399330937489867
1761132355536764000,6.254763916015625,0.08743629139065742,-0.051928267092630265,-0.031564035912603136
1761132355556612000,6.274612060546875,-0.038705285969376564,-0.06772241387814283,0.058333531025052066
1761132355576460000,6.2944599609375,-0.18015256901085375,-0.02192161668986082,0.0631153584741056
1761132355596307000,6.314306884765625,-0.10399170487225055,-0.06739296272806823,0.09428805698156356
1761132355616155000,6.33415478515625,0.029819384202361104,-0.04063530418388545,0.08697992592528461
1761132355636003000,6.354003173828125,0.10987433317005633,-0.011108436654694378,0.07775646276697516
1761132355655851000,6.37385107421875,0.044646366456151006,-0.03373443875424564,0.06266688405424356
1761132355675698000,6.393697998046875,-0.020392215165495872,-0.026705745693854987,0.002927577884495258
1761132355695545900,6.4135458984375,-0.1203238309919834,0.016889686937257647,0.007006956152617931
1761132355715394000,6.43339404296875,-0.19918752434849737,0.024803674932196734,-0.0305079509884119
1761132355735242000,6.453241943359375,-0.030568741264939307,-0.025489574837125835,-0.011624532950669526
1761132355755089200,6.473089111328125,0.15253274067938327,-0.01640150156151503,-0.04623378177806735
1761132355774936800,6.492936767578125,0.13177110767960548,0.015272022607550024,-0.06354308236688375
1761132355794785000,6.512784912109375,-0.060517889326810834,0.1571917819989845,-0.00836158563196659
1761132355814633000,6.532633056640625,-0.1189163022816181,0.1829382176740095,0.0024641981564462183
1761132355834480000,6.552480224609375,-0.10548282021284103,0.02583995917737484,-0.05934650745987892
1761132355854327800,6.572327880859375,0.023873043018579482,-0.053874505789577955,-0.11235738215744495
1761132355874176000,6.592176025390625,-0.009257657688856124,-0.005352320813387632,0.015409019925445317
1761132355894024000,6.61202392578125,-0.12058335871100424,0.022321173934079706,0.02926759553849697
1761132355913871000,6.63187109375,-0.21852233941555022,0.03772003779169172,0.05436389674171805
1761132355933719000,6.651718994140625,-0.16205343321859836,0.02111143281813711,0.04044569989591837
1761132355953567000,6.67156689453125,0.027247487887740132,0.013454999780841172,0.020325579670071602
1761132355973415000,6.691414794921875,0.1389250710874796,0.07117591533288359,0.09814560919255018
1761132355993262000,6.711261962890625,0.23297347409427166,0.0006467369383201003,0.05238938179835677
1761132356013110000,6.731110107421875,0.13732757276296614,0.029303141775913536,0.00906111220344901
1761132356032958000,6.7509580078125,-0.04330605776309967,0.06854399592671542,0.01590469448789954
1761132356052806400,6.770806396484375,-0.2368406709164381,0.1297359120575711,-0.027966449812054633
1761132356072653300,6.7906533203125,-0.03604746493697166,0.022430589125305413,-0.05966945580393076
1761132356092501500,6.81050146484375,0.04431201993525028,0.05252221439778804,-0.07689590041488409
1761132356112349200,6.83034912109375,0.06380991660952567,0.06924933118447661,-0.05954056872725486
1761132356132197400,6.850197265625,0.08054419378936291,0.06835709505248815,-0.04757920503765344
1761132356152044300,6.870044189453125,0.03079378219246864,0.04628573116101324,-0.018462854538112878
1761132356171892500,6.889892578125,0.012031798577308654,0.004047558357752859,-0.03728928169161081
1761132356191740200,6.909740234375,-0.046990883755683895,0.03203552588187158,0.019905746822804212
1761132356211588400,6.92958837890625,0.01564998907446861,0.02763637760747224,0.046585810086131094
1761132356231435300,6.949435302734375,-0.02040098299384117,0.0012731982735916972,0.050897389674931764
1761132356251283500,6.969283447265625,-0.08257716092169284,-0.04068316191360354,0.009058774115890265
1761132356271131400,6.98913134765625,-0.10762392389476298,-0.02714296806734055,-0.007921879040449857
1761132356290979300,7.008979248046875,-0.059417234608530996,-0.022525793128088115,-0.014466332247853278
1761132356310826200,7.028826171875,-0.004609539622068405,-0.01094352841656655,-0.05504705670028925
1761132356330674400,7.04867431640625,0.10129588991701602,-0.002759235580265522,-0.020367665246129034
1761132356350522400,7.0685224609375,-0.00812719235420227,0.018681502257473767,-0.03946034212037921
1761132356370370300,7.088370361328125,-0.09520692539215088,0.04493899272717535,0.006623802053928375
1761132356390217200,7.10821728515625,-0.06389350323975086,0.05822038950677961,0.054894934878498315
1761132356410065400,7.1280654296875,0.10027999087274074,-0.062300388829410074,-0.028366262784600256
1761132356429913300,7.147913330078125,0.040838790866732595,-0.018947203988954425,-0.05439283057525754
1761132356449761300,7.16776123046875,0.024117373168468473,-0.003505743098631501,0.01114274078309536
1761132356469608200,7.187608154296875,-0.11276713200211524,0.009017273061722517,0.02796805724725127
1761132356489456400,7.207456298828125,-0.15465630870461464,0.008781929935887455,0.030610680710524318
1761132356509304300,7.22730419921875,-0.008754968863725662,-0.05042937030438333,-0.01302124800607562
1761132356529152500,7.247152587890625,0.1471890415638685,-0.05533931764513254,-0.06927227366864681
1761132356548999400,7.26699951171875,0.05759411083459854,0.01995678289029747,0.007006956152617931
1761132356568847400,7.286847412109375,-0.054767362976074214,0.011573241154849529,0.03851224761530757
1761132356588695300,7.3066953125,-0.03640343876779079,-0.015801161048188805,0.05307181110456585
1761132356608543500,7.32654345703125,0.09669804073274135,-0.005984115910902619,0.03997282168716192
1761132356628390400,7.346390380859375,0.07735211974978447,0.013595723425783217,0.05170388375222683
1761132356648238300,7.36623828125,-0.082034140086174,0.008648914673365652,-0.017007395032793284
1761132356668086300,7.386086181640625,-0.1346983933031559,0.005091039528697729,-0.05000117148756981
1761132356687934500,7.4059345703125,-0.07290332364737986,-0.027434607957676053,-0.14037293180823326
1761132356707781400,7.425781494140625,0.07090601235032082,-0.007871719755791127,-0.1147461769901216
1761132356727629300,7.44562939453125,0.1254436582237482,0.007375789465010166,-0.05030789934918284
1761132356747477200,7.465477294921875,0.08132160790264606,-0.0032762086590752003,-0.016705489476770162
1761132356767325400,7.485325439453125,-0.02171148107051849,-0.023653262788057326,0.00139817636013031
1761132356787172400,7.50517236328125,-0.07238017655611038,-0.07099785535223782,0.044389030694216486
1761132356807020500,7.5250205078125,-0.08024199597239494,-0.0846183478930965,0.02603109783530235
1761132356826868200,7.5448681640625,-0.08213993854820728,-0.09282218568008392,0.07241232526004314
1761132356846716400,7.56471630859375,-0.029126725763082503,-0.08347571719661355,0.08844196130186319
1761132356866563300,7.584563232421875,-0.004655716851353645,-0.06848207313902675,0.0867792887866497
1761132356886411500,7.60441162109375,0.014296236377954482,-0.03586085632368922,0.036777386646717786
1761132356906259200,7.62425927734375,0.059705988422036164,-0.018313691858388482,0.013233137191087006
1761132356926107400,7.644107421875,0.02616495334804058,0.012154328978434204,0.01818506051003933
1761132356945954300,7.663954345703125,-0.1057540383696556,0.06960373411271721,0.03269815450906753
1761132356965802500,7.683802490234375,-0.14124036229252815,0.05869388877004385,-0.09131094086691736
1761132356985650200,7.703650146484375,-0.03260989170372486,0.001120491929911077,-0.20135668508112428
1761132357005498400,7.723498291015625,0.09595452888906002,-0.022447138401307163,-0.25677096765860913
1761132357025345300,7.74334521484375,0.11515198131203651,0.002768113006465137,-0.19330051213651894
1761132357045193500,7.763193359375,0.04598375253975391,-0.004674677280150354,-0.05937894842475652
1761132357065041400,7.78304150390625,-0.050931730335950845,0.013664368215203284,0.07006766183003783
1761132357084889300,7.802889404296875,-0.1783820522069931,-0.030298838282376526,0.11671075506135821
1761132357104736300,7.822736328125,-0.13068857313990592,-0.06732804426569491,0.09812719675302504
1761132357124584400,7.84258447265625,-0.010388707545399665,-0.048500922992452976,0.09071662823557854
1761132357144432400,7.862432373046875,0.007048749467730522,-0.008750329221226275,0.11167217637225985
1761132357164280300,7.8822802734375,0.0184258835285902,-0.015982910823263228,0.09471943413615226
1761132357184127200,7.902127197265625,0.03342062356472015,-0.021784546306729314,-0.0070199617646634575
1761132357203975400,7.921975341796875,0.03232347597777843,0.038395635498315095,-0.029859277821332214
1761132357223823400,7.9418232421875,-0.027375498181581494,0.09501520221233367,-0.07190598317310214
1761132357243671300,7.96167138671875,0.0039987142473459246,0.10137509263306856,-0.05037891875877976
1761132357263518200,7.981518310546875,-0.01682370902895927,0.06428885923288762,-0.0849295692667365
1761132357283366400,8.001366455078125,-0.04397650437057018,0.045267128702998156,-0.0902823284715414
1761132357303213300,8.02121337890625,-0.06436404336094856,0.052817909408733245,-0.07353928346335888
1761132357323061200,8.041061279296875,-0.06986614790856838,0.05747205535750836,-0.032941169484704734
1761132357342908400,8.060908447265625,-0.040163083562254905,0.03507047313097864,-0.024422055203467605
1761132357362756400,8.08075634765625,0.001004208606481552,0.02707794000711292,0.020467033967375755
1761132357382604300,8.100604248046874,-0.026983868515491484,0.08220562419556081,0.07233414545729756
1761132357402452200,8.1204521484375,0.006937690308690071,0.010272570352442561,0.018942893140017986
1761132357422299400,8.14029931640625,0.025617840859293937,-0.025154241935536264,-0.011050970846414565
1761132357442147300,8.160147216796876,0.018610592445731163,0.011518040368892252,0.05805003790855407
1761132357461995300,8.179995361328125,-0.04699906706213951,0.031610322739742694,0.11267302397787571
1761132357481843200,8.19984326171875,-0.037595863422751424,0.007041479476727545,0.02923033226802945
1761132357501690400,8.2196904296875,0.11664075856506824,-0.022124628448672592,-0.023891747719049453
1761132357521538300,8.239538330078124,0.07288344990313053,0.040319260504655535,0.018870120164752004
1761132357541386200,8.25938623046875,-0.06783961051702499,0.07726659689079969,0.015322510685771703
1761132357561234200,8.279234130859376,-0.0556482374638319,0.02968994913641363,-0.02318915240764618
1761132357581081300,8.299081298828124,0.0415793801009655,-0.05364011251181364,-0.11793269807174801
1761132357600929300,8.31892919921875,0.12674012777507304,-0.06962758991234004,-0.09961860435456037
1761132357620777500,8.338777587890625,-0.01279576868712902,0.029683300199918446,0.013368307878077029
1761132357640625200,8.358625244140624,-0.176608612793684,0.03289159472193569,0.0742921476572752
1761132357660472300,8.378472412109375,-0.12114683781266211,-0.025162132981047032,0.04689136890396475
1761132357680320300,8.3983203125,-0.022304770788550376,-0.0774839659685269,0.036822687093168494
1761132357700168400,8.41816845703125,-0.014577391406893729,-0.008981215367652475,0.05208090037107467
1761132357720016100,8.43801611328125,-0.014933365237712859,0.029215500025078653,0.06548880960717797
1761132357739864300,8.4578642578125,-0.01667699403464794,-0.015327406056597827,-0.012100772160291672
1761132357759712500,8.47771240234375,0.046803836750984186,-0.0819740439293906,-0.08456789634749293
1761132357779559400,8.497559326171874,0.02619067231118679,-0.07565949048772454,-0.03379851696640253
1761132357799407400,8.517407470703125,-0.07837912470996379,-0.035456038382463154,0.018800708190351723
1761132357819255300,8.53725537109375,-0.09444529336988926,0.005283858687058091,0.03746931443363428
1761132357839103200,8.557103271484374,0.00400455946624279,-0.03774582982007414,0.04223375235646963
1761132357858950400,8.576950439453125,0.029133155503869055,-0.019406893922574817,-0.002088935103267431
1761132357878798300,8.59679833984375,0.05088847571611404,-0.0021727043965831397,-0.0051629357211291785
1761132357898646300,8.616646240234376,0.019277531921863555,0.037421712432242925,0.005672200417518616
1761132357918494200,8.636494140625,-0.033821021059155465,-0.022443777400441466,-0.07427695008814335
1761132357938341400,8.65634130859375,-0.028756723406910895,-0.07603829720485955,-0.07888926618918776
1761132357958189300,8.676189208984376,-0.02777355758845806,-0.000761851217970252,-0.014142214860022068
1761132357978037200,8.696037353515624,-0.0635433746278286,0.030388927718624472,0.03802884801253676
1761132357997885200,8.71588525390625,-0.11223112542927265,0.00572319995239377,-0.01840074908733368
1761132358017732400,8.735732421875,-0.075851652058959,-0.018393515628948805,-0.0455421462520957
1761132358037580300,8.755580322265626,-0.026588147196173667,0.040591720770485694,0.016088965013623238
1761132358057427700,8.775427734375,0.08248831359446049,0.03370166899580508,0.030822716026008126
1761132358077275600,8.795275634765625,0.08065233033895491,0.01551131125614047,0.06160422325879335
1761132358097122600,8.81512255859375,-0.009814122527837752,0.030644692577980456,0.06919497064873575
1761132358116970800,8.834970703125,-0.11480477530956268,0.03442921608537435,0.10829890054687857
1761132358136818700,8.854818603515625,-0.04613806631863117,0.007251724693924188,0.08406593817472457
1761132358156667000,8.8746669921875,0.0405728334069252,0.03235178875681013,0.04156125992238521
1761132358176513800,8.894513671875,0.020295184531807897,0.0005348740616813301,-0.07391045486330985
1761132358196361700,8.91436181640625,-0.017335165682435035,0.021474968900904057,-0.07324190795198082
1761132358216209700,8.934209716796875,0.026028759747743605,0.027948987220600244,-0.014412117842584848
1761132358236057900,8.954057861328126,-0.00511865818798542,-0.003128543816693127,0.006670271544158458
1761132358255904800,8.97390478515625,-0.05130290173590183,-0.01782104950323701,0.022282266695797442
1761132358275752700,8.993752685546875,-0.03357844447493553,-0.0017914134614169597,0.038943478639423844
1761132358295600600,9.0136005859375,-0.05771744495332241,0.014896248097717762,-0.01688990613296628
1761132358315448800,9.03344873046875,-0.006536123770475387,0.018515169247239827,0.014753332495689392
1761132358335296500,9.053296630859375,0.08934417083859443,-0.022464235666580498,0.000011105915904045104
1761132358355143700,9.073143798828125,-0.033116672182083126,-0.022649456040374934,-0.043895401958376164
1761132358374991600,9.09299169921875,-0.03906652049720287,0.0007996259450912475,-0.030459435671567916
1761132358394839800,9.11283984375,-0.060606736654043196,0.08227832410559058,0.04575856548175215
1761132358414687700,9.132687744140625,0.04805880524814129,0.019218422145769,0.013847615827620029
1761132358434535000,9.152534912109376,0.11004442903995514,-0.05674008782114833,-0.02625643102377653
1761132358454382600,9.172382568359374,0.028927988320589064,-0.04119107490312308,-0.0031191549338400364
1761132358474230800,9.192230712890625,-0.0988572645932436,-0.02352934414744377,0.019067980824410913
1761132358494078700,9.21207861328125,-0.12555939355790616,0.01661218517012894,0.02533493226468563
1761132358513926000,9.23192578125,-0.05589724378883838,-0.007538505746051668,-0.029535014303028583
1761132358533773600,9.251773681640625,-0.010081833553314209,-0.02116458777748048,-0.045583939567208284
1761132358553621800,9.271621826171875,0.012553192102909087,-0.0022405820010229943,-0.06663023472726344
1761132358573469700,9.2914697265625,0.026520927178859708,0.023088468512147662,-0.012168430569022894
1761132358593316900,9.31131689453125,0.007246902388334274,0.006688428255356848,-0.006052431906759739
1761132358613164500,9.33116455078125,-0.00566635519862175,-0.06858465673066676,-0.030684768860042094
1761132358633012700,9.3510126953125,-0.0035176527321338653,-0.050557563261315226,-0.022758359774947164
1761132358652860700,9.370860595703125,0.013823358169198035,0.03333981341347098,0.031709143471717834
1761132358672707800,9.390707763671875,-0.032041151905059816,0.03418605497926473,0.03809884450882673
1761132358692555800,9.4105556640625,0.010209843847155571,-0.02722195158768445,-0.038436698161065576
1761132358712403700,9.43040380859375,-0.027167992910742757,-0.033059206373803315,-0.04424830704927444
1761132358732251600,9.450251708984375,-0.05539689305126667,0.027038777040503916,0.03666647361814976
1761132358752098800,9.470098876953125,-0.07358370712697505,0.0688300828590989,0.0664050476692617
1761132358771946800,9.48994677734375,0.002971709287166595,0.04536028687916696,-0.025808541125804184
1761132358791794700,9.509794677734375,0.17912381048500536,-0.013507497153058648,-0.09263020677193999
1761132358811642600,9.529642578125,0.08682780410349368,-0.036435477873869235,-0.15188655173033475
1761132358831489800,9.54948974609375,-0.034657471883296966,0.02199501071963459,-0.05522285165861249
1761132358851337700,9.569337646484374,-0.13161153320372104,0.006420388436317443,0.01380947577431798
1761132358871185700,9.589185546875,-0.20576222656369209,-0.009587693360820411,0.03395677626803517
1761132358891033600,9.60903369140625,-0.006436755049228668,-0.026886143762059507,-0.0020170389108359814
1761132358910880800,9.628880859375,0.144513684874773,0.005554346191510558,-0.015118512546271085
1761132358930728700,9.648728759765625,0.12634674454331396,0.04155753359533846,0.07332900171354413
1761132358950577000,9.668576904296875,0.09843757787644862,0.007470007087104022,0.08099369112253188
1761132358970424600,9.688424560546874,0.5161661463409662,-0.1545061596442014,0.080723057487607
1761132358990271700,9.708271728515625,0.5042874924987554,-0.05227138144187629,-0.04870265610963106
1761132359010119700,9.72811962890625,-0.0757774177789688,0.15975253586508334,0.05033376444280147
1761132359029968000,9.7479677734375,-0.15426584808230398,0.015744170163944363,0.08315247659161687
1761132359049815600,9.767815673828125,-0.2799357162773609,-0.09384053240977228,-0.062144321484863756
1761132359069663700,9.787663818359375,-0.3927431802898645,-0.10095957063473761,-0.1411339793086052
1761132359089511700,9.80751171875,-0.4557201532065868,-0.050582405441626906,-0.013195581659674644
1761132359109359600,9.827359619140625,-0.4364852913826704,-0.07001293596811592,-0.0018909283131361007
1761132359129207600,9.84720751953125,-0.3389309260815382,0.03339388168826699,-0.03587663841471076
