time,seconds_elapsed,z,y,x
1761132349364114400,0.082114501953125,0.04888945445418358,-0.000830936711281538,0.039886265993118286
1761132349383961300,0.10196142578125,0.043369412422180176,-0.010153348557651043,0.023485183715820312
1761132349403809500,0.1218095703125,0.027902726083993912,-0.003191783092916012,-0.016271062195301056
1761132349423657500,0.141657470703125,0.0009762647678144276,0.006913218647241592,-0.018620505928993225
1761132349443505400,0.16150537109375,-0.02856120839715004,0.003591891610994935,-0.0029572900384664536
1761132349463352300,0.181352294921875,-0.04308818653225899,-0.004348410293459892,0.012907180935144424
1761132349483200500,0.201200439453125,-0.046982262283563614,-0.01570972055196762,0.02209135703742504
1761132349503048400,0.22104833984375,-0.05380486696958542,-0.008975448086857796,0.01516823098063469
1761132349522896600,0.240896728515625,-0.04152299091219902,-0.005743986926972866,-0.002209841273725033
1761132349542743600,0.26074365234375,-0.025807147845625877,0.0017746498342603445,-0.010930095799267292
1761132349562591500,0.280591552734375,-0.011390618048608303,0.0008410417940467596,-0.002941143698990345
1761132349582439400,0.300439453125,0.00402062525972724,-0.0062353648245334625,0.0021011140197515488
1761132349602287600,0.32028759765625,0.021746093407273293,-0.006226576864719391,-0.010327591560781002
1761132349622134500,0.340134521484375,0.028912531211972237,-0.009685691446065903,0.0017912192270159721
1761132349641982500,0.359982421875,0.044035959988832474,-0.01738029718399048,0.024034038186073303
1761132349661830400,0.379830322265625,0.04987924173474312,-0.01727171242237091,0.009725695475935936
1761132349681678600,0.3996787109375,0.03819652274250984,0.004404908046126366,-0.0232935082167387
1761132349701525500,0.419525390625,0.022319884970784187,0.01635909266769886,-0.026193881407380104
1761132349721373400,0.43937353515625,0.02656758949160576,0.019631223753094673,0.006430638954043388
1761132349741221400,0.459221435546875,0.02437848411500454,-0.004022729583084583,0.01888859272003174
1761132349761069600,0.479069580078125,0.015738781541585922,0.0006030052900314331,0.006414491683244705
1761132349780916500,0.49891650390625,-0.00234516360796988,0.010996701195836067,0.00007336167618632317
1761132349800764700,0.5187646484375,-0.011446105316281319,0.009410278871655464,-0.003930655773729086
1761132349820612400,0.5386123046875,-0.013304924592375755,0.017281942069530487,0.004886902403086424
1761132349840459500,0.55845947265625,-0.023626256734132767,0.026742277666926384,-0.02111181989312172
1761132349860307500,0.578307373046875,-0.022051168605685234,0.030934643000364304,-0.03910505771636963
1761132349880155600,0.59815576171875,-0.014552021399140358,0.014223345555365086,-0.033968281000852585
1761132349900003300,0.61800341796875,-0.005115109961479902,0.010404638946056366,0.006900856737047434
1761132349919850500,0.6378505859375,0.0003555556177161634,0.005311609245836735,0.027121707797050476
1761132349939698400,0.657698486328125,-0.0011689666425809264,0.0013986912090331316,0.014220651239156723
1761132349959546600,0.677546630859375,0.008153439499437809,0.0014305172953754663,0.006697949022054672
1761132349979394600,0.69739453125,0.015594972297549248,0.020112790167331696,-0.0015965630300343037
1761132349999241500,0.717241455078125,0.01129982527345419,0.0395064614713192,-0.014513693749904633
1761132350019089400,0.73708935546875,0.0033210222609341145,0.046133965253829956,-0.015652921050786972
1761132350038937600,0.7569375,0.0078072091564536095,0.06162382289767265,-0.003757210448384285
1761132350058785800,0.776785888671875,-0.014277467504143715,0.049034491181373596,-0.02605084702372551
1761132350078632700,0.7966328125,-0.009969327598810196,0.06023236736655235,0.0033148862421512604
1761132350098481000,0.81648095703125,-0.011565790511667728,0.019096624106168747,0.04598894342780113
1761132350118328800,0.836328857421875,-0.0004397806478664279,0.006666133180260658,0.052571456879377365
1761132350138177000,0.856177001953125,0.0011339790653437376,-0.014164449647068977,0.038071416318416595
1761132350158024000,0.87602392578125,-0.012971030548214912,-0.023304257541894913,0.01546408049762249
1761132350177872000,0.895871826171875,-0.027097897604107857,-0.030958382412791252,0.014872157946228981
1761132350197719800,0.9157197265625,-0.05627808719873428,-0.02341242879629135,0.014429104514420033
1761132350217568000,0.935568115234375,-0.08008438348770142,-0.005086611956357956,0.021988198161125183
1761132350237415000,0.955414794921875,-0.09725681692361832,0.010980001650750637,0.018521465361118317
1761132350257262800,0.975262939453125,-0.1040882021188736,0.02597721852362156,0.0002889069728553295
1761132350277110800,0.99511083984375,-0.10416403412818909,0.027187904343008995,-0.00959752220660448
1761132350296959000,1.014958984375,-0.09594663232564926,0.03464137390255928,-0.018124844878911972
1761132350316806000,1.034805908203125,-0.07767044752836227,0.035148877650499344,-0.011199437081813812
1761132350336653800,1.05465380859375,-0.053697146475315094,0.04421206936240196,-0.009302055463194847
1761132350356501800,1.074501708984375,-0.025813987478613853,0.02934703417122364,-0.00949869491159916
1761132350376349000,1.094348876953125,0.006367201451212168,0.0014364554081112146,0.005724951159209013
1761132350396196900,1.11419677734375,0.021912788972258568,-0.010554574429988861,0.015795210376381874
1761132350416045000,1.134045166015625,0.029518242925405502,-0.015269167721271515,0.009269134141504765
1761132350435892700,1.153892822265625,0.028732161968946457,-0.015669826418161392,-0.004855255596339703
1761132350455741000,1.173740966796875,0.031572628766298294,-0.026840854436159134,-0.00716803502291441
1761132350475587800,1.193587890625,0.029913706704974174,-0.031370896846055984,-0.0011447463184595108
1761132350495436000,1.21343603515625,0.03881954029202461,-0.042451389133930206,0.002278510481119156
1761132350515283700,1.23328369140625,0.036911655217409134,-0.049304552376270294,-0.0009056190028786659
1761132350535131000,1.253130859375,0.02995993383228779,-0.042908452451229095,0.0014110417105257511
1761132350554978800,1.272978759765625,0.016966693103313446,-0.031550683081150055,-0.0067218393087387085
1761132350574827000,1.292826904296875,0.0010307591874152422,-0.024151727557182312,-0.015898318961262703
1761132350594675000,1.312675048828125,-0.016303500160574913,-0.00940194446593523,-0.008400384336709976
1761132350614521900,1.33252197265625,-0.020745864138007164,-0.00277048721909523,-0.007892906665802002
1761132350634369800,1.352369873046875,-0.04006720706820488,0.008280727081000805,-0.019281674176454544
1761132350654218000,1.372218017578125,-0.05304361507296562,0.01214880682528019,-0.03543931245803833
1761132350674066000,1.39206591796875,-0.059517163783311844,0.01249720435589552,-0.02785215899348259
1761132350693913000,1.4119130859375,-0.06656761467456818,0.012207452207803726,-0.023321855813264847
1761132350713760800,1.4317607421875,-0.05813290551304817,-0.0011034803465008736,-0.03145609423518181
1761132350733609000,1.45160888671875,-0.04376237094402313,-0.013413875363767147,-0.034688398241996765
1761132350753457000,1.471456787109375,-0.037373777478933334,-0.020637312904000282,-0.01755930855870247
1761132350773304000,1.491303955078125,-0.03127394616603851,-0.027079835534095764,0.0002459567040205002
1761132350793151700,1.51115185546875,-0.017770569771528244,-0.027138011530041695,0.001951663289219141
1761132350813000000,1.531,-0.020238935947418213,-0.007841477170586586,-0.00462796725332737
1761132350832848000,1.550847900390625,-0.029056448489427567,0.004783585201948881,-0.01623763144016266
1761132350852695000,1.570695068359375,-0.02601870521903038,0.010941335000097752,-0.029918476939201355
1761132350872543000,1.59054296875,-0.014014585874974728,0.014346780255436897,-0.03026602603495121
1761132350892391000,1.610390869140625,-0.016985535621643066,0.013555304147303104,-0.014168791472911835
1761132350912237800,1.63023779296875,-0.02518378756940365,0.008316338993608952,-0.007466554641723633
1761132350932086000,1.6500859375,-0.02670181356370449,0.017002765089273453,-0.004870630335062742
1761132350951934000,1.669933837890625,-0.024911221116781235,0.014851931482553482,-0.009432598017156124
1761132350971782000,1.689781982421875,-0.036171238869428635,0.01829363964498043,0.001759503036737442
1761132350991628800,1.70962890625,-0.038836173713207245,0.02740432694554329,0.007271860260516405
1761132351011477000,1.72947705078125,-0.040057048201560974,0.03656332194805145,-0.003476876299828291
1761132351031325000,1.749324951171875,-0.03194504976272583,0.043311912566423416,-0.009351346641778946
1761132351051173400,1.76917333984375,-0.01926826685667038,0.028060145676136017,-0.011530760675668716
1761132351071020300,1.789020263671875,-0.0015435521490871906,0.0023028117138892412,0.007348584942519665
1761132351090868500,1.808868408203125,0.013526375405490398,-0.014159930869936943,0.03943827003240585
1761132351110716700,1.828716552734375,0.013352883979678154,-0.009975642897188663,0.06300061196088791
1761132351130564400,1.848564453125,0.01706422120332718,-0.006054720375686884,0.0630376785993576
1761132351150411300,1.868411376953125,0.015302034094929695,-0.0021822573617100716,0.019655924290418625
1761132351170259500,1.888259521484375,0.006948375608772039,0.0021493963431566954,-0.025833483785390854
1761132351190107400,1.908107421875,-0.001595228211954236,0.017157254740595818,-0.01894420012831688
1761132351209955300,1.927955322265625,-0.002631785813719034,0.013596687465906143,0.014310279861092567
1761132351229802500,1.947802490234375,0.004267665557563305,-0.002835282124578953,0.016657855361700058
1761132351249650400,1.967650390625,0.009411470964550972,-0.014540147967636585,0.01240091398358345
1761132351269498400,1.987498291015625,0.019103502854704857,-0.012400796636939049,0.02949286438524723
1761132351289346600,2.0073466796875,0.023471059277653694,0.004855195060372353,0.04761639982461929
1761132351309193500,2.027193359375,0.028890693560242653,0.016191447153687477,0.04019453376531601
1761132351329041400,2.04704150390625,0.03417011722922325,0.007319697178900242,0.008656509220600128
1761132351348889300,2.066889404296875,0.031508076936006546,0.0040204934775829315,-0.004341435618698597
1761132351368737500,2.086737548828125,0.017935357987880707,-0.002089184243232012,0.025918418541550636
1761132351388584400,2.10658447265625,0.009001640602946281,0.0021055424585938454,0.053897276520729065
1761132351408432400,2.126432373046875,-0.0005066384910605848,-0.0014535541413351893,0.04148263484239578
1761132351428280300,2.1462802734375,-0.009235937148332596,0.002372743794694543,0.00526836421340704
1761132351448127500,2.16612744140625,-0.02153392694890499,-0.00106491195037961,-0.002014797180891037
1761132351467975400,2.185975341796875,-0.022138025611639023,-0.00847517792135477,0.005948438309133053
1761132351487823400,2.2058232421875,-0.025676386430859566,-0.018277620896697044,0.0014807670377194881
1761132351507671300,2.22567138671875,-0.020973751321434975,-0.021618545055389404,-0.002331687603145838
1761132351527518500,2.2455185546875,-0.014295521192252636,-0.01949271559715271,-0.02093343622982502
1761132351547366400,2.265366455078125,-0.014001481235027313,-0.012649762444198132,-0.025948362424969673
1761132351567214600,2.285214599609375,0.004716602154076099,-0.02104838564991951,-0.019823212176561356
1761132351587062300,2.305062255859375,0.025856388732790947,-0.0494091622531414,-0.0043680425733327866
1761132351606909400,2.324909423828125,0.03248806297779083,-0.05681481584906578,0.00513367960229516
1761132351626757400,2.34475732421875,0.031817931681871414,-0.05233925208449364,0.007584102917462587
1761132351646605600,2.36460546875,0.021425878629088402,-0.038439080119132996,0.018558021634817123
1761132351666453200,2.384453369140625,0.018721550703048706,-0.02563422918319702,0.01957057975232601
1761132351686300400,2.404300537109375,0.020741300657391548,-0.01565220206975937,0.009079273790121078
1761132351706148400,2.4241484375,0.0160084031522274,-0.016881071031093597,-0.022030973806977272
1761132351725996500,2.44399658203125,0.01046157255768776,-0.019460076466202736,-0.023925546556711197
1761132351745844500,2.463844482421875,0.005553184077143669,-0.012539705261588097,-0.001642126590013504
1761132351765691400,2.48369140625,-0.005267460830509663,-0.00343057862482965,0.00033042673021554947
1761132351785539300,2.503539306640625,-0.022363245487213135,0.006676491349935532,-0.030348099768161774
1761132351805387500,2.523387451171875,-0.03393518924713135,0.013764514587819576,-0.030338115990161896
1761132351825235500,2.5432353515625,-0.04318813607096672,0.012446137145161629,-0.010142429731786251
1761132351845082600,2.56308251953125,-0.0464540459215641,0.01042904518544674,0.001004739198833704
1761132351864930300,2.582930419921875,-0.04097190126776695,0.017031513154506683,-0.01010775938630104
1761132351884778500,2.602778564453125,-0.02849036455154419,0.029250871390104294,-0.03277409449219704
1761132351904626400,2.62262646484375,-0.008675342425704002,0.02861393615603447,-0.05856760963797569
1761132351924473600,2.6424736328125,0.003165539586916566,0.022686216980218887,-0.04326755180954933
1761132351944321300,2.6623212890625,0.0010392258409410715,0.01673905923962593,0.024896103888750076
1761132351964169500,2.68216943359375,0.00022355496184900403,0.015892360359430313,0.05662621557712555
1761132351984017400,2.702017333984375,-0.009327608160674572,0.0037436101119965315,0.057747725397348404
1761132352003864600,2.721864501953125,-0.018049009144306183,0.0014211286325007677,0.04002624750137329
1761132352023712500,2.74171240234375,-0.03454632684588432,-0.0038406550884246826,0.01760026067495346
1761132352043560400,2.761560546875,-0.055756982415914536,-0.007977032102644444,-0.011906119994819164
1761132352063407000,2.781406982421875,-0.07261639088392258,-0.013871672563254833,-0.012992956675589085
1761132352083255000,2.801255126953125,-0.0775500014424324,-0.014288649894297123,0.0062246364541351795
1761132352103103200,2.821103271484375,-0.06382767111063004,0.0036300919018685818,0.019529957324266434
1761132352122951000,2.840950927734375,-0.04698704555630684,0.0071280840784311295,-0.010085025802254677
1761132352142798000,2.860798095703125,-0.03400116786360741,0.0018958738073706627,-0.051149897277355194
1761132352162646000,2.88064599609375,-0.012026279233396053,0.01686120592057705,-0.05945020169019699
1761132352182494200,2.900494140625,0.01592428982257843,0.015919053927063942,-0.03662242740392685
1761132352202342100,2.920342041015625,0.0385989174246788,0.003062547417357564,-0.011450623162090778
1761132352222189300,2.940189208984375,0.05699403956532478,-0.008953572250902653,0.0010751187801361084
1761132352242037000,2.960037109375,0.07079894840717316,-0.011217327788472176,-0.00986086018383503
1761132352261885200,2.97988525390625,0.06784527003765106,-0.003278750227764249,0.006778376642614603
1761132352281733000,2.999733154296875,0.06105920672416687,-0.01213501300662756,0.013880349695682526
1761132352301580300,3.019580322265625,0.05788092687726021,-0.036156512796878815,0.028232049196958542
1761132352321428000,3.039427978515625,0.04033186286687851,-0.04295061528682709,0.040425676852464676
1761132352341276200,3.059276123046875,0.02548826113343239,-0.05508378893136978,0.03288508206605911
1761132352361124000,3.0791240234375,0.016183149069547653,-0.058860111981630325,0.04829512536525726
1761132352380971300,3.09897119140625,-0.0016262766439467669,-0.07337573170661926,0.061539482325315475
1761132352400819000,3.11881884765625,-0.01994479075074196,-0.08009824901819229,0.07101021707057953
1761132352420667100,3.138667236328125,-0.0198166873306036,-0.03611379489302635,0.06924182921648026
1761132352440515000,3.15851513671875,-0.016132120043039322,-0.017886443063616753,0.02251022309064865
1761132352460362200,3.1783623046875,-0.02183612436056137,0.0004315262194722891,-0.016617953777313232
1761132352480210200,3.198210205078125,-0.014336689375340939,0.012290622107684612,-0.04446856677532196
1761132352500058000,3.21805810546875,-0.0006851037032902241,0.022220170125365257,-0.0507035069167614
1761132352519906000,3.237906005859375,0.009869487024843693,0.039790406823158264,-0.03903932496905327
1761132352539753200,3.257753173828125,0.016079280525445938,0.04693937674164772,-0.04120970517396927
1761132352559601200,3.27760107421875,0.017876824364066124,0.03897268325090408,-0.031119422987103462
1761132352579449000,3.297448974609375,0.030536117032170296,0.030084071680903435,0.004082823172211647
1761132352599297000,3.317297119140625,0.0356428436934948,0.029436185956001282,0.01834668591618538
1761132352619144200,3.337144287109375,0.025289155542850494,0.03005717135965824,-0.00027117878198623657
1761132352638992100,3.3569921875,0.001484911423176527,0.028003232553601265,-0.02346707135438919
1761132352658840000,3.376840087890625,-0.012279141694307327,0.029232453554868698,-0.03141340985894203
1761132352678687000,3.39668701171875,-0.019355950877070427,0.02904350310564041,-0.01840420812368393
1761132352698535200,3.41653515625,-0.028491942211985588,0.026953723281621933,-0.013814904727041721
1761132352718383000,3.436383056640625,-0.04897243157029152,0.017557822167873383,-0.005938483402132988
1761132352738231300,3.456231201171875,-0.046515244990587234,0.001322018913924694,-0.004259651992470026
1761132352758078200,3.476078125,-0.048132460564374924,0.002870451658964157,-0.012043298222124577
1761132352777926100,3.495926025390625,-0.043226808309555054,0.007242134772241116,-0.019073486328125
1761132352797774000,3.515774169921875,-0.03294965252280235,-0.002823546528816223,-0.01262291893362999
1761132352817622300,3.535622314453125,-0.015104606747627258,0.0003200490027666092,0.009510079398751259
1761132352837469200,3.55546923828125,-0.0063376110047101974,0.010957140475511551,0.002537243068218231
1761132352857317000,3.575317138671875,0.0027931395452469587,0.011181791312992573,-0.012693565338850021
1761132352877165000,3.5951650390625,0.018240932375192642,-0.001711972989141941,-0.012536538764834404
1761132352897013200,3.61501318359375,0.03261078894138336,-0.015142787247896194,-0.0048786913976073265
1761132352916860200,3.634860107421875,0.044269200414419174,-0.02940918318927288,0.016896620392799377
1761132352936708000,3.6547080078125,0.04182113707065582,-0.03626696765422821,0.026402823626995087
1761132352956556000,3.67455615234375,0.02084711380302906,-0.035052478313446045,0.02558467909693718
1761132352976404200,3.694404296875,0.007207813672721386,-0.03016347996890545,0.0002390798181295395
1761132352996251100,3.714251220703125,0.001451317686587572,-0.029232189059257507,-0.011063400655984879
1761132353016099300,3.734099365234375,-0.010785218328237534,-0.020578350871801376,-0.005977851338684559
1761132353035947000,3.753947021484375,0.0005278713651932776,-0.005823735147714615,-0.0031979219056665897
1761132353055794400,3.77379443359375,0.014602200128138065,0.006967614404857159,-0.027209101244807243
1761132353075641300,3.793641357421875,0.030250309035182,-0.001038657734170556,-0.02935495786368847
1761132353095489500,3.813489501953125,0.047258101403713226,-0.010723015293478966,-0.020256871357560158
1761132353115337700,3.833337646484375,0.05321284011006355,-0.02282523550093174,-0.006565707735717297
1761132353135185400,3.853185302734375,0.05480743572115898,-0.03176970034837723,0.008138307370245457
1761132353155032300,3.8730322265625,0.04188821464776993,-0.020837856456637383,0.00943447183817625
1761132353174880500,3.892880615234375,0.03363869711756706,-0.013297758996486664,0.005900164134800434
1761132353194728700,3.912728759765625,0.015501429326832294,-0.009635034948587418,0.001464666798710823
1761132353214576400,3.932576416015625,-0.0057321274653077126,-0.0014330210397019982,-0.00536752725020051
1761132353234423300,3.95242333984375,-0.027705198153853416,0.011464735493063927,-0.02600240148603916
1761132353254271500,3.972271484375,-0.02895061857998371,0.017658786848187447,-0.041603632271289825
1761132353274119700,3.99211962890625,-0.02444605901837349,0.004068244248628616,-0.03212740644812584
1761132353293967400,4.01196728515625,-0.015240861102938652,-0.005275282543152571,-0.02676261030137539
1761132353313814500,4.031814453125,-0.00573987839743495,-0.012331435456871986,-0.01492248848080635
1761132353333662500,4.051662353515625,-0.0012399990810081363,-0.012190338224172592,-0.004497884307056665
1761132353353510700,4.0715107421875,0.005602119956165552,-0.0066967858001589775,-0.011032773181796074
1761132353373358600,4.091358642578125,0.000987533014267683,0.0035609782207757235,-0.011998336762189865
1761132353393205500,4.11120556640625,0.001551957568153739,0.010356273502111435,-0.0059320940636098385
1761132353413053400,4.131053466796875,0.0026367732789367437,0.020084641873836517,-0.003113912418484688
1761132353432901600,4.150901611328125,0.0015381008852273226,0.0269234050065279,-0.009025282226502895
1761132353452749600,4.17074951171875,0.0027675069868564606,0.026535389944911003,-0.017015952616930008
1761132353472596500,4.190596435546875,-0.002243136754259467,0.01048986241221428,-0.01172037422657013
1761132353492444400,4.2104443359375,-0.001659299829043448,-0.003291454166173935,0.002756325528025627
1761132353512292600,4.230292724609375,-0.012964069843292236,-0.01637914590537548,0.005642611533403397
1761132353532140500,4.250140625,-0.023009145632386208,-0.016425246372818947,0.0130606759339571
1761132353551987500,4.269987548828125,-0.03231753781437874,-0.005910127889364958,0.017588024958968163
1761132353571835400,4.28983544921875,-0.04412311688065529,-0.007771330885589123,0.0035109426826238632
1761132353591683300,4.309683349609375,-0.045036233961582184,-0.015933506190776825,-0.01629796251654625
1761132353611531500,4.329531494140625,-0.03287418559193611,-0.03288288414478302,-0.02969096601009369
1761132353631378400,4.34937841796875,-0.03514032065868378,-0.03981533646583557,-0.0297247264534235
1761132353651226600,4.3692265625,-0.037592194974422455,-0.05183873698115349,-0.01074001844972372
1761132353671074300,4.38907421875,-0.027929574251174927,-0.05963374301791191,0.02641437202692032
1761132353690922500,4.408922607421875,-0.017712660133838654,-0.05126059055328369,0.050284549593925476
1761132353710770700,4.428770751953125,-0.008625146932899952,-0.04605131596326828,0.05252579227089882
1761132353730618400,4.448618408203125,0.004224477335810661,-0.033161282539367676,0.028314027935266495
1761132353750466600,4.468466552734375,0.01577478088438511,-0.022194132208824158,-0.010449758730828762
1761132353770313500,4.4883134765625,0.022783976048231125,0.0036811460740864277,-0.03552888706326485
1761132353790161700,4.50816162109375,0.02431403286755085,0.032015059143304825,-0.03356984630227089
1761132353810009600,4.528009521484375,0.034511275589466095,0.04941295459866524,-0.047865159809589386
1761132353829857500,4.547857421875,0.04777063801884651,0.05093344673514366,-0.05877945199608803
1761132353849705500,4.56770556640625,0.06329009681940079,0.033106815069913864,-0.0773450955748558
1761132353869552600,4.587552734375,0.07271023094654083,0.021398086100816727,-0.07179886847734451
1761132353889400600,4.607400634765625,0.07379663735628128,0.0027245476376265287,-0.06455172598361969
1761132353909248500,4.62724853515625,0.05450061336159706,0.006566808559000492,-0.044805143028497696
1761132353929095400,4.647095458984375,0.03626086190342903,0.0025225719437003136,-0.016921916976571083
1761132353948943600,4.666943603515625,0.027869215235114098,0.013984590768814087,0.015012240037322044
1761132353968791600,4.68679150390625,0.0076483553275465965,0.03129127621650696,0.01877029985189438
1761132353988639500,4.706639404296875,-0.026648355647921562,0.03594687953591347,-0.013454021885991096
1761132354008486400,4.726486328125,-0.03139864280819893,0.02287542261183262,-0.021572064608335495
1761132354028334600,4.74633447265625,-0.034499507397413254,0.011681064032018185,-0.023541783913969994
1761132354048183600,4.76618359375,-0.0365823395550251,-0.0055958591401577,-0.021216481924057007
1761132354068031500,4.786031494140625,-0.04077595844864845,-0.02138357050716877,0.0113447280600667
1761132354087879400,4.80587939453125,-0.034098897129297256,-0.03168690204620361,0.03449038416147232
1761132354107726600,4.8257265625,-0.015467257238924503,-0.0401512011885643,0.01685882732272148
1761132354127574500,4.845574462890625,-0.009915926493704319,-0.02964712120592594,-0.007160294335335493
1761132354147422500,4.86542236328125,-0.0002557770349085331,-0.021107543259859085,-0.0058075785636901855
1761132354167269400,4.885269287109375,0.013314369134604931,-0.01800163835287094,-0.0023870873264968395
1761132354187117600,4.90511767578125,0.020892640575766563,-0.009940608404576778,0.000688720028847456
1761132354206965500,4.924965576171875,0.024526672437787056,0.004306266084313393,-0.0016055461019277573
1761132354226813400,4.9448134765625,0.017114441841840744,0.018638798967003822,-0.02677452191710472
1761132354246660400,4.964660400390625,0.019525349140167236,0.04216311126947403,-0.03699694573879242
1761132354266508500,4.984508544921875,0.029846418648958206,0.05803968012332916,-0.03574758395552635
1761132354286356500,5.0043564453125,0.037761442363262177,0.054298169910907745,-0.03348749130964279
1761132354306204700,5.02420458984375,0.03518000617623329,0.025864984840154648,-0.044738393276929855
1761132354326051600,5.044051513671875,0.031008951365947723,0.01988462544977665,-0.04037954658269882
1761132354345899500,5.0638994140625,0.017414581030607224,0.004601543769240379,-0.01816798560321331
1761132354365747500,5.08374755859375,-0.014085563831031322,-0.005935121327638626,0.0023469477891921997
1761132354385595600,5.103595703125,-0.03929181024432182,-0.013236615806818008,0.005034345667809248
1761132354405442600,5.123442626953125,-0.03920987248420715,-0.020931966602802277,-0.0013385508209466934
1761132354425290200,5.143290283203125,-0.03372737765312195,-0.017236126586794853,-0.01603485643863678
1761132354445138400,5.163138427734375,-0.02034217305481434,-0.02144009806215763,-0.03085463121533394
1761132354464986600,5.182986572265625,-0.008571011014282703,-0.022198699414730072,-0.03849224001169205
1761132354484833500,5.20283349609375,0.01275010034441948,-0.019890964031219482,-0.034512653946876526
1761132354504681500,5.222681396484375,0.03226752579212189,-0.017786946147680283,-0.015604162588715553
1761132354524529400,5.242529296875,0.039795778691768646,-0.01486123912036419,-0.0147409588098526
1761132354544377600,5.262377685546875,0.03275409713387489,0.0002598315477371216,-0.007262413389980793
1761132354564224500,5.282224609375,0.032184768468141556,0.02567855827510357,-0.026021575555205345
1761132354584072400,5.302072509765625,0.028813820332288742,0.057073380798101425,-0.05078822374343872
1761132354603920400,5.32192041015625,0.018002569675445557,0.055978354066610336,-0.04808726906776428
1761132354623768600,5.3417685546875,0.013563034124672413,0.04774327203631401,-0.03615706041455269
1761132354643615500,5.361615478515625,0.021602246910333633,0.029958408325910568,-0.035940032452344894
1761132354663463400,5.38146337890625,0.013185271061956882,0.01734575629234314,-0.03531273826956749
1761132354683311400,5.401311279296875,0.008455525152385235,-0.0015173518331721425,-0.03256558999419212
1761132354703159600,5.42115966796875,-0.00013672542991116643,-0.009488577023148537,-0.013976098969578743
1761132354723006500,5.44100634765625,-0.016836343333125114,-0.011117100715637207,0.001758655533194542
1761132354742854400,5.4608544921875,-0.03820481151342392,-0.0038998080417513847,0.0016802656464278698
1761132354762702600,5.48070263671875,-0.04780105501413345,-0.0006954169366508722,-0.013061932288110256
1761132354782550500,5.500550537109375,-0.059164196252822876,0.009922431781888008,-0.019259639084339142
1761132354802397400,5.5203974609375,-0.073335200548172,-0.00644927192479372,-0.01494999323040247
1761132354822245400,5.540245361328125,-0.08196359127759933,-0.016520507633686066,-0.010710579343140125
1761132354842093600,5.560093505859375,-0.08247484266757965,-0.01877712458372116,0.007829234935343266
1761132354861941500,5.57994140625,-0.09023872762918472,-0.00581049919128418,0.009919889271259308
1761132354881788400,5.599788330078125,-0.09192795306444168,0.007753606885671616,0.00824330747127533
1761132354901636400,5.61963623046875,-0.0980725809931755,0.0059731630608439445,-0.008748507127165794
1761132354921484500,5.639484619140625,-0.08098384737968445,0.01083605457097292,-0.018247131258249283
1761132354941332500,5.65933251953125,-0.07931066304445267,0.009456126019358635,-0.020957382395863533
1761132354961179400,5.679179443359375,-0.06291856616735458,0.009622186422348022,-0.007492753677070141
1761132354981027300,5.69902734375,-0.04266148433089256,0.010381589643657207,0.013200735673308372
1761132355000875500,5.71887548828125,-0.023758644238114357,0.00548336748033762,0.007209226489067078
1761132355020723500,5.738723388671875,-0.0039282734505832195,0.004860582761466503,0.0009666844271123409
1761132355040570600,5.758570556640625,0.004315225873142481,0.010894007049500942,-0.004716166760772467
1761132355060417800,5.778417724609375,0.007204371504485607,0.019146546721458435,0.01048118807375431
1761132355080266000,5.798265869140625,0.014032897539436817,0.016055326908826828,0.029220890253782272
1761132355100114200,5.8181142578125,0.018574321642518044,0.016042428091168404,0.018196605145931244
1761132355119961000,5.837961181640625,0.0160357803106308,0.018181120976805687,0.00981362909078598
1761132355139808800,5.857808837890625,0.012525329366326332,0.015158364549279213,0.01001726370304823
1761132355159657000,5.877656982421875,0.00999512616544962,0.0076762717217206955,0.02407936193048954
1761132355179505200,5.897505126953125,0.002491598716005683,0.0038716732524335384,0.02624608762562275
1761132355199352000,5.91735205078125,-0.0019996121991425753,-0.000886252848431468,0.024783067405223846
1761132355219200000,5.937199951171875,-0.0028370493091642857,0.0035084246192127466,0.015926094725728035
1761132355239048000,5.9570478515625,-0.002416941337287426,0.0020526715088635683,0.009398854337632656
1761132355258896100,5.976896240234375,0.0006418178672902286,-0.006188145838677883,0.01119246706366539
1761132355278743000,5.996742919921875,0.006382371298968792,-0.020909730345010757,0.030103065073490143
1761132355298591000,6.016591064453125,0.0008367339032702148,-0.02155268006026745,0.04978372901678085
1761132355318439000,6.03643896484375,-0.008792310953140259,-0.008635619655251503,0.054123375564813614
1761132355338287000,6.056287109375,-0.015044274739921093,0.0041017597541213036,0.019275138154625893
1761132355358134000,6.076134033203125,-0.018032317981123924,-0.0010754149407148361,-0.015944775193929672
1761132355377982000,6.09598193359375,-0.015707675367593765,-0.006040751468390226,-0.008321263827383518
1761132355397830000,6.115829833984375,-0.018316656351089478,0.004327169619500637,0.011622568592429161
1761132355417678000,6.135677978515625,-0.010124938562512398,0.009926173835992813,0.009368033148348331
1761132355437525000,6.15552490234375,-0.003279905766248703,0.01861153542995453,-0.004037932027131319
1761132355457373000,6.175373046875,0.011725104413926601,0.01734846830368042,-0.012932647950947285
1761132355477221000,6.19522119140625,0.02397976815700531,0.009652400389313698,-0.01672641932964325
1761132355497069000,6.215069091796875,0.02408255822956562,0.009446944110095501,0.0038971740286797285
1761132355516916000,6.234916015625,0.014205793850123882,-0.008033636957406998,0.022660017013549805
1761132355536764000,6.254763916015625,0.015797976404428482,-0.011162825860083103,0.042107533663511276
1761132355556612000,6.274612060546875,0.002448889659717679,-0.002097500953823328,0.04035648703575134
1761132355576460000,6.2944599609375,-0.006243343465030193,0.001820137957111001,0.006992761045694351
1761132355596307000,6.314306884765625,-0.017299510538578033,-0.006007345858961344,-0.01515103504061699
1761132355616155000,6.33415478515625,-0.020633595064282417,-0.012053530663251877,-0.01190786063671112
1761132355636003000,6.354003173828125,-0.03245967626571655,-0.020017409697175026,0.0016058869659900665
1761132355655851000,6.37385107421875,-0.03789129480719566,-0.027729632332921028,0.01312316209077835
1761132355675698000,6.393697998046875,-0.03935205563902855,-0.0338270328938961,0.016646645963191986
1761132355695545900,6.4135458984375,-0.03783084824681282,-0.02903177961707115,0.007154026534408331
1761132355715394000,6.43339404296875,-0.034729450941085815,-0.017991984263062477,-0.02591601572930813
1761132355735242000,6.453241943359375,-0.034134700894355774,0.0035570431500673294,-0.03957236558198929
1761132355755089200,6.473089111328125,-0.023959096521139145,-0.0015371108893305063,-0.00485281040892005
1761132355774936800,6.492936767578125,-0.0061877211555838585,-0.0012135630240663886,0.026077769696712494
1761132355794785000,6.512784912109375,0.007406450342386961,-0.012729549780488014,0.02221146784722805
1761132355814633000,6.532633056640625,0.007514840457588434,-0.017001260071992874,-0.003938909154385328
1761132355834480000,6.552480224609375,0.008876403793692589,-0.018315371125936508,-0.016737287864089012
1761132355854327800,6.572327880859375,0.024619432166218758,-0.01888732612133026,-0.010639037936925888
1761132355874176000,6.592176025390625,0.026823345571756363,-0.001738926861435175,-0.005792034789919853
1761132355894024000,6.61202392578125,0.01525849848985672,0.017909500747919083,-0.014895029366016388
1761132355913871000,6.63187109375,0.004712303169071674,0.028744110837578773,-0.03808237984776497
1761132355933719000,6.651718994140625,-0.0050287311896681786,0.027415858581662178,-0.06821291893720627
1761132355953567000,6.67156689453125,-0.0108938692137599,0.022013237699866295,-0.06236204877495766
1761132355973415000,6.691414794921875,-0.02487885020673275,0.023590054363012314,-0.03722396865487099
1761132355993262000,6.711261962890625,-0.03996267914772034,0.03292955085635185,0.00010258099064230919
1761132356013110000,6.731110107421875,-0.04305850341916084,0.02480492554605007,0.032056327909231186
1761132356032958000,6.7509580078125,-0.030157603323459625,0.0631348267197609,0.0376158207654953
1761132356052806400,6.770806396484375,-0.04331904277205467,0.018744753673672676,-0.003859014715999365
1761132356072653300,6.7906533203125,-0.03026755340397358,0.018230566754937172,-0.010526938363909721
1761132356092501500,6.81050146484375,-0.011705863289535046,0.006371638737618923,0.007084615528583527
1761132356112349200,6.83034912109375,0.0001489145797677338,0.007567842025309801,0.01385449431836605
1761132356132197400,6.850197265625,0.007700186688452959,0.00359149812720716,0.025356199592351913
1761132356152044300,6.870044189453125,0.008641311898827553,-0.004214581102132797,0.030487313866615295
1761132356171892500,6.889892578125,0.013987736776471138,-0.0037902346812188625,0.03750515356659889
1761132356191740200,6.909740234375,0.017702220007777214,-0.010883580893278122,0.026068594306707382
1761132356211588400,6.92958837890625,0.0029277384746819735,-0.005721889436244965,0.020007967948913574
1761132356231435300,6.949435302734375,-0.0048456257209181786,-0.006258186884224415,0.027759458869695663
1761132356251283500,6.969283447265625,-0.009674238972365856,-0.0025206273421645164,0.013941094279289246
1761132356271131400,6.98913134765625,-0.004688994958996773,0.006925616413354874,0.004265853203833103
1761132356290979300,7.008979248046875,-0.0035034269094467163,0.013407309539616108,-0.008166581392288208
1761132356310826200,7.028826171875,0.002192036947235465,0.005561063997447491,-0.005950759164988995
1761132356330674400,7.04867431640625,0.0012130588293075562,0.011619222350418568,0.010577883571386337
1761132356350522400,7.0685224609375,0.006042074412107468,-0.00042743817903101444,0.017222033813595772
1761132356370370300,7.088370361328125,0.01507348008453846,0.005391052924096584,-0.003854873590171337
1761132356390217200,7.10821728515625,0.004163214471191168,0.010239320807158947,-0.0178800281137228
1761132356410065400,7.1280654296875,0.0052194069139659405,0.0030548188369721174,0.007625455502420664
1761132356429913300,7.147913330078125,0.01765553094446659,-0.002009541727602482,0.014691086485981941
1761132356449761300,7.16776123046875,0.015628142282366753,0.010726776905357838,0.018868546932935715
1761132356469608200,7.187608154296875,0.005371373612433672,0.01332772709429264,0.013758620247244835
1761132356489456400,7.207456298828125,0.0037975625600665808,0.017101487144827843,-0.012883936986327171
1761132356509304300,7.22730419921875,-0.004708206281065941,0.018577653914690018,-0.019454125314950943
1761132356529152500,7.247152587890625,0.007802883628755808,0.0006519276648759842,0.015147408470511436
1761132356548999400,7.26699951171875,0.007534877862781286,-0.009885412640869617,0.023560186848044395
1761132356568847400,7.286847412109375,0.0001611448242329061,-0.007819638587534428,0.01353692077100277
1761132356588695300,7.3066953125,-0.004195360466837883,-0.015786411240696907,0.0007281387224793434
1761132356608543500,7.32654345703125,-0.004598268773406744,-0.018168648704886436,0.016844863072037697
1761132356628390400,7.346390380859375,-0.004338284023106098,-0.0076650045812129974,0.03570333123207092
1761132356648238300,7.36623828125,-0.0002057287492789328,-0.005469294264912605,0.03038862906396389
1761132356668086300,7.386086181640625,0.00528475409373641,0.007819452323019505,0.012193138711154461
1761132356687934500,7.4059345703125,0.020740721374750137,0.003748067421838641,-0.0030271410942077637
1761132356707781400,7.425781494140625,0.032238323241472244,-0.007755337283015251,0.009172970429062843
1761132356727629300,7.44562939453125,0.03574084863066673,-0.011214039288461208,0.02208922617137432
1761132356747477200,7.465477294921875,0.03067008964717388,-0.018236767500638962,0.032338306307792664
1761132356767325400,7.485325439453125,0.027570702135562897,-0.022359874099493027,0.0381072461605072
1761132356787172400,7.50517236328125,0.01866173930466175,-0.02270997315645218,0.03177693486213684
1761132356807020500,7.5250205078125,0.005871099419891834,-0.01986052468419075,0.01601162739098072
1761132356826868200,7.5448681640625,-0.011705220676958561,-0.01952563226222992,0.0063746413215994835
1761132356846716400,7.56471630859375,-0.02750362455844879,-0.015182547271251678,-0.007625063881278038
1761132356866563300,7.584563232421875,-0.03852148726582527,-0.013471169397234917,-0.002913493663072586
1761132356886411500,7.60441162109375,-0.04068387672305107,-0.016017448157072067,-0.006570185534656048
1761132356906259200,7.62425927734375,-0.039343755692243576,-0.02068854123353958,0.004365164320915937
1761132356926107400,7.644107421875,-0.035705775022506714,-0.01924140565097332,0.02129843831062317
1761132356945954300,7.663954345703125,-0.03299444541335106,-0.003013617591932416,0.012261245399713516
1761132356965802500,7.683802490234375,-0.023279445245862007,0.002282798755913973,-0.015176890417933464
1761132356985650200,7.703650146484375,-0.005097667686641216,0.0021023466251790524,-0.030331050977110863
1761132357005498400,7.723498291015625,0.019954051822423935,-0.011258886195719242,-0.009979250840842724
1761132357025345300,7.74334521484375,0.035656895488500595,-0.029328202828764915,0.010926228016614914
1761132357045193500,7.763193359375,0.04082885757088661,-0.031509626656770706,0.019770149141550064
1761132357065041400,7.78304150390625,0.028953680768609047,-0.015364016406238079,0.01720862276852131
1761132357084889300,7.802889404296875,0.016308387741446495,-0.001437026308849454,-0.011052333749830723
1761132357104736300,7.822736328125,0.002424032660201192,0.004332630895078182,-0.032290223985910416
1761132357124584400,7.84258447265625,-0.012452321127057076,-0.003644549986347556,-0.032521843910217285
1761132357144432400,7.862432373046875,-0.029529912397265434,-0.007081802003085613,-0.0326499417424202
1761132357164280300,7.8822802734375,-0.04748087376356125,-0.001441203523427248,-0.029729759320616722
1761132357184127200,7.902127197265625,-0.05000189691781998,-0.002100991550832987,-0.023605868220329285
1761132357203975400,7.921975341796875,-0.048383407294750214,-0.0018454908858984709,-0.011216677725315094
1761132357223823400,7.9418232421875,-0.0325624980032444,-0.004213456064462662,-0.015613671392202377
1761132357243671300,7.96167138671875,-0.030751697719097137,-0.0005771210417151451,-0.010516142472624779
1761132357263518200,7.981518310546875,-0.021060602739453316,-0.0005216572899371386,-0.0043440270237624645
1761132357283366400,8.001366455078125,-0.013401847332715988,-0.004181283991783857,0.003923224750906229
1761132357303213300,8.02121337890625,-0.0072901491075754166,0.006330615840852261,-0.000493964646011591
1761132357323061200,8.041061279296875,-0.01042899303138256,0.016725951805710793,-0.010077031329274178
1761132357342908400,8.060908447265625,-0.006963288877159357,0.02870233915746212,-0.006715741008520126
1761132357362756400,8.08075634765625,-0.005871946457773447,0.03160674124956131,-0.0009349067695438862
1761132357382604300,8.100604248046874,-0.02118370495736599,0.025806738063693047,-0.0021446170285344124
1761132357402452200,8.1204521484375,-0.021696574985980988,0.013028543442487717,0.0069771213456988335
1761132357422299400,8.14029931640625,-0.014105914160609245,0.0015200262423604727,0.016771402209997177
1761132357442147300,8.160147216796876,-0.02047598548233509,0.014129376038908958,0.017064470797777176
1761132357461995300,8.179995361328125,-0.03637932613492012,0.014734056778252125,0.00030474038794636726
1761132357481843200,8.19984326171875,-0.033524103462696075,0.0070033809170126915,0.007144730072468519
1761132357501690400,8.2196904296875,-0.022082310169935226,0.0010492713190615177,0.04410475492477417
1761132357521538300,8.239538330078124,-0.016893479973077774,0.0055707767605781555,0.04524829611182213
1761132357541386200,8.25938623046875,-0.012316766194999218,0.014447635039687157,0.026258649304509163
1761132357561234200,8.279234130859376,-0.011325380764901638,0.008458610624074936,0.023995202034711838
1761132357581081300,8.299081298828124,-0.0013079008786007762,-0.007872957736253738,0.03942928463220596
1761132357600929300,8.31892919921875,0.01522824540734291,-0.0066110966727137566,0.061830949038267136
1761132357620777500,8.338777587890625,0.007499145343899727,-0.007124569267034531,0.044806670397520065
1761132357640625200,8.358625244140624,0.0016521664801985025,-0.010263500735163689,0.0096929632127285
1761132357660472300,8.378472412109375,0.0007919739582575858,-0.004129312001168728,0.006142897065728903
1761132357680320300,8.3983203125,0.0022407888900488615,-0.0017863429384306073,0.006725475657731295
1761132357700168400,8.41816845703125,-0.004509552847594023,0.0009714004117995501,0.011173414066433907
1761132357720016100,8.43801611328125,-0.01733037829399109,0.0005383980460464954,0.0053218211978673935
1761132357739864300,8.4578642578125,-0.016187017783522606,-0.010311171412467957,0.00647027138620615
1761132357759712500,8.47771240234375,-0.007799456361681223,-0.014986499212682247,0.011461472138762474
1761132357779559400,8.497559326171874,-0.003946887794882059,-0.013314732350409031,0.011319530196487904
1761132357799407400,8.517407470703125,-0.004811160732060671,-0.004204252734780312,-0.008005436509847641
1761132357819255300,8.53725537109375,-0.008381862193346024,-0.0027043065056204796,-0.01667075604200363
1761132357839103200,8.557103271484374,-0.0044561694376170635,-0.012382946908473969,-0.009169432334601879
1761132357858950400,8.576950439453125,0.004311141092330217,-0.016261018812656403,-0.0029762242920696735
1761132357878798300,8.59679833984375,0.00707176374271512,-0.01694958284497261,-0.003174825571477413
1761132357898646300,8.616646240234376,0.004394414834678173,-0.014973795972764492,0.005541144870221615
1761132357918494200,8.636494140625,0.011265442706644535,-0.01989690400660038,-0.004377775825560093
1761132357938341400,8.65634130859375,0.018740292638540268,-0.02009035460650921,0.0026561408303678036
1761132357958189300,8.676189208984376,0.01657690666615963,-0.004639200866222382,-0.004507326055318117
1761132357978037200,8.696037353515624,0.014733562245965004,0.006669401191174984,-0.005231289658695459
1761132357997885200,8.71588525390625,0.019982513040304184,0.0035156153608113527,-0.015704534947872162
1761132358017732400,8.735732421875,0.02988411672413349,-0.0010018658358603716,-0.02537507936358452
1761132358037580300,8.755580322265626,0.026178663596510887,-0.008129484951496124,-0.02362397313117981
1761132358057427700,8.775427734375,0.018923629075288773,-0.00901016779243946,-0.004938636906445026
1761132358077275600,8.795275634765625,0.013008450157940388,-0.009875070303678513,0.007374469190835953
1761132358097122600,8.81512255859375,0.0011363483499735594,-0.0007948081474751234,0.0029048321302980185
1761132358116970800,8.834970703125,-0.007804222404956818,0.0049983542412519455,-0.009807523339986801
1761132358136818700,8.854818603515625,-0.01522146351635456,0.013032570481300354,-0.010010745376348495
1761132358156667000,8.8746669921875,-0.018104517832398415,0.0022804730106145144,0.002682632301002741
1761132358176513800,8.894513671875,-0.007205268833786249,-0.0027658622711896896,0.0033106249757111073
1761132358196361700,8.91436181640625,0.0034875154960900545,-0.010107415728271008,0.005943933967500925
1761132358216209700,8.934209716796875,0.0008483881247229874,-0.008235958404839039,0.008839929476380348
1761132358236057900,8.954057861328126,-0.003175580408424139,-0.0034917397424578667,0.012044588103890419
1761132358255904800,8.97390478515625,-0.0069095660001039505,0.007702500093728304,0.010061085224151611
1761132358275752700,8.993752685546875,-0.010684963315725327,0.01592397131025791,0.0028432898689061403
1761132358295600600,9.0136005859375,-0.011238368228077888,0.014431004412472248,-0.004449776373803616
1761132358315448800,9.03344873046875,-0.015866676345467567,0.013029648922383785,0.007715010084211826
1761132358335296500,9.053296630859375,-0.010113422758877277,0.01742308773100376,0.02421661838889122
1761132358355143700,9.073143798828125,0.0034950552508234978,0.009359638206660748,0.022414471954107285
1761132358374991600,9.09299169921875,0.010844479314982891,0.01073598675429821,0.005356562789529562
1761132358394839800,9.11283984375,0.002684976439923048,0.00006778957322239876,0.0008209086954593658
1761132358414687700,9.132687744140625,0.00365997850894928,-0.00719269085675478,0.010690994560718536
1761132358434535000,9.152534912109376,0.00494179455563426,-0.0038103852421045303,0.03431057184934616
1761132358454382600,9.172382568359374,0.001943058567121625,-0.00233082240447402,0.035061705857515335
1761132358474230800,9.192230712890625,-0.0028270841576159,0.0038813769351691008,0.018757592886686325
1761132358494078700,9.21207861328125,-0.011428656987845898,0.015831759199500084,0.0009350376203656197
1761132358513926000,9.23192578125,-0.0136130815371871,0.017182009294629097,-0.005248119588941336
1761132358533773600,9.251773681640625,-0.009784320369362831,0.007612152490764856,-0.001721902284771204
1761132358553621800,9.271621826171875,-0.0008415260817855597,0.002649910980835557,0.0026242807507514954
1761132358573469700,9.2914697265625,-0.002751226769760251,0.00531118456274271,0.0033754929900169373
1761132358593316900,9.31131689453125,-0.002854269929230213,0.002223020186647773,0.0004652789793908596
1761132358613164500,9.33116455078125,0.00045831844909116626,-0.0024799201637506485,0.006667275447398424
1761132358633012700,9.3510126953125,0.004657857120037079,0.001977412262931466,0.006141034886240959
1761132358652860700,9.370860595703125,0.0011311427224427462,0.0012372573837637901,0.0011364687234163284
1761132358672707800,9.390707763671875,-0.007781595923006535,-0.0017712692497298121,-0.005580749828368425
1761132358692555800,9.4105556640625,-0.0007344559417106211,-0.005849696695804596,0.012996157631278038
1761132358712403700,9.43040380859375,0.004530197940766811,-0.002250904683023691,0.008687667548656464
1761132358732251600,9.450251708984375,-0.0012458767741918564,0.01200997643172741,-0.004347294569015503
1761132358752098800,9.470098876953125,-0.00197551678866148,0.015292912721633911,-0.017420411109924316
1761132358771946800,9.48994677734375,0.00188651611097157,0.006294741295278072,-0.009508645161986351
1761132358791794700,9.509794677734375,0.011068252846598625,-0.004660484381020069,0.025502121075987816
1761132358811642600,9.529642578125,0.030509168282151222,-0.012770415283739567,0.03314517065882683
1761132358831489800,9.54948974609375,0.02539587765932083,-0.005143431946635246,0.029595352709293365
1761132358851337700,9.569337646484374,0.014314129948616028,0.008614128455519676,0.0068894303403794765
1761132358871185700,9.589185546875,0.0035140570253133774,0.02376948855817318,-0.022466035559773445
1761132358891033600,9.60903369140625,0.0020092043559998274,0.01779359020292759,-0.007907237857580185
1761132358910880800,9.628880859375,-0.004439943470060825,0.004892346449196339,0.0182894766330719
1761132358930728700,9.648728759765625,-0.012402905151247978,-0.0033587634097784758,0.029469402506947517
1761132358950577000,9.668576904296875,-0.025142870843410492,-0.007220029830932617,0.07442203909158707
1761132358970424600,9.688424560546874,-0.02622314915060997,-0.013952739536762238,0.21488957107067108
1761132358990271700,9.708271728515625,-0.010211040265858173,-0.04420911520719528,0.2581022381782532
1761132359010119700,9.72811962890625,-0.016331246122717857,-0.039902329444885254,0.21352572739124298
1761132359029968000,9.7479677734375,-0.025321347638964653,-0.05067078396677971,0.1918637752532959
1761132359049815600,9.767815673828125,-0.005822019651532173,-0.041760221123695374,0.12993086874485016
1761132359069663700,9.787663818359375,0.013045776635408401,-0.03135688230395317,0.044929780066013336
1761132359089511700,9.80751171875,0.0021502412855625153,0.0067245871759951115,-0.040572796016931534
1761132359109359600,9.827359619140625,0.006795510649681091,0.024911701679229736,-0.11283842474222183
1761132359129207600,9.84720751953125,0.01173333264887333,0.04193374887108803,-0.14041264355182648
